"success","trial_type","trial_index","time_elapsed","internal_node_id","subject","condition","condition_code","measure","measure_code","codeword","gender","age","education","chinese","fach","handedness","comment","hinschauen","ablenkung","gewissenhaft","rt","url","responses","stimulus","key_press","val","type","type_specific","category","cs_selected","response","target","task","indirect","nr_pres"
"true","fullscreen","0","2949","0.0-0.0","yk130xwl82","one_one","1","direct_first","1","CH05NK21","0","20","1","1","3","1","","0","1","0","","","","","","","","","","","","","","",""
"","external-html","1","11453","0.0-1.0","yk130xwl82","one_one","1","direct_first","1","CH05NK21","0","20","1","1","3","1","","0","1","0","8434.859999921173","text/information.html","","","","","","","","","","","","",""
"","external-html","2","25793","0.0-2.0","yk130xwl82","one_one","1","direct_first","1","CH05NK21","0","20","1","1","3","1","","0","1","0","14273.2899999246","text/consent.html","","","","","","","","","","","","",""
"","survey-html-form","3","63003","0.0-3.0","yk130xwl82","one_one","1","direct_first","1","CH05NK21","0","20","1","1","3","1","","0","1","0","37203.3400000073","","{""codeword_enter"":""CH05NK21""}","","","","","","","","","","","",""
"","survey-html-form","4","81501","0.0-4.0","yk130xwl82","one_one","1","direct_first","1","CH05NK21","0","20","1","1","3","1","","0","1","0","18490.68499985151","","{""age"":""20"",""education"":""1"",""subject"":""3"",""gender"":""0"",""handedness"":""1"",""chinese"":""1""}","","","","","","","","","","","",""
"","survey-html-form","5","88659","0.0-5.0","yk130xwl82","one_one","1","direct_first","1","CH05NK21","0","20","1","1","3","1","","0","1","0","7154.579999856651","","{}","","","","","","","","","","","",""
"","html-keyboard-response","6","92676","0.0-6.0-0.0-0.0","yk130xwl82","one_one","1","direct_first","1","CH05NK21","0","20","1","1","3","1","","0","1","0","null","","","<div class = 'row'><div class = 'column'><img src = 'category1/CS1.png' width = '70%;'></div><div class = 'column'><img src = 'usneg/9421.bmp' width = '100%;'></div></div>","null","neg","CS","CS","1","category1/CS1.png","","","","",""
"","html-keyboard-response","7","95185","0.0-6.0-0.0-0.1","yk130xwl82","one_one","1","direct_first","1","CH05NK21","0","20","1","1","3","1","","0","1","0","null","","","<div class = 'row'><div class = 'column'><img src = 'usneg/9050.bmp' width = '100%;'></div><div class = 'column'><img src = 'category3/CS5.png' width = '70%;'></div></div>","null","neg","CS","CS","3","category3/CS5.png","","","","",""
"","html-keyboard-response","8","97693","0.0-6.0-0.0-0.2","yk130xwl82","one_one","1","direct_first","1","CH05NK21","0","20","1","1","3","1","","0","1","0","null","","","<div class = 'row'><div class = 'column'><img src = 'category4/CS8.png' width = '70%;'></div><div class = 'column'><img src = 'uspos/4625.bmp' width = '100%;'></div></div>","null","pos","CS","CS","4","category4/CS8.png","","","","",""
"","html-keyboard-response","9","100205","0.0-6.0-0.0-0.3","yk130xwl82","one_one","1","direct_first","1","CH05NK21","0","20","1","1","3","1","","0","1","0","null","","","<div class = 'row'><div class = 'column'><img src = 'category3/CS5.png' width = '70%;'></div><div class = 'column'><img src = 'usneg/9050.bmp' width = '100%;'></div></div>","null","neg","CS","CS","3","category3/CS5.png","","","","",""
"","html-keyboard-response","10","102724","0.0-6.0-0.0-0.4","yk130xwl82","one_one","1","direct_first","1","CH05NK21","0","20","1","1","3","1","","0","1","0","null","","","<div class = 'row'><div class = 'column'><img src = 'category2/CS4.png' width = '70%;'></div><div class = 'column'><img src = 'uspos/5600.bmp' width = '100%;'></div></div>","null","pos","CS","CS","2","category2/CS4.png","","","","",""
"","html-keyboard-response","11","105233","0.0-6.0-0.0-0.5","yk130xwl82","one_one","1","direct_first","1","CH05NK21","0","20","1","1","3","1","","0","1","0","null","","","<div class = 'row'><div class = 'column'><img src = 'usneg/9421.bmp' width = '100%;'></div><div class = 'column'><img src = 'category1/CS1.png' width = '70%;'></div></div>","null","neg","CS","CS","1","category1/CS1.png","","","","",""
"","html-keyboard-response","12","107736","0.0-6.0-0.0-0.6","yk130xwl82","one_one","1","direct_first","1","CH05NK21","0","20","1","1","3","1","","0","1","0","null","","","<div class = 'row'><div class = 'column'><img src = 'category2/CS4.png' width = '70%;'></div><div class = 'column'><img src = 'uspos/5600.bmp' width = '100%;'></div></div>","null","pos","CS","CS","2","category2/CS4.png","","","","",""
"","html-keyboard-response","13","110254","0.0-6.0-0.0-0.7","yk130xwl82","one_one","1","direct_first","1","CH05NK21","0","20","1","1","3","1","","0","1","0","null","","","<div class = 'row'><div class = 'column'><img src = 'category1/CS1.png' width = '70%;'></div><div class = 'column'><img src = 'usneg/9421.bmp' width = '100%;'></div></div>","null","neg","CS","CS","1","category1/CS1.png","","","","",""
"","html-keyboard-response","14","112767","0.0-6.0-0.0-0.8","yk130xwl82","one_one","1","direct_first","1","CH05NK21","0","20","1","1","3","1","","0","1","0","null","","","<div class = 'row'><div class = 'column'><img src = 'uspos/4625.bmp' width = '100%;'></div><div class = 'column'><img src = 'category4/CS8.png' width = '70%;'></div></div>","null","pos","CS","CS","4","category4/CS8.png","","","","",""
"","html-keyboard-response","15","115281","0.0-6.0-0.0-0.9","yk130xwl82","one_one","1","direct_first","1","CH05NK21","0","20","1","1","3","1","","0","1","0","null","","","<div class = 'row'><div class = 'column'><img src = 'category3/CS5.png' width = '70%;'></div><div class = 'column'><img src = 'usneg/9050.bmp' width = '100%;'></div></div>","null","neg","CS","CS","3","category3/CS5.png","","","","",""
"","html-keyboard-response","16","117798","0.0-6.0-0.0-0.10","yk130xwl82","one_one","1","direct_first","1","CH05NK21","0","20","1","1","3","1","","0","1","0","null","","","<div class = 'row'><div class = 'column'><img src = 'uspos/4625.bmp' width = '100%;'></div><div class = 'column'><img src = 'category4/CS8.png' width = '70%;'></div></div>","null","pos","CS","CS","4","category4/CS8.png","","","","",""
"","html-keyboard-response","17","120308","0.0-6.0-0.0-0.11","yk130xwl82","one_one","1","direct_first","1","CH05NK21","0","20","1","1","3","1","","0","1","0","null","","","<div class = 'row'><div class = 'column'><img src = 'category2/CS4.png' width = '70%;'></div><div class = 'column'><img src = 'uspos/5600.bmp' width = '100%;'></div></div>","null","pos","CS","CS","2","category2/CS4.png","","","","",""
"","html-keyboard-response","18","122825","0.0-6.0-0.0-0.12","yk130xwl82","one_one","1","direct_first","1","CH05NK21","0","20","1","1","3","1","","0","1","0","null","","","<div class = 'row'><div class = 'column'><img src = 'uspos/4625.bmp' width = '100%;'></div><div class = 'column'><img src = 'category4/CS8.png' width = '70%;'></div></div>","null","pos","CS","CS","4","category4/CS8.png","","","","",""
"","html-keyboard-response","19","125347","0.0-6.0-0.0-0.13","yk130xwl82","one_one","1","direct_first","1","CH05NK21","0","20","1","1","3","1","","0","1","0","null","","","<div class = 'row'><div class = 'column'><img src = 'usneg/9421.bmp' width = '100%;'></div><div class = 'column'><img src = 'category1/CS1.png' width = '70%;'></div></div>","null","neg","CS","CS","1","category1/CS1.png","","","","",""
"","html-keyboard-response","20","127864","0.0-6.0-0.0-0.14","yk130xwl82","one_one","1","direct_first","1","CH05NK21","0","20","1","1","3","1","","0","1","0","null","","","<div class = 'row'><div class = 'column'><img src = 'category3/CS5.png' width = '70%;'></div><div class = 'column'><img src = 'usneg/9050.bmp' width = '100%;'></div></div>","null","neg","CS","CS","3","category3/CS5.png","","","","",""
"","html-keyboard-response","21","130376","0.0-6.0-0.0-0.15","yk130xwl82","one_one","1","direct_first","1","CH05NK21","0","20","1","1","3","1","","0","1","0","null","","","<div class = 'row'><div class = 'column'><img src = 'category2/CS4.png' width = '70%;'></div><div class = 'column'><img src = 'uspos/5600.bmp' width = '100%;'></div></div>","null","pos","CS","CS","2","category2/CS4.png","","","","",""
"","html-keyboard-response","22","132884","0.0-6.0-0.0-0.16","yk130xwl82","one_one","1","direct_first","1","CH05NK21","0","20","1","1","3","1","","0","1","0","null","","","<div class = 'row'><div class = 'column'><img src = 'category4/CS8.png' width = '70%;'></div><div class = 'column'><img src = 'uspos/4625.bmp' width = '100%;'></div></div>","null","pos","CS","CS","4","category4/CS8.png","","","","",""
"","html-keyboard-response","23","135395","0.0-6.0-0.0-0.17","yk130xwl82","one_one","1","direct_first","1","CH05NK21","0","20","1","1","3","1","","0","1","0","null","","","<div class = 'row'><div class = 'column'><img src = 'category1/CS1.png' width = '70%;'></div><div class = 'column'><img src = 'usneg/9421.bmp' width = '100%;'></div></div>","null","neg","CS","CS","1","category1/CS1.png","","","","",""
"","html-keyboard-response","24","137907","0.0-6.0-0.0-0.18","yk130xwl82","one_one","1","direct_first","1","CH05NK21","0","20","1","1","3","1","","0","1","0","null","","","<div class = 'row'><div class = 'column'><img src = 'category3/CS5.png' width = '70%;'></div><div class = 'column'><img src = 'usneg/9050.bmp' width = '100%;'></div></div>","null","neg","CS","CS","3","category3/CS5.png","","","","",""
"","html-keyboard-response","25","140420","0.0-6.0-0.0-0.19","yk130xwl82","one_one","1","direct_first","1","CH05NK21","0","20","1","1","3","1","","0","1","0","null","","","<div class = 'row'><div class = 'column'><img src = 'uspos/5600.bmp' width = '100%;'></div><div class = 'column'><img src = 'category2/CS4.png' width = '70%;'></div></div>","null","pos","CS","CS","2","category2/CS4.png","","","","",""
"","survey-html-form","26","142418","0.0-6.0-1.0","yk130xwl82","one_one","1","direct_first","1","CH05NK21","0","20","1","1","3","1","","0","1","0","1490.9300000872463","","{}","","","","","","","","","","","",""
"","html-keyboard-response","27","146433","0.0-6.0-2.0-0.0","yk130xwl82","one_one","1","direct_first","1","CH05NK21","0","20","1","1","3","1","","0","1","0","null","","","<div class = 'row'><div class = 'column'><img src = 'category1/CS1.png' width = '70%;'></div><div class = 'column'><img src = 'usneg/9421.bmp' width = '100%;'></div></div>","null","neg","CS","CS","1","category1/CS1.png","","","","",""
"","html-keyboard-response","28","148940","0.0-6.0-2.0-0.1","yk130xwl82","one_one","1","direct_first","1","CH05NK21","0","20","1","1","3","1","","0","1","0","null","","","<div class = 'row'><div class = 'column'><img src = 'usneg/9050.bmp' width = '100%;'></div><div class = 'column'><img src = 'category3/CS5.png' width = '70%;'></div></div>","null","neg","CS","CS","3","category3/CS5.png","","","","",""
"","html-keyboard-response","29","151450","0.0-6.0-2.0-0.2","yk130xwl82","one_one","1","direct_first","1","CH05NK21","0","20","1","1","3","1","","0","1","0","null","","","<div class = 'row'><div class = 'column'><img src = 'uspos/5600.bmp' width = '100%;'></div><div class = 'column'><img src = 'category2/CS4.png' width = '70%;'></div></div>","null","pos","CS","CS","2","category2/CS4.png","","","","",""
"","html-keyboard-response","30","153965","0.0-6.0-2.0-0.3","yk130xwl82","one_one","1","direct_first","1","CH05NK21","0","20","1","1","3","1","","0","1","0","null","","","<div class = 'row'><div class = 'column'><img src = 'uspos/4625.bmp' width = '100%;'></div><div class = 'column'><img src = 'category4/CS8.png' width = '70%;'></div></div>","null","pos","CS","CS","4","category4/CS8.png","","","","",""
"","html-keyboard-response","31","156480","0.0-6.0-2.0-0.4","yk130xwl82","one_one","1","direct_first","1","CH05NK21","0","20","1","1","3","1","","0","1","0","null","","","<div class = 'row'><div class = 'column'><img src = 'category3/CS5.png' width = '70%;'></div><div class = 'column'><img src = 'usneg/9050.bmp' width = '100%;'></div></div>","null","neg","CS","CS","3","category3/CS5.png","","","","",""
"","html-keyboard-response","32","158998","0.0-6.0-2.0-0.5","yk130xwl82","one_one","1","direct_first","1","CH05NK21","0","20","1","1","3","1","","0","1","0","null","","","<div class = 'row'><div class = 'column'><img src = 'uspos/5600.bmp' width = '100%;'></div><div class = 'column'><img src = 'category2/CS4.png' width = '70%;'></div></div>","null","pos","CS","CS","2","category2/CS4.png","","","","",""
"","html-keyboard-response","33","161518","0.0-6.0-2.0-0.6","yk130xwl82","one_one","1","direct_first","1","CH05NK21","0","20","1","1","3","1","","0","1","0","null","","","<div class = 'row'><div class = 'column'><img src = 'category3/CS5.png' width = '70%;'></div><div class = 'column'><img src = 'usneg/9050.bmp' width = '100%;'></div></div>","null","neg","CS","CS","3","category3/CS5.png","","","","",""
"","html-keyboard-response","34","164025","0.0-6.0-2.0-0.7","yk130xwl82","one_one","1","direct_first","1","CH05NK21","0","20","1","1","3","1","","0","1","0","null","","","<div class = 'row'><div class = 'column'><img src = 'usneg/9421.bmp' width = '100%;'></div><div class = 'column'><img src = 'category1/CS1.png' width = '70%;'></div></div>","null","neg","CS","CS","1","category1/CS1.png","","","","",""
"","html-keyboard-response","35","166548","0.0-6.0-2.0-0.8","yk130xwl82","one_one","1","direct_first","1","CH05NK21","0","20","1","1","3","1","","0","1","0","null","","","<div class = 'row'><div class = 'column'><img src = 'uspos/4625.bmp' width = '100%;'></div><div class = 'column'><img src = 'category4/CS8.png' width = '70%;'></div></div>","null","pos","CS","CS","4","category4/CS8.png","","","","",""
"","html-keyboard-response","36","169064","0.0-6.0-2.0-0.9","yk130xwl82","one_one","1","direct_first","1","CH05NK21","0","20","1","1","3","1","","0","1","0","null","","","<div class = 'row'><div class = 'column'><img src = 'usneg/9421.bmp' width = '100%;'></div><div class = 'column'><img src = 'category1/CS1.png' width = '70%;'></div></div>","null","neg","CS","CS","1","category1/CS1.png","","","","",""
"","html-keyboard-response","37","171581","0.0-6.0-2.0-0.10","yk130xwl82","one_one","1","direct_first","1","CH05NK21","0","20","1","1","3","1","","0","1","0","null","","","<div class = 'row'><div class = 'column'><img src = 'uspos/4625.bmp' width = '100%;'></div><div class = 'column'><img src = 'category4/CS8.png' width = '70%;'></div></div>","null","pos","CS","CS","4","category4/CS8.png","","","","",""
"","html-keyboard-response","38","174096","0.0-6.0-2.0-0.11","yk130xwl82","one_one","1","direct_first","1","CH05NK21","0","20","1","1","3","1","","0","1","0","null","","","<div class = 'row'><div class = 'column'><img src = 'category3/CS5.png' width = '70%;'></div><div class = 'column'><img src = 'usneg/9050.bmp' width = '100%;'></div></div>","null","neg","CS","CS","3","category3/CS5.png","","","","",""
"","html-keyboard-response","39","176607","0.0-6.0-2.0-0.12","yk130xwl82","one_one","1","direct_first","1","CH05NK21","0","20","1","1","3","1","","0","1","0","null","","","<div class = 'row'><div class = 'column'><img src = 'usneg/9421.bmp' width = '100%;'></div><div class = 'column'><img src = 'category1/CS1.png' width = '70%;'></div></div>","null","neg","CS","CS","1","category1/CS1.png","","","","",""
"","html-keyboard-response","40","179118","0.0-6.0-2.0-0.13","yk130xwl82","one_one","1","direct_first","1","CH05NK21","0","20","1","1","3","1","","0","1","0","null","","","<div class = 'row'><div class = 'column'><img src = 'usneg/9050.bmp' width = '100%;'></div><div class = 'column'><img src = 'category3/CS5.png' width = '70%;'></div></div>","null","neg","CS","CS","3","category3/CS5.png","","","","",""
"","html-keyboard-response","41","181631","0.0-6.0-2.0-0.14","yk130xwl82","one_one","1","direct_first","1","CH05NK21","0","20","1","1","3","1","","0","1","0","null","","","<div class = 'row'><div class = 'column'><img src = 'category2/CS4.png' width = '70%;'></div><div class = 'column'><img src = 'uspos/5600.bmp' width = '100%;'></div></div>","null","pos","CS","CS","2","category2/CS4.png","","","","",""
"","html-keyboard-response","42","184138","0.0-6.0-2.0-0.15","yk130xwl82","one_one","1","direct_first","1","CH05NK21","0","20","1","1","3","1","","0","1","0","null","","","<div class = 'row'><div class = 'column'><img src = 'category4/CS8.png' width = '70%;'></div><div class = 'column'><img src = 'uspos/4625.bmp' width = '100%;'></div></div>","null","pos","CS","CS","4","category4/CS8.png","","","","",""
"","html-keyboard-response","43","186656","0.0-6.0-2.0-0.16","yk130xwl82","one_one","1","direct_first","1","CH05NK21","0","20","1","1","3","1","","0","1","0","null","","","<div class = 'row'><div class = 'column'><img src = 'uspos/5600.bmp' width = '100%;'></div><div class = 'column'><img src = 'category2/CS4.png' width = '70%;'></div></div>","null","pos","CS","CS","2","category2/CS4.png","","","","",""
"","html-keyboard-response","44","189172","0.0-6.0-2.0-0.17","yk130xwl82","one_one","1","direct_first","1","CH05NK21","0","20","1","1","3","1","","0","1","0","null","","","<div class = 'row'><div class = 'column'><img src = 'category1/CS1.png' width = '70%;'></div><div class = 'column'><img src = 'usneg/9421.bmp' width = '100%;'></div></div>","null","neg","CS","CS","1","category1/CS1.png","","","","",""
"","html-keyboard-response","45","191677","0.0-6.0-2.0-0.18","yk130xwl82","one_one","1","direct_first","1","CH05NK21","0","20","1","1","3","1","","0","1","0","null","","","<div class = 'row'><div class = 'column'><img src = 'uspos/4625.bmp' width = '100%;'></div><div class = 'column'><img src = 'category4/CS8.png' width = '70%;'></div></div>","null","pos","CS","CS","4","category4/CS8.png","","","","",""
"","html-keyboard-response","46","194197","0.0-6.0-2.0-0.19","yk130xwl82","one_one","1","direct_first","1","CH05NK21","0","20","1","1","3","1","","0","1","0","null","","","<div class = 'row'><div class = 'column'><img src = 'category2/CS4.png' width = '70%;'></div><div class = 'column'><img src = 'uspos/5600.bmp' width = '100%;'></div></div>","null","pos","CS","CS","2","category2/CS4.png","","","","",""
"","survey-html-form","47","195821","0.0-6.0-3.0","yk130xwl82","one_one","1","direct_first","1","CH05NK21","0","20","1","1","3","1","","0","1","0","1116.355000063777","","{}","","","","","","","","","","","",""
"","html-keyboard-response","48","199829","0.0-6.0-4.0-0.0","yk130xwl82","one_one","1","direct_first","1","CH05NK21","0","20","1","1","3","1","","0","1","0","null","","","<div class = 'row'><div class = 'column'><img src = 'category3/CS5.png' width = '70%;'></div><div class = 'column'><img src = 'usneg/9050.bmp' width = '100%;'></div></div>","null","neg","CS","CS","3","category3/CS5.png","","","","",""
"","html-keyboard-response","49","202341","0.0-6.0-4.0-0.1","yk130xwl82","one_one","1","direct_first","1","CH05NK21","0","20","1","1","3","1","","0","1","0","null","","","<div class = 'row'><div class = 'column'><img src = 'uspos/4625.bmp' width = '100%;'></div><div class = 'column'><img src = 'category4/CS8.png' width = '70%;'></div></div>","null","pos","CS","CS","4","category4/CS8.png","","","","",""
"","html-keyboard-response","50","204852","0.0-6.0-4.0-0.2","yk130xwl82","one_one","1","direct_first","1","CH05NK21","0","20","1","1","3","1","","0","1","0","null","","","<div class = 'row'><div class = 'column'><img src = 'usneg/9050.bmp' width = '100%;'></div><div class = 'column'><img src = 'category3/CS5.png' width = '70%;'></div></div>","null","neg","CS","CS","3","category3/CS5.png","","","","",""
"","html-keyboard-response","51","207362","0.0-6.0-4.0-0.3","yk130xwl82","one_one","1","direct_first","1","CH05NK21","0","20","1","1","3","1","","0","1","0","null","","","<div class = 'row'><div class = 'column'><img src = 'usneg/9421.bmp' width = '100%;'></div><div class = 'column'><img src = 'category1/CS1.png' width = '70%;'></div></div>","null","neg","CS","CS","1","category1/CS1.png","","","","",""
"","html-keyboard-response","52","209880","0.0-6.0-4.0-0.4","yk130xwl82","one_one","1","direct_first","1","CH05NK21","0","20","1","1","3","1","","0","1","0","null","","","<div class = 'row'><div class = 'column'><img src = 'uspos/4625.bmp' width = '100%;'></div><div class = 'column'><img src = 'category4/CS8.png' width = '70%;'></div></div>","null","pos","CS","CS","4","category4/CS8.png","","","","",""
"","html-keyboard-response","53","212392","0.0-6.0-4.0-0.5","yk130xwl82","one_one","1","direct_first","1","CH05NK21","0","20","1","1","3","1","","0","1","0","null","","","<div class = 'row'><div class = 'column'><img src = 'usneg/9421.bmp' width = '100%;'></div><div class = 'column'><img src = 'category1/CS1.png' width = '70%;'></div></div>","null","neg","CS","CS","1","category1/CS1.png","","","","",""
"","html-keyboard-response","54","214901","0.0-6.0-4.0-0.6","yk130xwl82","one_one","1","direct_first","1","CH05NK21","0","20","1","1","3","1","","0","1","0","null","","","<div class = 'row'><div class = 'column'><img src = 'category2/CS4.png' width = '70%;'></div><div class = 'column'><img src = 'uspos/5600.bmp' width = '100%;'></div></div>","null","pos","CS","CS","2","category2/CS4.png","","","","",""
"","html-keyboard-response","55","217413","0.0-6.0-4.0-0.7","yk130xwl82","one_one","1","direct_first","1","CH05NK21","0","20","1","1","3","1","","0","1","0","null","","","<div class = 'row'><div class = 'column'><img src = 'usneg/9050.bmp' width = '100%;'></div><div class = 'column'><img src = 'category3/CS5.png' width = '70%;'></div></div>","null","neg","CS","CS","3","category3/CS5.png","","","","",""
"","html-keyboard-response","56","219931","0.0-6.0-4.0-0.8","yk130xwl82","one_one","1","direct_first","1","CH05NK21","0","20","1","1","3","1","","0","1","0","null","","","<div class = 'row'><div class = 'column'><img src = 'category2/CS4.png' width = '70%;'></div><div class = 'column'><img src = 'uspos/5600.bmp' width = '100%;'></div></div>","null","pos","CS","CS","2","category2/CS4.png","","","","",""
"","html-keyboard-response","57","222452","0.0-6.0-4.0-0.9","yk130xwl82","one_one","1","direct_first","1","CH05NK21","0","20","1","1","3","1","","0","1","0","null","","","<div class = 'row'><div class = 'column'><img src = 'usneg/9421.bmp' width = '100%;'></div><div class = 'column'><img src = 'category1/CS1.png' width = '70%;'></div></div>","null","neg","CS","CS","1","category1/CS1.png","","","","",""
"","html-keyboard-response","58","224966","0.0-6.0-4.0-0.10","yk130xwl82","one_one","1","direct_first","1","CH05NK21","0","20","1","1","3","1","","0","1","0","null","","","<div class = 'row'><div class = 'column'><img src = 'category2/CS4.png' width = '70%;'></div><div class = 'column'><img src = 'uspos/5600.bmp' width = '100%;'></div></div>","null","pos","CS","CS","2","category2/CS4.png","","","","",""
"","html-keyboard-response","59","227476","0.0-6.0-4.0-0.11","yk130xwl82","one_one","1","direct_first","1","CH05NK21","0","20","1","1","3","1","","0","1","0","null","","","<div class = 'row'><div class = 'column'><img src = 'uspos/4625.bmp' width = '100%;'></div><div class = 'column'><img src = 'category4/CS8.png' width = '70%;'></div></div>","null","pos","CS","CS","4","category4/CS8.png","","","","",""
"","html-keyboard-response","60","229988","0.0-6.0-4.0-0.12","yk130xwl82","one_one","1","direct_first","1","CH05NK21","0","20","1","1","3","1","","0","1","0","null","","","<div class = 'row'><div class = 'column'><img src = 'category1/CS1.png' width = '70%;'></div><div class = 'column'><img src = 'usneg/9421.bmp' width = '100%;'></div></div>","null","neg","CS","CS","1","category1/CS1.png","","","","",""
"","html-keyboard-response","61","232510","0.0-6.0-4.0-0.13","yk130xwl82","one_one","1","direct_first","1","CH05NK21","0","20","1","1","3","1","","0","1","0","null","","","<div class = 'row'><div class = 'column'><img src = 'uspos/5600.bmp' width = '100%;'></div><div class = 'column'><img src = 'category2/CS4.png' width = '70%;'></div></div>","null","pos","CS","CS","2","category2/CS4.png","","","","",""
"","html-keyboard-response","62","235022","0.0-6.0-4.0-0.14","yk130xwl82","one_one","1","direct_first","1","CH05NK21","0","20","1","1","3","1","","0","1","0","null","","","<div class = 'row'><div class = 'column'><img src = 'usneg/9050.bmp' width = '100%;'></div><div class = 'column'><img src = 'category3/CS5.png' width = '70%;'></div></div>","null","neg","CS","CS","3","category3/CS5.png","","","","",""
"","html-keyboard-response","63","237534","0.0-6.0-4.0-0.15","yk130xwl82","one_one","1","direct_first","1","CH05NK21","0","20","1","1","3","1","","0","1","0","null","","","<div class = 'row'><div class = 'column'><img src = 'uspos/4625.bmp' width = '100%;'></div><div class = 'column'><img src = 'category4/CS8.png' width = '70%;'></div></div>","null","pos","CS","CS","4","category4/CS8.png","","","","",""
"","html-keyboard-response","64","240040","0.0-6.0-4.0-0.16","yk130xwl82","one_one","1","direct_first","1","CH05NK21","0","20","1","1","3","1","","0","1","0","null","","","<div class = 'row'><div class = 'column'><img src = 'usneg/9050.bmp' width = '100%;'></div><div class = 'column'><img src = 'category3/CS5.png' width = '70%;'></div></div>","null","neg","CS","CS","3","category3/CS5.png","","","","",""
"","html-keyboard-response","65","242548","0.0-6.0-4.0-0.17","yk130xwl82","one_one","1","direct_first","1","CH05NK21","0","20","1","1","3","1","","0","1","0","null","","","<div class = 'row'><div class = 'column'><img src = 'category4/CS8.png' width = '70%;'></div><div class = 'column'><img src = 'uspos/4625.bmp' width = '100%;'></div></div>","null","pos","CS","CS","4","category4/CS8.png","","","","",""
"","html-keyboard-response","66","245068","0.0-6.0-4.0-0.18","yk130xwl82","one_one","1","direct_first","1","CH05NK21","0","20","1","1","3","1","","0","1","0","null","","","<div class = 'row'><div class = 'column'><img src = 'usneg/9421.bmp' width = '100%;'></div><div class = 'column'><img src = 'category1/CS1.png' width = '70%;'></div></div>","null","neg","CS","CS","1","category1/CS1.png","","","","",""
"","html-keyboard-response","67","247587","0.0-6.0-4.0-0.19","yk130xwl82","one_one","1","direct_first","1","CH05NK21","0","20","1","1","3","1","","0","1","0","null","","","<div class = 'row'><div class = 'column'><img src = 'category2/CS4.png' width = '70%;'></div><div class = 'column'><img src = 'uspos/5600.bmp' width = '100%;'></div></div>","null","pos","CS","CS","2","category2/CS4.png","","","","",""
"","survey-html-form","68","249076","0.0-6.0-5.0","yk130xwl82","one_one","1","direct_first","1","CH05NK21","0","20","1","1","3","1","","0","1","0","984.8300002049655","","{}","","","","","","","","","","","",""
"","html-keyboard-response","69","253094","0.0-6.0-6.0-0.0","yk130xwl82","one_one","1","direct_first","1","CH05NK21","0","20","1","1","3","1","","0","1","0","null","","","<div class = 'row'><div class = 'column'><img src = 'category4/CS8.png' width = '70%;'></div><div class = 'column'><img src = 'uspos/4625.bmp' width = '100%;'></div></div>","null","pos","CS","CS","4","category4/CS8.png","","","","",""
"","html-keyboard-response","70","255611","0.0-6.0-6.0-0.1","yk130xwl82","one_one","1","direct_first","1","CH05NK21","0","20","1","1","3","1","","0","1","0","null","","","<div class = 'row'><div class = 'column'><img src = 'category1/CS1.png' width = '70%;'></div><div class = 'column'><img src = 'usneg/9421.bmp' width = '100%;'></div></div>","null","neg","CS","CS","1","category1/CS1.png","","","","",""
"","html-keyboard-response","71","258124","0.0-6.0-6.0-0.2","yk130xwl82","one_one","1","direct_first","1","CH05NK21","0","20","1","1","3","1","","0","1","0","null","","","<div class = 'row'><div class = 'column'><img src = 'uspos/5600.bmp' width = '100%;'></div><div class = 'column'><img src = 'category2/CS4.png' width = '70%;'></div></div>","null","pos","CS","CS","2","category2/CS4.png","","","","",""
"","html-keyboard-response","72","260636","0.0-6.0-6.0-0.3","yk130xwl82","one_one","1","direct_first","1","CH05NK21","0","20","1","1","3","1","","0","1","0","null","","","<div class = 'row'><div class = 'column'><img src = 'uspos/4625.bmp' width = '100%;'></div><div class = 'column'><img src = 'category4/CS8.png' width = '70%;'></div></div>","null","pos","CS","CS","4","category4/CS8.png","","","","",""
"","html-keyboard-response","73","263147","0.0-6.0-6.0-0.4","yk130xwl82","one_one","1","direct_first","1","CH05NK21","0","20","1","1","3","1","","0","1","0","null","","","<div class = 'row'><div class = 'column'><img src = 'usneg/9421.bmp' width = '100%;'></div><div class = 'column'><img src = 'category1/CS1.png' width = '70%;'></div></div>","null","neg","CS","CS","1","category1/CS1.png","","","","",""
"","html-keyboard-response","74","265657","0.0-6.0-6.0-0.5","yk130xwl82","one_one","1","direct_first","1","CH05NK21","0","20","1","1","3","1","","0","1","0","null","","","<div class = 'row'><div class = 'column'><img src = 'uspos/5600.bmp' width = '100%;'></div><div class = 'column'><img src = 'category2/CS4.png' width = '70%;'></div></div>","null","pos","CS","CS","2","category2/CS4.png","","","","",""
"","html-keyboard-response","75","268173","0.0-6.0-6.0-0.6","yk130xwl82","one_one","1","direct_first","1","CH05NK21","0","20","1","1","3","1","","0","1","0","null","","","<div class = 'row'><div class = 'column'><img src = 'usneg/9421.bmp' width = '100%;'></div><div class = 'column'><img src = 'category1/CS1.png' width = '70%;'></div></div>","null","neg","CS","CS","1","category1/CS1.png","","","","",""
"","html-keyboard-response","76","270687","0.0-6.0-6.0-0.7","yk130xwl82","one_one","1","direct_first","1","CH05NK21","0","20","1","1","3","1","","0","1","0","null","","","<div class = 'row'><div class = 'column'><img src = 'category2/CS4.png' width = '70%;'></div><div class = 'column'><img src = 'uspos/5600.bmp' width = '100%;'></div></div>","null","pos","CS","CS","2","category2/CS4.png","","","","",""
"","html-keyboard-response","77","273204","0.0-6.0-6.0-0.8","yk130xwl82","one_one","1","direct_first","1","CH05NK21","0","20","1","1","3","1","","0","1","0","null","","","<div class = 'row'><div class = 'column'><img src = 'category3/CS5.png' width = '70%;'></div><div class = 'column'><img src = 'usneg/9050.bmp' width = '100%;'></div></div>","null","neg","CS","CS","3","category3/CS5.png","","","","",""
"","html-keyboard-response","78","275719","0.0-6.0-6.0-0.9","yk130xwl82","one_one","1","direct_first","1","CH05NK21","0","20","1","1","3","1","","0","1","0","null","","","<div class = 'row'><div class = 'column'><img src = 'category1/CS1.png' width = '70%;'></div><div class = 'column'><img src = 'usneg/9421.bmp' width = '100%;'></div></div>","null","neg","CS","CS","1","category1/CS1.png","","","","",""
"","html-keyboard-response","79","278236","0.0-6.0-6.0-0.10","yk130xwl82","one_one","1","direct_first","1","CH05NK21","0","20","1","1","3","1","","0","1","0","null","","","<div class = 'row'><div class = 'column'><img src = 'usneg/9050.bmp' width = '100%;'></div><div class = 'column'><img src = 'category3/CS5.png' width = '70%;'></div></div>","null","neg","CS","CS","3","category3/CS5.png","","","","",""
"","html-keyboard-response","80","280748","0.0-6.0-6.0-0.11","yk130xwl82","one_one","1","direct_first","1","CH05NK21","0","20","1","1","3","1","","0","1","0","null","","","<div class = 'row'><div class = 'column'><img src = 'uspos/5600.bmp' width = '100%;'></div><div class = 'column'><img src = 'category2/CS4.png' width = '70%;'></div></div>","null","pos","CS","CS","2","category2/CS4.png","","","","",""
"","html-keyboard-response","81","283258","0.0-6.0-6.0-0.12","yk130xwl82","one_one","1","direct_first","1","CH05NK21","0","20","1","1","3","1","","0","1","0","null","","","<div class = 'row'><div class = 'column'><img src = 'category3/CS5.png' width = '70%;'></div><div class = 'column'><img src = 'usneg/9050.bmp' width = '100%;'></div></div>","null","neg","CS","CS","3","category3/CS5.png","","","","",""
"","html-keyboard-response","82","285779","0.0-6.0-6.0-0.13","yk130xwl82","one_one","1","direct_first","1","CH05NK21","0","20","1","1","3","1","","0","1","0","null","","","<div class = 'row'><div class = 'column'><img src = 'category2/CS4.png' width = '70%;'></div><div class = 'column'><img src = 'uspos/5600.bmp' width = '100%;'></div></div>","null","pos","CS","CS","2","category2/CS4.png","","","","",""
"","html-keyboard-response","83","288292","0.0-6.0-6.0-0.14","yk130xwl82","one_one","1","direct_first","1","CH05NK21","0","20","1","1","3","1","","0","1","0","null","","","<div class = 'row'><div class = 'column'><img src = 'category4/CS8.png' width = '70%;'></div><div class = 'column'><img src = 'uspos/4625.bmp' width = '100%;'></div></div>","null","pos","CS","CS","4","category4/CS8.png","","","","",""
"","html-keyboard-response","84","290806","0.0-6.0-6.0-0.15","yk130xwl82","one_one","1","direct_first","1","CH05NK21","0","20","1","1","3","1","","0","1","0","null","","","<div class = 'row'><div class = 'column'><img src = 'category3/CS5.png' width = '70%;'></div><div class = 'column'><img src = 'usneg/9050.bmp' width = '100%;'></div></div>","null","neg","CS","CS","3","category3/CS5.png","","","","",""
"","html-keyboard-response","85","293311","0.0-6.0-6.0-0.16","yk130xwl82","one_one","1","direct_first","1","CH05NK21","0","20","1","1","3","1","","0","1","0","null","","","<div class = 'row'><div class = 'column'><img src = 'category1/CS1.png' width = '70%;'></div><div class = 'column'><img src = 'usneg/9421.bmp' width = '100%;'></div></div>","null","neg","CS","CS","1","category1/CS1.png","","","","",""
"","html-keyboard-response","86","295821","0.0-6.0-6.0-0.17","yk130xwl82","one_one","1","direct_first","1","CH05NK21","0","20","1","1","3","1","","0","1","0","null","","","<div class = 'row'><div class = 'column'><img src = 'uspos/4625.bmp' width = '100%;'></div><div class = 'column'><img src = 'category4/CS8.png' width = '70%;'></div></div>","null","pos","CS","CS","4","category4/CS8.png","","","","",""
"","html-keyboard-response","87","298337","0.0-6.0-6.0-0.18","yk130xwl82","one_one","1","direct_first","1","CH05NK21","0","20","1","1","3","1","","0","1","0","null","","","<div class = 'row'><div class = 'column'><img src = 'category3/CS5.png' width = '70%;'></div><div class = 'column'><img src = 'usneg/9050.bmp' width = '100%;'></div></div>","null","neg","CS","CS","3","category3/CS5.png","","","","",""
"","html-keyboard-response","88","300849","0.0-6.0-6.0-0.19","yk130xwl82","one_one","1","direct_first","1","CH05NK21","0","20","1","1","3","1","","0","1","0","null","","","<div class = 'row'><div class = 'column'><img src = 'category4/CS8.png' width = '70%;'></div><div class = 'column'><img src = 'uspos/4625.bmp' width = '100%;'></div></div>","null","pos","CS","CS","4","category4/CS8.png","","","","",""
"","survey-html-form","89","306564","0.0-7.0","yk130xwl82","one_one","1","direct_first","1","CH05NK21","0","20","1","1","3","1","","0","1","0","5212.555000092834","","{}","","","","","","","","","","","",""
"","image-slider-response","90","313372","0.0-8.0-0.0","yk130xwl82","one_one","1","direct_first","1","CH05NK21","0","20","1","1","3","1","","0","1","0","4798.359999898821","","","","","neg","CS","CS","3","category3/CS5.png","35","targets/27.png","direct","",""
"","image-slider-response","91","316931","0.0-8.0-0.1","yk130xwl82","one_one","1","direct_first","1","CH05NK21","0","20","1","1","3","1","","0","1","0","3555.034999968484","","","","","neg","GS","GSnew","3","category3/GS1.png","-18","targets/11.png","direct","",""
"","image-slider-response","92","320440","0.0-8.0-0.2","yk130xwl82","one_one","1","direct_first","1","CH05NK21","0","20","1","1","3","1","","0","1","0","3505.445000017062","","","","","pos","GS","GSnew","4","category4/GS2.png","-21","targets/4.png","direct","",""
"","image-slider-response","93","323612","0.0-8.0-0.3","yk130xwl82","one_one","1","direct_first","1","CH05NK21","0","20","1","1","3","1","","0","1","0","3168.6299999710172","","","","","pos","GS","GSold","4","category4/CS5.png","43","targets/47.png","direct","",""
"","image-slider-response","94","326280","0.0-8.0-0.4","yk130xwl82","one_one","1","direct_first","1","CH05NK21","0","20","1","1","3","1","","0","1","0","2664.1100000124425","","","","","neg","GS","GSold","3","category3/CS4.png","-26","targets/15.png","direct","",""
"","image-slider-response","95","330150","0.0-8.0-0.5","yk130xwl82","one_one","1","direct_first","1","CH05NK21","0","20","1","1","3","1","","0","1","0","3867.3099998850375","","","","","pos","GS","GSnew","4","category4/GS1.png","37","targets/17.png","direct","",""
"","image-slider-response","96","335046","0.0-8.0-0.6","yk130xwl82","one_one","1","direct_first","1","CH05NK21","0","20","1","1","3","1","","0","1","0","4892.3799998592585","","","","","neg","GS","GSnew","1","category1/GS3.png","-16","targets/35.png","direct","",""
"","image-slider-response","97","338113","0.0-8.0-0.7","yk130xwl82","one_one","1","direct_first","1","CH05NK21","0","20","1","1","3","1","","0","1","0","3062.9450001288205","","","","","neg","GS","GSold","1","category1/CS4.png","11","targets/25.png","direct","",""
"","image-slider-response","98","340770","0.0-8.0-0.8","yk130xwl82","one_one","1","direct_first","1","CH05NK21","0","20","1","1","3","1","","0","1","0","2653.595000039786","","","","","pos","CS","CS","2","category2/CS4.png","22","targets/23.png","direct","",""
"","image-slider-response","99","343674","0.0-8.0-0.9","yk130xwl82","one_one","1","direct_first","1","CH05NK21","0","20","1","1","3","1","","0","1","0","2900.2000000327826","","","","","neg","GS","GSold","3","category3/CS6.png","46","targets/20.png","direct","",""
"","image-slider-response","100","349375","0.0-8.0-0.10","yk130xwl82","one_one","1","direct_first","1","CH05NK21","0","20","1","1","3","1","","0","1","0","5697.420000098646","","","","","neg","CS","CS","1","category1/CS1.png","-34","targets/44.png","direct","",""
"","image-slider-response","101","352516","0.0-8.0-0.11","yk130xwl82","one_one","1","direct_first","1","CH05NK21","0","20","1","1","3","1","","0","1","0","3137.1249998919666","","","","","pos","CS","CS","4","category4/CS8.png","61","targets/48.png","direct","",""
"","image-slider-response","102","356182","0.0-8.0-0.12","yk130xwl82","one_one","1","direct_first","1","CH05NK21","0","20","1","1","3","1","","0","1","0","3662.6499998383224","","","","","neg","GS","GSold","1","category1/CS9.png","63","targets/7.png","direct","",""
"","image-slider-response","103","359965","0.0-8.0-0.13","yk130xwl82","one_one","1","direct_first","1","CH05NK21","0","20","1","1","3","1","","0","1","0","3779.564999975264","","","","","pos","GS","abstract","4","category4/lin.png","94","targets/18.png","direct","",""
"","image-slider-response","104","363606","0.0-8.0-0.14","yk130xwl82","one_one","1","direct_first","1","CH05NK21","0","20","1","1","3","1","","0","1","0","3636.464999988675","","","","","pos","GS","GSold","4","category4/CS2.png","96","targets/33.png","direct","",""
"","image-slider-response","105","366305","0.0-8.0-0.15","yk130xwl82","one_one","1","direct_first","1","CH05NK21","0","20","1","1","3","1","","0","1","0","2695.7900000270456","","","","","pos","GS","GSnew","4","category4/GS3.png","-20","targets/40.png","direct","",""
"","image-slider-response","106","369801","0.0-8.0-0.16","yk130xwl82","one_one","1","direct_first","1","CH05NK21","0","20","1","1","3","1","","0","1","0","3492.3600000329316","","","","","neg","GS","GSnew","1","category1/GS2.png","49","targets/24.png","direct","",""
"","image-slider-response","107","373297","0.0-8.0-0.17","yk130xwl82","one_one","1","direct_first","1","CH05NK21","0","20","1","1","3","1","","0","1","0","3491.270000115037","","","","","neg","GS","GSold","1","category1/CS7.png","-73","targets/10.png","direct","",""
"","image-slider-response","108","376735","0.0-8.0-0.18","yk130xwl82","one_one","1","direct_first","1","CH05NK21","0","20","1","1","3","1","","0","1","0","3434.8100000061095","","","","","pos","GS","GSnew","2","category2/GS1.png","-55","targets/1.png","direct","",""
"","image-slider-response","109","379591","0.0-8.0-0.19","yk130xwl82","one_one","1","direct_first","1","CH05NK21","0","20","1","1","3","1","","0","1","0","2852.1900000050664","","","","","neg","GS","abstract","1","category1/ma.png","15","targets/34.png","direct","",""
"","image-slider-response","110","381968","0.0-8.0-0.20","yk130xwl82","one_one","1","direct_first","1","CH05NK21","0","20","1","1","3","1","","0","1","0","2374.0149999503046","","","","","neg","GS","GSnew","1","category1/GS1.png","12","targets/42.png","direct","",""
"","image-slider-response","111","384695","0.0-8.0-0.21","yk130xwl82","one_one","1","direct_first","1","CH05NK21","0","20","1","1","3","1","","0","1","0","2723.890000022948","","","","","pos","GS","abstract","2","category2/men.png","74","targets/30.png","direct","",""
"","image-slider-response","112","387571","0.0-8.0-0.22","yk130xwl82","one_one","1","direct_first","1","CH05NK21","0","20","1","1","3","1","","0","1","0","2873.47500002943","","","","","pos","GS","GSold","4","category4/CS10.png","21","targets/22.png","direct","",""
"","image-slider-response","113","390139","0.0-8.0-0.23","yk130xwl82","one_one","1","direct_first","1","CH05NK21","0","20","1","1","3","1","","0","1","0","2564.68000006862","","","","","pos","GS","GSold","2","category2/CS7.png","20","targets/14.png","direct","",""
"","image-slider-response","114","392482","0.0-8.0-0.24","yk130xwl82","one_one","1","direct_first","1","CH05NK21","0","20","1","1","3","1","","0","1","0","2339.4749998115003","","","","","neg","GS","GSnew","3","category3/GS2.png","-32","targets/13.png","direct","",""
"","image-slider-response","115","394924","0.0-8.0-0.25","yk130xwl82","one_one","1","direct_first","1","CH05NK21","0","20","1","1","3","1","","0","1","0","2438.7600000482053","","","","","pos","GS","GSnew","2","category2/GS3.png","17","targets/16.png","direct","",""
"","image-slider-response","116","397731","0.0-8.0-0.26","yk130xwl82","one_one","1","direct_first","1","CH05NK21","0","20","1","1","3","1","","0","1","0","2803.2949999906123","","","","","pos","GS","GSnew","2","category2/GS2.png","-20","targets/31.png","direct","",""
"","image-slider-response","117","400504","0.0-8.0-0.27","yk130xwl82","one_one","1","direct_first","1","CH05NK21","0","20","1","1","3","1","","0","1","0","2770.429999800399","","","","","pos","GS","GSold","2","category2/CS6.png","36","targets/41.png","direct","",""
"","image-slider-response","118","404030","0.0-8.0-0.28","yk130xwl82","one_one","1","direct_first","1","CH05NK21","0","20","1","1","3","1","","0","1","0","3522.2950000315905","","","","","neg","GS","GSold","3","category3/CS3.png","37","targets/26.png","direct","",""
"","image-slider-response","119","406457","0.0-8.0-0.29","yk130xwl82","one_one","1","direct_first","1","CH05NK21","0","20","1","1","3","1","","0","1","0","2423.3799998182803","","","","","pos","GS","GSold","2","category2/CS10.png","38","targets/3.png","direct","",""
"","image-slider-response","120","409095","0.0-8.0-0.30","yk130xwl82","one_one","1","direct_first","1","CH05NK21","0","20","1","1","3","1","","0","1","0","2635.000000009313","","","","","neg","GS","GSnew","3","category3/GS3.png","39","targets/12.png","direct","",""
"","image-slider-response","121","411456","0.0-8.0-0.31","yk130xwl82","one_one","1","direct_first","1","CH05NK21","0","20","1","1","3","1","","0","1","0","2357.3350000660866","","","","","neg","GS","abstract","3","category3/wang.png","63","targets/5.png","direct","",""
"","html-keyboard-response","122","438028","0.0-9.0","yk130xwl82","one_one","1","direct_first","1","CH05NK21","0","20","1","1","3","1","","0","1","0","26570.80000010319","","","<p>Sie sehen nun die chinesischen Zeichen nur ganz kurz. Danach sehen Sie die jeweilige Aussprache der Zeichen als Silbe auf dem Bildschrim. Ihre Aufgabe ist es, für jede Silbe anzugeben, ob diese etwas angenehmes, oder unangenehmes bedeuten könnte. Verlassen Sie sich hier vor allem auf Ihre Intuition.<br><br>Die Zeichen werden nur zur Orientierung dargestellt, beachten Sie sie deshalb nicht. Konzentrieren Sie sich vor allem auf die Silben. <br>Reagieren Sie mit folgenden zwei Tasten: <br><br><b>'D' </b> wenn die Silbe etwas <b>unangenehmes</b> bedeuten könnte. <br><b>'K'</b> wenn die Silbe etwas <b>angenehmes</b> bedeuten könnte. <br><br>Bitte legen Sie nun den Zeigefinger der linken Hand auf die Taste 'D' und den Zeigefinger der rechten Hand auf die Taste 'K'. <br>Reagieren Sie auf jede Silbe so schnell wie möglich. Uns interessiert Ihre spontane Reaktion. <br> <br> <br>Drücken Sie 'D' oder 'K', um die nächste Aufgabe zu starten. </p>","75","","","","","","","","","",""
"","html-keyboard-response","123","441046","0.0-10.0-0.0","yk130xwl82","one_one","1","direct_first","1","CH05NK21","0","20","1","1","3","1","","0","1","0","null","","","<div style=""font-size:60px;"">+</div>","null","","","","","","","","","",""
"","html-keyboard-response","124","441147","0.0-10.0-1.0","yk130xwl82","one_one","1","direct_first","1","CH05NK21","0","20","1","1","3","1","","0","1","0","null","","","<img src = 'category1/CS4.png' width = '100%;'>","null","","","","","","","","","",""
"","html-keyboard-response","125","441406","0.0-10.0-2.0","yk130xwl82","one_one","1","direct_first","1","CH05NK21","0","20","1","1","3","1","","0","1","0","null","","","<img src = 'targets/25.png' width = '100%;'>","null","","","","","","","","","",""
"","html-keyboard-response","126","441510","0.0-10.0-3.0","yk130xwl82","one_one","1","direct_first","1","CH05NK21","0","20","1","1","3","1","","0","1","0","101.90999996848404","","","<img src = 'targets/mask.png' width = '100%;'>","75","neg","GS","GSold","1","category1/CS4.png","","targets/25.png","indirect","1","0"
"","html-keyboard-response","127","443030","0.0-10.0-0.1","yk130xwl82","one_one","1","direct_first","1","CH05NK21","0","20","1","1","3","1","","0","1","0","null","","","<div style=""font-size:60px;"">+</div>","null","","","","","","","","","",""
"","html-keyboard-response","128","443130","0.0-10.0-1.1","yk130xwl82","one_one","1","direct_first","1","CH05NK21","0","20","1","1","3","1","","0","1","0","null","","","<img src = 'category3/CS6.png' width = '100%;'>","null","","","","","","","","","",""
"","html-keyboard-response","129","443394","0.0-10.0-2.1","yk130xwl82","one_one","1","direct_first","1","CH05NK21","0","20","1","1","3","1","","0","1","0","null","","","<img src = 'targets/20.png' width = '100%;'>","null","","","","","","","","","",""
"","html-keyboard-response","130","443893","0.0-10.0-3.1","yk130xwl82","one_one","1","direct_first","1","CH05NK21","0","20","1","1","3","1","","0","1","0","497.7150000631809","","","<img src = 'targets/mask.png' width = '100%;'>","68","neg","GS","GSold","3","category3/CS6.png","","targets/20.png","indirect","0","1"
"","html-keyboard-response","131","445403","0.0-10.0-0.2","yk130xwl82","one_one","1","direct_first","1","CH05NK21","0","20","1","1","3","1","","0","1","0","null","","","<div style=""font-size:60px;"">+</div>","null","","","","","","","","","",""
"","html-keyboard-response","132","445495","0.0-10.0-1.2","yk130xwl82","one_one","1","direct_first","1","CH05NK21","0","20","1","1","3","1","","0","1","0","null","","","<img src = 'category3/CS3.png' width = '100%;'>","null","","","","","","","","","",""
"","html-keyboard-response","133","445758","0.0-10.0-2.2","yk130xwl82","one_one","1","direct_first","1","CH05NK21","0","20","1","1","3","1","","0","1","0","null","","","<img src = 'targets/26.png' width = '100%;'>","null","","","","","","","","","",""
"","html-keyboard-response","134","446151","0.0-10.0-3.2","yk130xwl82","one_one","1","direct_first","1","CH05NK21","0","20","1","1","3","1","","0","1","0","390.42999991215765","","","<img src = 'targets/mask.png' width = '100%;'>","68","neg","GS","GSold","3","category3/CS3.png","","targets/26.png","indirect","0","2"
"","html-keyboard-response","135","447669","0.0-10.0-0.3","yk130xwl82","one_one","1","direct_first","1","CH05NK21","0","20","1","1","3","1","","0","1","0","null","","","<div style=""font-size:60px;"">+</div>","null","","","","","","","","","",""
"","html-keyboard-response","136","447769","0.0-10.0-1.3","yk130xwl82","one_one","1","direct_first","1","CH05NK21","0","20","1","1","3","1","","0","1","0","null","","","<img src = 'category1/CS9.png' width = '100%;'>","null","","","","","","","","","",""
"","html-keyboard-response","137","448034","0.0-10.0-2.3","yk130xwl82","one_one","1","direct_first","1","CH05NK21","0","20","1","1","3","1","","0","1","0","null","","","<img src = 'targets/7.png' width = '100%;'>","null","","","","","","","","","",""
"","html-keyboard-response","138","448237","0.0-10.0-3.3","yk130xwl82","one_one","1","direct_first","1","CH05NK21","0","20","1","1","3","1","","0","1","0","201.15999993868172","","","<img src = 'targets/mask.png' width = '100%;'>","75","neg","GS","GSold","1","category1/CS9.png","","targets/7.png","indirect","1","3"
"","html-keyboard-response","139","449749","0.0-10.0-0.4","yk130xwl82","one_one","1","direct_first","1","CH05NK21","0","20","1","1","3","1","","0","1","0","null","","","<div style=""font-size:60px;"">+</div>","null","","","","","","","","","",""
"","html-keyboard-response","140","449843","0.0-10.0-1.4","yk130xwl82","one_one","1","direct_first","1","CH05NK21","0","20","1","1","3","1","","0","1","0","null","","","<img src = 'category2/CS7.png' width = '100%;'>","null","","","","","","","","","",""
"","html-keyboard-response","141","450107","0.0-10.0-2.4","yk130xwl82","one_one","1","direct_first","1","CH05NK21","0","20","1","1","3","1","","0","1","0","null","","","<img src = 'targets/14.png' width = '100%;'>","null","","","","","","","","","",""
"","html-keyboard-response","142","450526","0.0-10.0-3.4","yk130xwl82","one_one","1","direct_first","1","CH05NK21","0","20","1","1","3","1","","0","1","0","416.55500000342727","","","<img src = 'targets/mask.png' width = '100%;'>","75","pos","GS","GSold","2","category2/CS7.png","","targets/14.png","indirect","1","4"
"","html-keyboard-response","143","452040","0.0-10.0-0.5","yk130xwl82","one_one","1","direct_first","1","CH05NK21","0","20","1","1","3","1","","0","1","0","null","","","<div style=""font-size:60px;"">+</div>","null","","","","","","","","","",""
"","html-keyboard-response","144","452137","0.0-10.0-1.5","yk130xwl82","one_one","1","direct_first","1","CH05NK21","0","20","1","1","3","1","","0","1","0","null","","","<img src = 'category4/CS8.png' width = '100%;'>","null","","","","","","","","","",""
"","html-keyboard-response","145","452400","0.0-10.0-2.5","yk130xwl82","one_one","1","direct_first","1","CH05NK21","0","20","1","1","3","1","","0","1","0","null","","","<img src = 'targets/48.png' width = '100%;'>","null","","","","","","","","","",""
"","html-keyboard-response","146","452710","0.0-10.0-3.5","yk130xwl82","one_one","1","direct_first","1","CH05NK21","0","20","1","1","3","1","","0","1","0","308.3699999842793","","","<img src = 'targets/mask.png' width = '100%;'>","75","pos","CS","CS","4","category4/CS8.png","","targets/48.png","indirect","1","5"
"","html-keyboard-response","147","454228","0.0-10.0-0.6","yk130xwl82","one_one","1","direct_first","1","CH05NK21","0","20","1","1","3","1","","0","1","0","null","","","<div style=""font-size:60px;"">+</div>","null","","","","","","","","","",""
"","html-keyboard-response","148","454330","0.0-10.0-1.6","yk130xwl82","one_one","1","direct_first","1","CH05NK21","0","20","1","1","3","1","","0","1","0","null","","","<img src = 'category4/CS2.png' width = '100%;'>","null","","","","","","","","","",""
"","html-keyboard-response","149","454589","0.0-10.0-2.6","yk130xwl82","one_one","1","direct_first","1","CH05NK21","0","20","1","1","3","1","","0","1","0","null","","","<img src = 'targets/33.png' width = '100%;'>","null","","","","","","","","","",""
"","html-keyboard-response","150","455007","0.0-10.0-3.6","yk130xwl82","one_one","1","direct_first","1","CH05NK21","0","20","1","1","3","1","","0","1","0","416.15500021725893","","","<img src = 'targets/mask.png' width = '100%;'>","75","pos","GS","GSold","4","category4/CS2.png","","targets/33.png","indirect","1","6"
"","html-keyboard-response","151","456517","0.0-10.0-0.7","yk130xwl82","one_one","1","direct_first","1","CH05NK21","0","20","1","1","3","1","","0","1","0","null","","","<div style=""font-size:60px;"">+</div>","null","","","","","","","","","",""
"","html-keyboard-response","152","456609","0.0-10.0-1.7","yk130xwl82","one_one","1","direct_first","1","CH05NK21","0","20","1","1","3","1","","0","1","0","null","","","<img src = 'category3/CS5.png' width = '100%;'>","null","","","","","","","","","",""
"","html-keyboard-response","153","456878","0.0-10.0-2.7","yk130xwl82","one_one","1","direct_first","1","CH05NK21","0","20","1","1","3","1","","0","1","0","null","","","<img src = 'targets/27.png' width = '100%;'>","null","","","","","","","","","",""
"","html-keyboard-response","154","457283","0.0-10.0-3.7","yk130xwl82","one_one","1","direct_first","1","CH05NK21","0","20","1","1","3","1","","0","1","0","403.104999801144","","","<img src = 'targets/mask.png' width = '100%;'>","68","neg","CS","CS","3","category3/CS5.png","","targets/27.png","indirect","0","7"
"","html-keyboard-response","155","458803","0.0-10.0-0.8","yk130xwl82","one_one","1","direct_first","1","CH05NK21","0","20","1","1","3","1","","0","1","0","null","","","<div style=""font-size:60px;"">+</div>","null","","","","","","","","","",""
"","html-keyboard-response","156","458903","0.0-10.0-1.8","yk130xwl82","one_one","1","direct_first","1","CH05NK21","0","20","1","1","3","1","","0","1","0","null","","","<img src = 'category1/CS7.png' width = '100%;'>","null","","","","","","","","","",""
"","html-keyboard-response","157","459163","0.0-10.0-2.8","yk130xwl82","one_one","1","direct_first","1","CH05NK21","0","20","1","1","3","1","","0","1","0","null","","","<img src = 'targets/10.png' width = '100%;'>","null","","","","","","","","","",""
"","html-keyboard-response","158","459302","0.0-10.0-3.8","yk130xwl82","one_one","1","direct_first","1","CH05NK21","0","20","1","1","3","1","","0","1","0","137.33500009402633","","","<img src = 'targets/mask.png' width = '100%;'>","75","neg","GS","GSold","1","category1/CS7.png","","targets/10.png","indirect","1","8"
"","html-keyboard-response","159","460816","0.0-10.0-0.9","yk130xwl82","one_one","1","direct_first","1","CH05NK21","0","20","1","1","3","1","","0","1","0","null","","","<div style=""font-size:60px;"">+</div>","null","","","","","","","","","",""
"","html-keyboard-response","160","460915","0.0-10.0-1.9","yk130xwl82","one_one","1","direct_first","1","CH05NK21","0","20","1","1","3","1","","0","1","0","null","","","<img src = 'category4/CS5.png' width = '100%;'>","null","","","","","","","","","",""
"","html-keyboard-response","161","461177","0.0-10.0-2.9","yk130xwl82","one_one","1","direct_first","1","CH05NK21","0","20","1","1","3","1","","0","1","0","null","","","<img src = 'targets/47.png' width = '100%;'>","null","","","","","","","","","",""
"","html-keyboard-response","162","461329","0.0-10.0-3.9","yk130xwl82","one_one","1","direct_first","1","CH05NK21","0","20","1","1","3","1","","0","1","0","150.30000009573996","","","<img src = 'targets/mask.png' width = '100%;'>","75","pos","GS","GSold","4","category4/CS5.png","","targets/47.png","indirect","1","9"
"","html-keyboard-response","163","462841","0.0-10.0-0.10","yk130xwl82","one_one","1","direct_first","1","CH05NK21","0","20","1","1","3","1","","0","1","0","null","","","<div style=""font-size:60px;"">+</div>","null","","","","","","","","","",""
"","html-keyboard-response","164","462936","0.0-10.0-1.10","yk130xwl82","one_one","1","direct_first","1","CH05NK21","0","20","1","1","3","1","","0","1","0","null","","","<img src = 'category3/CS4.png' width = '100%;'>","null","","","","","","","","","",""
"","html-keyboard-response","165","463202","0.0-10.0-2.10","yk130xwl82","one_one","1","direct_first","1","CH05NK21","0","20","1","1","3","1","","0","1","0","null","","","<img src = 'targets/15.png' width = '100%;'>","null","","","","","","","","","",""
"","html-keyboard-response","166","463318","0.0-10.0-3.10","yk130xwl82","one_one","1","direct_first","1","CH05NK21","0","20","1","1","3","1","","0","1","0","114.12000004202127","","","<img src = 'targets/mask.png' width = '100%;'>","75","neg","GS","GSold","3","category3/CS4.png","","targets/15.png","indirect","1","10"
"","html-keyboard-response","167","464826","0.0-10.0-0.11","yk130xwl82","one_one","1","direct_first","1","CH05NK21","0","20","1","1","3","1","","0","1","0","null","","","<div style=""font-size:60px;"">+</div>","null","","","","","","","","","",""
"","html-keyboard-response","168","464926","0.0-10.0-1.11","yk130xwl82","one_one","1","direct_first","1","CH05NK21","0","20","1","1","3","1","","0","1","0","null","","","<img src = 'category4/CS10.png' width = '100%;'>","null","","","","","","","","","",""
"","html-keyboard-response","169","465186","0.0-10.0-2.11","yk130xwl82","one_one","1","direct_first","1","CH05NK21","0","20","1","1","3","1","","0","1","0","null","","","<img src = 'targets/22.png' width = '100%;'>","null","","","","","","","","","",""
"","html-keyboard-response","170","465302","0.0-10.0-3.11","yk130xwl82","one_one","1","direct_first","1","CH05NK21","0","20","1","1","3","1","","0","1","0","114.31000009179115","","","<img src = 'targets/mask.png' width = '100%;'>","68","pos","GS","GSold","4","category4/CS10.png","","targets/22.png","indirect","0","11"
"","html-keyboard-response","171","466816","0.0-10.0-0.12","yk130xwl82","one_one","1","direct_first","1","CH05NK21","0","20","1","1","3","1","","0","1","0","null","","","<div style=""font-size:60px;"">+</div>","null","","","","","","","","","",""
"","html-keyboard-response","172","466915","0.0-10.0-1.12","yk130xwl82","one_one","1","direct_first","1","CH05NK21","0","20","1","1","3","1","","0","1","0","null","","","<img src = 'category2/CS4.png' width = '100%;'>","null","","","","","","","","","",""
"","html-keyboard-response","173","467176","0.0-10.0-2.12","yk130xwl82","one_one","1","direct_first","1","CH05NK21","0","20","1","1","3","1","","0","1","0","null","","","<img src = 'targets/23.png' width = '100%;'>","null","","","","","","","","","",""
"","html-keyboard-response","174","467293","0.0-10.0-3.12","yk130xwl82","one_one","1","direct_first","1","CH05NK21","0","20","1","1","3","1","","0","1","0","115.41000008583069","","","<img src = 'targets/mask.png' width = '100%;'>","75","pos","CS","CS","2","category2/CS4.png","","targets/23.png","indirect","1","12"
"","html-keyboard-response","175","468804","0.0-10.0-0.13","yk130xwl82","one_one","1","direct_first","1","CH05NK21","0","20","1","1","3","1","","0","1","0","null","","","<div style=""font-size:60px;"">+</div>","null","","","","","","","","","",""
"","html-keyboard-response","176","468900","0.0-10.0-1.13","yk130xwl82","one_one","1","direct_first","1","CH05NK21","0","20","1","1","3","1","","0","1","0","null","","","<img src = 'category2/CS10.png' width = '100%;'>","null","","","","","","","","","",""
"","html-keyboard-response","177","469156","0.0-10.0-2.13","yk130xwl82","one_one","1","direct_first","1","CH05NK21","0","20","1","1","3","1","","0","1","0","null","","","<img src = 'targets/3.png' width = '100%;'>","null","","","","","","","","","",""
"","html-keyboard-response","178","469318","0.0-10.0-3.13","yk130xwl82","one_one","1","direct_first","1","CH05NK21","0","20","1","1","3","1","","0","1","0","159.99000007286668","","","<img src = 'targets/mask.png' width = '100%;'>","75","pos","GS","GSold","2","category2/CS10.png","","targets/3.png","indirect","1","13"
"","html-keyboard-response","179","470822","0.0-10.0-0.14","yk130xwl82","one_one","1","direct_first","1","CH05NK21","0","20","1","1","3","1","","0","1","0","null","","","<div style=""font-size:60px;"">+</div>","null","","","","","","","","","",""
"","html-keyboard-response","180","470923","0.0-10.0-1.14","yk130xwl82","one_one","1","direct_first","1","CH05NK21","0","20","1","1","3","1","","0","1","0","null","","","<img src = 'category2/CS6.png' width = '100%;'>","null","","","","","","","","","",""
"","html-keyboard-response","181","471189","0.0-10.0-2.14","yk130xwl82","one_one","1","direct_first","1","CH05NK21","0","20","1","1","3","1","","0","1","0","null","","","<img src = 'targets/41.png' width = '100%;'>","null","","","","","","","","","",""
"","html-keyboard-response","182","471517","0.0-10.0-3.14","yk130xwl82","one_one","1","direct_first","1","CH05NK21","0","20","1","1","3","1","","0","1","0","326.8850001040846","","","<img src = 'targets/mask.png' width = '100%;'>","75","pos","GS","GSold","2","category2/CS6.png","","targets/41.png","indirect","1","14"
"","html-keyboard-response","183","473030","0.0-10.0-0.15","yk130xwl82","one_one","1","direct_first","1","CH05NK21","0","20","1","1","3","1","","0","1","0","null","","","<div style=""font-size:60px;"">+</div>","null","","","","","","","","","",""
"","html-keyboard-response","184","473130","0.0-10.0-1.15","yk130xwl82","one_one","1","direct_first","1","CH05NK21","0","20","1","1","3","1","","0","1","0","null","","","<img src = 'category1/CS1.png' width = '100%;'>","null","","","","","","","","","",""
"","html-keyboard-response","185","473389","0.0-10.0-2.15","yk130xwl82","one_one","1","direct_first","1","CH05NK21","0","20","1","1","3","1","","0","1","0","null","","","<img src = 'targets/44.png' width = '100%;'>","null","","","","","","","","","",""
"","html-keyboard-response","186","473536","0.0-10.0-3.15","yk130xwl82","one_one","1","direct_first","1","CH05NK21","0","20","1","1","3","1","","0","1","0","145.1799999922514","","","<img src = 'targets/mask.png' width = '100%;'>","75","neg","CS","CS","1","category1/CS1.png","","targets/44.png","indirect","1","15"
"","survey-html-form","187","476381","0.0-11.0","yk130xwl82","one_one","1","direct_first","1","CH05NK21","0","20","1","1","3","1","","0","1","0","2336.989999981597","","{}","","","","","","","","","","","",""
"","html-keyboard-response","188","479396","0.0-12.0-0.0","yk130xwl82","one_one","1","direct_first","1","CH05NK21","0","20","1","1","3","1","","0","1","0","null","","","<div style=""font-size:60px;"">+</div>","null","","","","","","","","","",""
"","html-keyboard-response","189","479495","0.0-12.0-1.0","yk130xwl82","one_one","1","direct_first","1","CH05NK21","0","20","1","1","3","1","","0","1","0","null","","","<img src = 'category2/GS2.png' width = '100%;'>","null","","","","","","","","","",""
"","html-keyboard-response","190","479757","0.0-12.0-2.0","yk130xwl82","one_one","1","direct_first","1","CH05NK21","0","20","1","1","3","1","","0","1","0","null","","","<img src = 'targets/31.png' width = '100%;'>","null","","","","","","","","","",""
"","html-keyboard-response","191","480180","0.0-12.0-3.0","yk130xwl82","one_one","1","direct_first","1","CH05NK21","0","20","1","1","3","1","","0","1","0","420.17000005580485","","","<img src = 'targets/mask.png' width = '100%;'>","68","pos","GS","GSnew","2","category2/GS2.png","","targets/31.png","indirect","0","16"
"","html-keyboard-response","192","481692","0.0-12.0-0.1","yk130xwl82","one_one","1","direct_first","1","CH05NK21","0","20","1","1","3","1","","0","1","0","null","","","<div style=""font-size:60px;"">+</div>","null","","","","","","","","","",""
"","html-keyboard-response","193","481792","0.0-12.0-1.1","yk130xwl82","one_one","1","direct_first","1","CH05NK21","0","20","1","1","3","1","","0","1","0","null","","","<img src = 'category1/GS2.png' width = '100%;'>","null","","","","","","","","","",""
"","html-keyboard-response","194","482053","0.0-12.0-2.1","yk130xwl82","one_one","1","direct_first","1","CH05NK21","0","20","1","1","3","1","","0","1","0","null","","","<img src = 'targets/24.png' width = '100%;'>","null","","","","","","","","","",""
"","html-keyboard-response","195","482306","0.0-12.0-3.1","yk130xwl82","one_one","1","direct_first","1","CH05NK21","0","20","1","1","3","1","","0","1","0","251.35999987833202","","","<img src = 'targets/mask.png' width = '100%;'>","75","neg","GS","GSnew","1","category1/GS2.png","","targets/24.png","indirect","1","17"
"","html-keyboard-response","196","483817","0.0-12.0-0.2","yk130xwl82","one_one","1","direct_first","1","CH05NK21","0","20","1","1","3","1","","0","1","0","null","","","<div style=""font-size:60px;"">+</div>","null","","","","","","","","","",""
"","html-keyboard-response","197","483912","0.0-12.0-1.2","yk130xwl82","one_one","1","direct_first","1","CH05NK21","0","20","1","1","3","1","","0","1","0","null","","","<img src = 'category1/GS3.png' width = '100%;'>","null","","","","","","","","","",""
"","html-keyboard-response","198","484170","0.0-12.0-2.2","yk130xwl82","one_one","1","direct_first","1","CH05NK21","0","20","1","1","3","1","","0","1","0","null","","","<img src = 'targets/35.png' width = '100%;'>","null","","","","","","","","","",""
"","html-keyboard-response","199","484305","0.0-12.0-3.2","yk130xwl82","one_one","1","direct_first","1","CH05NK21","0","20","1","1","3","1","","0","1","0","132.57499993778765","","","<img src = 'targets/mask.png' width = '100%;'>","68","neg","GS","GSnew","1","category1/GS3.png","","targets/35.png","indirect","0","18"
"","html-keyboard-response","200","485816","0.0-12.0-0.3","yk130xwl82","one_one","1","direct_first","1","CH05NK21","0","20","1","1","3","1","","0","1","0","null","","","<div style=""font-size:60px;"">+</div>","null","","","","","","","","","",""
"","html-keyboard-response","201","485916","0.0-12.0-1.3","yk130xwl82","one_one","1","direct_first","1","CH05NK21","0","20","1","1","3","1","","0","1","0","null","","","<img src = 'category2/men.png' width = '100%;'>","null","","","","","","","","","",""
"","html-keyboard-response","202","486178","0.0-12.0-2.3","yk130xwl82","one_one","1","direct_first","1","CH05NK21","0","20","1","1","3","1","","0","1","0","null","","","<img src = 'targets/30.png' width = '100%;'>","null","","","","","","","","","",""
"","html-keyboard-response","203","486333","0.0-12.0-3.3","yk130xwl82","one_one","1","direct_first","1","CH05NK21","0","20","1","1","3","1","","0","1","0","153.20999990217388","","","<img src = 'targets/mask.png' width = '100%;'>","68","pos","GS","abstract","2","category2/men.png","","targets/30.png","indirect","0","19"
"","html-keyboard-response","204","487851","0.0-12.0-0.4","yk130xwl82","one_one","1","direct_first","1","CH05NK21","0","20","1","1","3","1","","0","1","0","null","","","<div style=""font-size:60px;"">+</div>","null","","","","","","","","","",""
"","html-keyboard-response","205","487951","0.0-12.0-1.4","yk130xwl82","one_one","1","direct_first","1","CH05NK21","0","20","1","1","3","1","","0","1","0","null","","","<img src = 'category3/wang.png' width = '100%;'>","null","","","","","","","","","",""
"","html-keyboard-response","206","488211","0.0-12.0-2.4","yk130xwl82","one_one","1","direct_first","1","CH05NK21","0","20","1","1","3","1","","0","1","0","null","","","<img src = 'targets/5.png' width = '100%;'>","null","","","","","","","","","",""
"","html-keyboard-response","207","488322","0.0-12.0-3.4","yk130xwl82","one_one","1","direct_first","1","CH05NK21","0","20","1","1","3","1","","0","1","0","109.72000006586313","","","<img src = 'targets/mask.png' width = '100%;'>","68","neg","GS","abstract","3","category3/wang.png","","targets/5.png","indirect","0","20"
"","html-keyboard-response","208","489834","0.0-12.0-0.5","yk130xwl82","one_one","1","direct_first","1","CH05NK21","0","20","1","1","3","1","","0","1","0","null","","","<div style=""font-size:60px;"">+</div>","null","","","","","","","","","",""
"","html-keyboard-response","209","489934","0.0-12.0-1.5","yk130xwl82","one_one","1","direct_first","1","CH05NK21","0","20","1","1","3","1","","0","1","0","null","","","<img src = 'category1/ma.png' width = '100%;'>","null","","","","","","","","","",""
"","html-keyboard-response","210","490195","0.0-12.0-2.5","yk130xwl82","one_one","1","direct_first","1","CH05NK21","0","20","1","1","3","1","","0","1","0","null","","","<img src = 'targets/34.png' width = '100%;'>","null","","","","","","","","","",""
"","html-keyboard-response","211","490293","0.0-12.0-3.5","yk130xwl82","one_one","1","direct_first","1","CH05NK21","0","20","1","1","3","1","","0","1","0","96.51000006124377","","","<img src = 'targets/mask.png' width = '100%;'>","75","neg","GS","abstract","1","category1/ma.png","","targets/34.png","indirect","1","21"
"","html-keyboard-response","212","491809","0.0-12.0-0.6","yk130xwl82","one_one","1","direct_first","1","CH05NK21","0","20","1","1","3","1","","0","1","0","null","","","<div style=""font-size:60px;"">+</div>","null","","","","","","","","","",""
"","html-keyboard-response","213","491901","0.0-12.0-1.6","yk130xwl82","one_one","1","direct_first","1","CH05NK21","0","20","1","1","3","1","","0","1","0","null","","","<img src = 'category3/GS3.png' width = '100%;'>","null","","","","","","","","","",""
"","html-keyboard-response","214","492162","0.0-12.0-2.6","yk130xwl82","one_one","1","direct_first","1","CH05NK21","0","20","1","1","3","1","","0","1","0","null","","","<img src = 'targets/12.png' width = '100%;'>","null","","","","","","","","","",""
"","html-keyboard-response","215","495041","0.0-12.0-3.6","yk130xwl82","one_one","1","direct_first","1","CH05NK21","0","20","1","1","3","1","","0","1","0","2877.339999889955","","","<img src = 'targets/mask.png' width = '100%;'>","75","neg","GS","GSnew","3","category3/GS3.png","","targets/12.png","indirect","1","22"
"","html-keyboard-response","216","496559","0.0-12.0-0.7","yk130xwl82","one_one","1","direct_first","1","CH05NK21","0","20","1","1","3","1","","0","1","0","null","","","<div style=""font-size:60px;"">+</div>","null","","","","","","","","","",""
"","html-keyboard-response","217","496662","0.0-12.0-1.7","yk130xwl82","one_one","1","direct_first","1","CH05NK21","0","20","1","1","3","1","","0","1","0","null","","","<img src = 'category2/GS1.png' width = '100%;'>","null","","","","","","","","","",""
"","html-keyboard-response","218","496924","0.0-12.0-2.7","yk130xwl82","one_one","1","direct_first","1","CH05NK21","0","20","1","1","3","1","","0","1","0","null","","","<img src = 'targets/1.png' width = '100%;'>","null","","","","","","","","","",""
"","html-keyboard-response","219","497071","0.0-12.0-3.7","yk130xwl82","one_one","1","direct_first","1","CH05NK21","0","20","1","1","3","1","","0","1","0","144.77499993517995","","","<img src = 'targets/mask.png' width = '100%;'>","75","pos","GS","GSnew","2","category2/GS1.png","","targets/1.png","indirect","1","23"
"","html-keyboard-response","220","498584","0.0-12.0-0.8","yk130xwl82","one_one","1","direct_first","1","CH05NK21","0","20","1","1","3","1","","0","1","0","null","","","<div style=""font-size:60px;"">+</div>","null","","","","","","","","","",""
"","html-keyboard-response","221","498685","0.0-12.0-1.8","yk130xwl82","one_one","1","direct_first","1","CH05NK21","0","20","1","1","3","1","","0","1","0","null","","","<img src = 'category2/GS3.png' width = '100%;'>","null","","","","","","","","","",""
"","html-keyboard-response","222","498946","0.0-12.0-2.8","yk130xwl82","one_one","1","direct_first","1","CH05NK21","0","20","1","1","3","1","","0","1","0","null","","","<img src = 'targets/16.png' width = '100%;'>","null","","","","","","","","","",""
"","html-keyboard-response","223","499077","0.0-12.0-3.8","yk130xwl82","one_one","1","direct_first","1","CH05NK21","0","20","1","1","3","1","","0","1","0","128.4800001885742","","","<img src = 'targets/mask.png' width = '100%;'>","75","pos","GS","GSnew","2","category2/GS3.png","","targets/16.png","indirect","1","24"
"","html-keyboard-response","224","500584","0.0-12.0-0.9","yk130xwl82","one_one","1","direct_first","1","CH05NK21","0","20","1","1","3","1","","0","1","0","null","","","<div style=""font-size:60px;"">+</div>","null","","","","","","","","","",""
"","html-keyboard-response","225","500684","0.0-12.0-1.9","yk130xwl82","one_one","1","direct_first","1","CH05NK21","0","20","1","1","3","1","","0","1","0","null","","","<img src = 'category3/GS2.png' width = '100%;'>","null","","","","","","","","","",""
"","html-keyboard-response","226","500943","0.0-12.0-2.9","yk130xwl82","one_one","1","direct_first","1","CH05NK21","0","20","1","1","3","1","","0","1","0","null","","","<img src = 'targets/13.png' width = '100%;'>","null","","","","","","","","","",""
"","html-keyboard-response","227","501057","0.0-12.0-3.9","yk130xwl82","one_one","1","direct_first","1","CH05NK21","0","20","1","1","3","1","","0","1","0","111.34999990463257","","","<img src = 'targets/mask.png' width = '100%;'>","68","neg","GS","GSnew","3","category3/GS2.png","","targets/13.png","indirect","0","25"
"","html-keyboard-response","228","502563","0.0-12.0-0.10","yk130xwl82","one_one","1","direct_first","1","CH05NK21","0","20","1","1","3","1","","0","1","0","null","","","<div style=""font-size:60px;"">+</div>","null","","","","","","","","","",""
"","html-keyboard-response","229","502661","0.0-12.0-1.10","yk130xwl82","one_one","1","direct_first","1","CH05NK21","0","20","1","1","3","1","","0","1","0","null","","","<img src = 'category4/GS3.png' width = '100%;'>","null","","","","","","","","","",""
"","html-keyboard-response","230","502924","0.0-12.0-2.10","yk130xwl82","one_one","1","direct_first","1","CH05NK21","0","20","1","1","3","1","","0","1","0","null","","","<img src = 'targets/40.png' width = '100%;'>","null","","","","","","","","","",""
"","html-keyboard-response","231","503037","0.0-12.0-3.10","yk130xwl82","one_one","1","direct_first","1","CH05NK21","0","20","1","1","3","1","","0","1","0","111.19499988853931","","","<img src = 'targets/mask.png' width = '100%;'>","75","pos","GS","GSnew","4","category4/GS3.png","","targets/40.png","indirect","1","26"
"","html-keyboard-response","232","504551","0.0-12.0-0.11","yk130xwl82","one_one","1","direct_first","1","CH05NK21","0","20","1","1","3","1","","0","1","0","null","","","<div style=""font-size:60px;"">+</div>","null","","","","","","","","","",""
"","html-keyboard-response","233","504644","0.0-12.0-1.11","yk130xwl82","one_one","1","direct_first","1","CH05NK21","0","20","1","1","3","1","","0","1","0","null","","","<img src = 'category3/GS1.png' width = '100%;'>","null","","","","","","","","","",""
"","html-keyboard-response","234","504910","0.0-12.0-2.11","yk130xwl82","one_one","1","direct_first","1","CH05NK21","0","20","1","1","3","1","","0","1","0","null","","","<img src = 'targets/11.png' width = '100%;'>","null","","","","","","","","","",""
"","html-keyboard-response","235","505035","0.0-12.0-3.11","yk130xwl82","one_one","1","direct_first","1","CH05NK21","0","20","1","1","3","1","","0","1","0","123.18499991670251","","","<img src = 'targets/mask.png' width = '100%;'>","75","neg","GS","GSnew","3","category3/GS1.png","","targets/11.png","indirect","1","27"
"","html-keyboard-response","236","506551","0.0-12.0-0.12","yk130xwl82","one_one","1","direct_first","1","CH05NK21","0","20","1","1","3","1","","0","1","0","null","","","<div style=""font-size:60px;"">+</div>","null","","","","","","","","","",""
"","html-keyboard-response","237","506650","0.0-12.0-1.12","yk130xwl82","one_one","1","direct_first","1","CH05NK21","0","20","1","1","3","1","","0","1","0","null","","","<img src = 'category4/GS2.png' width = '100%;'>","null","","","","","","","","","",""
"","html-keyboard-response","238","506908","0.0-12.0-2.12","yk130xwl82","one_one","1","direct_first","1","CH05NK21","0","20","1","1","3","1","","0","1","0","null","","","<img src = 'targets/4.png' width = '100%;'>","null","","","","","","","","","",""
"","html-keyboard-response","239","507999","0.0-12.0-3.12","yk130xwl82","one_one","1","direct_first","1","CH05NK21","0","20","1","1","3","1","","0","1","0","1089.1050000209361","","","<img src = 'targets/mask.png' width = '100%;'>","75","pos","GS","GSnew","4","category4/GS2.png","","targets/4.png","indirect","1","28"
"","html-keyboard-response","240","509518","0.0-12.0-0.13","yk130xwl82","one_one","1","direct_first","1","CH05NK21","0","20","1","1","3","1","","0","1","0","null","","","<div style=""font-size:60px;"">+</div>","null","","","","","","","","","",""
"","html-keyboard-response","241","509617","0.0-12.0-1.13","yk130xwl82","one_one","1","direct_first","1","CH05NK21","0","20","1","1","3","1","","0","1","0","null","","","<img src = 'category4/lin.png' width = '100%;'>","null","","","","","","","","","",""
"","html-keyboard-response","242","509877","0.0-12.0-2.13","yk130xwl82","one_one","1","direct_first","1","CH05NK21","0","20","1","1","3","1","","0","1","0","null","","","<img src = 'targets/18.png' width = '100%;'>","null","","","","","","","","","",""
"","html-keyboard-response","243","510188","0.0-12.0-3.13","yk130xwl82","one_one","1","direct_first","1","CH05NK21","0","20","1","1","3","1","","0","1","0","309.5199998933822","","","<img src = 'targets/mask.png' width = '100%;'>","75","pos","GS","abstract","4","category4/lin.png","","targets/18.png","indirect","1","29"
"","html-keyboard-response","244","511708","0.0-12.0-0.14","yk130xwl82","one_one","1","direct_first","1","CH05NK21","0","20","1","1","3","1","","0","1","0","null","","","<div style=""font-size:60px;"">+</div>","null","","","","","","","","","",""
"","html-keyboard-response","245","511806","0.0-12.0-1.14","yk130xwl82","one_one","1","direct_first","1","CH05NK21","0","20","1","1","3","1","","0","1","0","null","","","<img src = 'category4/GS1.png' width = '100%;'>","null","","","","","","","","","",""
"","html-keyboard-response","246","512068","0.0-12.0-2.14","yk130xwl82","one_one","1","direct_first","1","CH05NK21","0","20","1","1","3","1","","0","1","0","null","","","<img src = 'targets/17.png' width = '100%;'>","null","","","","","","","","","",""
"","html-keyboard-response","247","512383","0.0-12.0-3.14","yk130xwl82","one_one","1","direct_first","1","CH05NK21","0","20","1","1","3","1","","0","1","0","313.0799999926239","","","<img src = 'targets/mask.png' width = '100%;'>","68","pos","GS","GSnew","4","category4/GS1.png","","targets/17.png","indirect","0","30"
"","html-keyboard-response","248","513898","0.0-12.0-0.15","yk130xwl82","one_one","1","direct_first","1","CH05NK21","0","20","1","1","3","1","","0","1","0","null","","","<div style=""font-size:60px;"">+</div>","null","","","","","","","","","",""
"","html-keyboard-response","249","513998","0.0-12.0-1.15","yk130xwl82","one_one","1","direct_first","1","CH05NK21","0","20","1","1","3","1","","0","1","0","null","","","<img src = 'category1/GS1.png' width = '100%;'>","null","","","","","","","","","",""
"","html-keyboard-response","250","514266","0.0-12.0-2.15","yk130xwl82","one_one","1","direct_first","1","CH05NK21","0","20","1","1","3","1","","0","1","0","null","","","<img src = 'targets/42.png' width = '100%;'>","null","","","","","","","","","",""
"","html-keyboard-response","251","514441","0.0-12.0-3.15","yk130xwl82","one_one","1","direct_first","1","CH05NK21","0","20","1","1","3","1","","0","1","0","172.14499996043742","","","<img src = 'targets/mask.png' width = '100%;'>","75","neg","GS","GSnew","1","category1/GS1.png","","targets/42.png","indirect","1","31"
"","survey-html-form","252","519488","0.0-13.0","yk130xwl82","one_one","1","direct_first","1","CH05NK21","0","20","1","1","3","1","","0","1","0","4537.1199999935925","","{}","","","","","","","","","","","",""
"","image-slider-response","253","525016","0.0-14.0-0.0","yk130xwl82","one_one","1","direct_first","1","CH05NK21","0","20","1","1","3","1","","0","1","0","4522.469999967143","","","","","pos","All","all","2","category2/men_all.png","33","","all","",""
"","image-slider-response","254","527773","0.0-14.0-0.1","yk130xwl82","one_one","1","direct_first","1","CH05NK21","0","20","1","1","3","1","","0","1","0","2752.905000001192","","","","","neg","All","all","1","category1/ma_all.png","-37","","all","",""
"","image-slider-response","255","530336","0.0-14.0-0.2","yk130xwl82","one_one","1","direct_first","1","CH05NK21","0","20","1","1","3","1","","0","1","0","2560.4499999899417","","","","","neg","All","all","3","category3/wang_all.png","-15","","all","",""
"","image-slider-response","256","533562","0.0-14.0-0.3","yk130xwl82","one_one","1","direct_first","1","CH05NK21","0","20","1","1","3","1","","0","1","0","3221.7349999118596","","","","","pos","All","all","4","category4/lin_all.png","-6","","all","",""
"","survey-text","257","536215","0.0-15.0","yk130xwl82","one_one","1","direct_first","1","CH05NK21","0","20","1","1","3","1","","0","1","0","2624.0499999839813","","{""comment"":""""}","","","","","","","","","","","",""
"","survey-html-form","258","547659","0.0-16.0","yk130xwl82","one_one","1","direct_first","1","CH05NK21","0","20","1","1","3","1","","0","1","0","11439.015000127256","","{""hinschauen"":""0"",""ablenkung"":""1"",""gewissenhaft"":""0""}","","","","","","","","","","","",""
