"success","trial_type","trial_index","time_elapsed","internal_node_id","subject","condition","condition_code","measure","measure_code","codeword","gender","age","education","chinese","fach","handedness","comment","hinschauen","ablenkung","gewissenhaft","rt","url","responses","stimulus","key_press","val","type","type_specific","category","cs_selected","response","target","task","indirect","nr_pres"
"true","fullscreen","0","3861","0.0-0.0","zszt1vu065","many_one","0","direct_first","1","rt07ip21","0","24","1","1","3","1","Es wäre schön gewesen, am Ende noch die Bedeutung der Schriftzeichen zu erläutern. Aber an sich eine sehr interessante Studie.","0","1","0","","","","","","","","","","","","","","",""
"","external-html","1","8294","0.0-1.0","zszt1vu065","many_one","0","direct_first","1","rt07ip21","0","24","1","1","3","1","Es wäre schön gewesen, am Ende noch die Bedeutung der Schriftzeichen zu erläutern. Aber an sich eine sehr interessante Studie.","0","1","0","4392.675000010058","text/information.html","","","","","","","","","","","","",""
"","external-html","2","28316","0.0-2.0","zszt1vu065","many_one","0","direct_first","1","rt07ip21","0","24","1","1","3","1","Es wäre schön gewesen, am Ende noch die Bedeutung der Schriftzeichen zu erläutern. Aber an sich eine sehr interessante Studie.","0","1","0","19980.01000005752","text/consent.html","","","","","","","","","","","","",""
"","survey-html-form","3","126480","0.0-3.0","zszt1vu065","many_one","0","direct_first","1","rt07ip21","0","24","1","1","3","1","Es wäre schön gewesen, am Ende noch die Bedeutung der Schriftzeichen zu erläutern. Aber an sich eine sehr interessante Studie.","0","1","0","98158.67000003345","","{""codeword_enter"":""rt07ip21""}","","","","","","","","","","","",""
"","survey-html-form","4","171209","0.0-4.0","zszt1vu065","many_one","0","direct_first","1","rt07ip21","0","24","1","1","3","1","Es wäre schön gewesen, am Ende noch die Bedeutung der Schriftzeichen zu erläutern. Aber an sich eine sehr interessante Studie.","0","1","0","44719.925000099465","","{""age"":""24"",""education"":""1"",""subject"":""3"",""gender"":""0"",""handedness"":""1"",""chinese"":""1""}","","","","","","","","","","","",""
"","survey-html-form","5","174078","0.0-5.0","zszt1vu065","many_one","0","direct_first","1","rt07ip21","0","24","1","1","3","1","Es wäre schön gewesen, am Ende noch die Bedeutung der Schriftzeichen zu erläutern. Aber an sich eine sehr interessante Studie.","0","1","0","2866.799999959767","","{}","","","","","","","","","","","",""
"","html-keyboard-response","6","178087","0.0-6.0-0.0-0.0","zszt1vu065","many_one","0","direct_first","1","rt07ip21","0","24","1","1","3","1","Es wäre schön gewesen, am Ende noch die Bedeutung der Schriftzeichen zu erläutern. Aber an sich eine sehr interessante Studie.","0","1","0","null","","","<div class = 'row'><div class = 'column'><img src = 'category1/CS6.png' width = '70%;'></div><div class = 'column'><img src = 'uspos/2040.bmp' width = '100%;'></div></div>","null","pos","CS","CS","1","category1/CS6.png","","","","",""
"","html-keyboard-response","7","180601","0.0-6.0-0.0-0.1","zszt1vu065","many_one","0","direct_first","1","rt07ip21","0","24","1","1","3","1","Es wäre schön gewesen, am Ende noch die Bedeutung der Schriftzeichen zu erläutern. Aber an sich eine sehr interessante Studie.","0","1","0","null","","","<div class = 'row'><div class = 'column'><img src = 'category3/CS9.png' width = '70%;'></div><div class = 'column'><img src = 'uspos/1460.bmp' width = '100%;'></div></div>","null","pos","CS","CS","3","category3/CS9.png","","","","",""
"","html-keyboard-response","8","183109","0.0-6.0-0.0-0.2","zszt1vu065","many_one","0","direct_first","1","rt07ip21","0","24","1","1","3","1","Es wäre schön gewesen, am Ende noch die Bedeutung der Schriftzeichen zu erläutern. Aber an sich eine sehr interessante Studie.","0","1","0","null","","","<div class = 'row'><div class = 'column'><img src = 'category3/CS1.png' width = '70%;'></div><div class = 'column'><img src = 'uspos/5830.bmp' width = '100%;'></div></div>","null","pos","CS","CS","3","category3/CS1.png","","","","",""
"","html-keyboard-response","9","185634","0.0-6.0-0.0-0.3","zszt1vu065","many_one","0","direct_first","1","rt07ip21","0","24","1","1","3","1","Es wäre schön gewesen, am Ende noch die Bedeutung der Schriftzeichen zu erläutern. Aber an sich eine sehr interessante Studie.","0","1","0","null","","","<div class = 'row'><div class = 'column'><img src = 'usneg/3300.bmp' width = '100%;'></div><div class = 'column'><img src = 'category2/CS5.png' width = '70%;'></div></div>","null","neg","CS","CS","2","category2/CS5.png","","","","",""
"","html-keyboard-response","10","188163","0.0-6.0-0.0-0.4","zszt1vu065","many_one","0","direct_first","1","rt07ip21","0","24","1","1","3","1","Es wäre schön gewesen, am Ende noch die Bedeutung der Schriftzeichen zu erläutern. Aber an sich eine sehr interessante Studie.","0","1","0","null","","","<div class = 'row'><div class = 'column'><img src = 'category4/CS7.png' width = '70%;'></div><div class = 'column'><img src = 'usneg/7380.bmp' width = '100%;'></div></div>","null","neg","CS","CS","4","category4/CS7.png","","","","",""
"","html-keyboard-response","11","190671","0.0-6.0-0.0-0.5","zszt1vu065","many_one","0","direct_first","1","rt07ip21","0","24","1","1","3","1","Es wäre schön gewesen, am Ende noch die Bedeutung der Schriftzeichen zu erläutern. Aber an sich eine sehr interessante Studie.","0","1","0","null","","","<div class = 'row'><div class = 'column'><img src = 'usneg/6020.bmp' width = '100%;'></div><div class = 'column'><img src = 'category4/CS8.png' width = '70%;'></div></div>","null","neg","CS","CS","4","category4/CS8.png","","","","",""
"","html-keyboard-response","12","193188","0.0-6.0-0.0-0.6","zszt1vu065","many_one","0","direct_first","1","rt07ip21","0","24","1","1","3","1","Es wäre schön gewesen, am Ende noch die Bedeutung der Schriftzeichen zu erläutern. Aber an sich eine sehr interessante Studie.","0","1","0","null","","","<div class = 'row'><div class = 'column'><img src = 'category2/CS8.png' width = '70%;'></div><div class = 'column'><img src = 'usneg/9182.bmp' width = '100%;'></div></div>","null","neg","CS","CS","2","category2/CS8.png","","","","",""
"","html-keyboard-response","13","195707","0.0-6.0-0.0-0.7","zszt1vu065","many_one","0","direct_first","1","rt07ip21","0","24","1","1","3","1","Es wäre schön gewesen, am Ende noch die Bedeutung der Schriftzeichen zu erläutern. Aber an sich eine sehr interessante Studie.","0","1","0","null","","","<div class = 'row'><div class = 'column'><img src = 'usneg/3160.bmp' width = '100%;'></div><div class = 'column'><img src = 'category2/CS6.png' width = '70%;'></div></div>","null","neg","CS","CS","2","category2/CS6.png","","","","",""
"","html-keyboard-response","14","198221","0.0-6.0-0.0-0.8","zszt1vu065","many_one","0","direct_first","1","rt07ip21","0","24","1","1","3","1","Es wäre schön gewesen, am Ende noch die Bedeutung der Schriftzeichen zu erläutern. Aber an sich eine sehr interessante Studie.","0","1","0","null","","","<div class = 'row'><div class = 'column'><img src = 'category2/CS2.png' width = '70%;'></div><div class = 'column'><img src = 'usneg/9561.bmp' width = '100%;'></div></div>","null","neg","CS","CS","2","category2/CS2.png","","","","",""
"","html-keyboard-response","15","200732","0.0-6.0-0.0-0.9","zszt1vu065","many_one","0","direct_first","1","rt07ip21","0","24","1","1","3","1","Es wäre schön gewesen, am Ende noch die Bedeutung der Schriftzeichen zu erläutern. Aber an sich eine sehr interessante Studie.","0","1","0","null","","","<div class = 'row'><div class = 'column'><img src = 'category3/CS8.png' width = '70%;'></div><div class = 'column'><img src = 'uspos/2058.bmp' width = '100%;'></div></div>","null","pos","CS","CS","3","category3/CS8.png","","","","",""
"","html-keyboard-response","16","203252","0.0-6.0-0.0-0.10","zszt1vu065","many_one","0","direct_first","1","rt07ip21","0","24","1","1","3","1","Es wäre schön gewesen, am Ende noch die Bedeutung der Schriftzeichen zu erläutern. Aber an sich eine sehr interessante Studie.","0","1","0","null","","","<div class = 'row'><div class = 'column'><img src = 'category3/CS4.png' width = '70%;'></div><div class = 'column'><img src = 'uspos/8490.bmp' width = '100%;'></div></div>","null","pos","CS","CS","3","category3/CS4.png","","","","",""
"","html-keyboard-response","17","205765","0.0-6.0-0.0-0.11","zszt1vu065","many_one","0","direct_first","1","rt07ip21","0","24","1","1","3","1","Es wäre schön gewesen, am Ende noch die Bedeutung der Schriftzeichen zu erläutern. Aber an sich eine sehr interessante Studie.","0","1","0","null","","","<div class = 'row'><div class = 'column'><img src = 'category1/CS7.png' width = '70%;'></div><div class = 'column'><img src = 'uspos/5470.bmp' width = '100%;'></div></div>","null","pos","CS","CS","1","category1/CS7.png","","","","",""
"","html-keyboard-response","18","208293","0.0-6.0-0.0-0.12","zszt1vu065","many_one","0","direct_first","1","rt07ip21","0","24","1","1","3","1","Es wäre schön gewesen, am Ende noch die Bedeutung der Schriftzeichen zu erläutern. Aber an sich eine sehr interessante Studie.","0","1","0","null","","","<div class = 'row'><div class = 'column'><img src = 'category1/CS4.png' width = '70%;'></div><div class = 'column'><img src = 'uspos/2550.bmp' width = '100%;'></div></div>","null","pos","CS","CS","1","category1/CS4.png","","","","",""
"","html-keyboard-response","19","210805","0.0-6.0-0.0-0.13","zszt1vu065","many_one","0","direct_first","1","rt07ip21","0","24","1","1","3","1","Es wäre schön gewesen, am Ende noch die Bedeutung der Schriftzeichen zu erläutern. Aber an sich eine sehr interessante Studie.","0","1","0","null","","","<div class = 'row'><div class = 'column'><img src = 'category4/CS4.png' width = '70%;'></div><div class = 'column'><img src = 'usneg/9421.bmp' width = '100%;'></div></div>","null","neg","CS","CS","4","category4/CS4.png","","","","",""
"","html-keyboard-response","20","213309","0.0-6.0-0.0-0.14","zszt1vu065","many_one","0","direct_first","1","rt07ip21","0","24","1","1","3","1","Es wäre schön gewesen, am Ende noch die Bedeutung der Schriftzeichen zu erläutern. Aber an sich eine sehr interessante Studie.","0","1","0","null","","","<div class = 'row'><div class = 'column'><img src = 'uspos/8080.bmp' width = '100%;'></div><div class = 'column'><img src = 'category3/CS3.png' width = '70%;'></div></div>","null","pos","CS","CS","3","category3/CS3.png","","","","",""
"","html-keyboard-response","21","215818","0.0-6.0-0.0-0.15","zszt1vu065","many_one","0","direct_first","1","rt07ip21","0","24","1","1","3","1","Es wäre schön gewesen, am Ende noch die Bedeutung der Schriftzeichen zu erläutern. Aber an sich eine sehr interessante Studie.","0","1","0","null","","","<div class = 'row'><div class = 'column'><img src = 'category2/CS1.png' width = '70%;'></div><div class = 'column'><img src = 'usneg/9635.2.bmp' width = '100%;'></div></div>","null","neg","CS","CS","2","category2/CS1.png","","","","",""
"","html-keyboard-response","22","218338","0.0-6.0-0.0-0.16","zszt1vu065","many_one","0","direct_first","1","rt07ip21","0","24","1","1","3","1","Es wäre schön gewesen, am Ende noch die Bedeutung der Schriftzeichen zu erläutern. Aber an sich eine sehr interessante Studie.","0","1","0","null","","","<div class = 'row'><div class = 'column'><img src = 'uspos/8461.bmp' width = '100%;'></div><div class = 'column'><img src = 'category1/CS5.png' width = '70%;'></div></div>","null","pos","CS","CS","1","category1/CS5.png","","","","",""
"","html-keyboard-response","23","220850","0.0-6.0-0.0-0.17","zszt1vu065","many_one","0","direct_first","1","rt07ip21","0","24","1","1","3","1","Es wäre schön gewesen, am Ende noch die Bedeutung der Schriftzeichen zu erläutern. Aber an sich eine sehr interessante Studie.","0","1","0","null","","","<div class = 'row'><div class = 'column'><img src = 'category4/CS9.png' width = '70%;'></div><div class = 'column'><img src = 'usneg/2141.bmp' width = '100%;'></div></div>","null","neg","CS","CS","4","category4/CS9.png","","","","",""
"","html-keyboard-response","24","223367","0.0-6.0-0.0-0.18","zszt1vu065","many_one","0","direct_first","1","rt07ip21","0","24","1","1","3","1","Es wäre schön gewesen, am Ende noch die Bedeutung der Schriftzeichen zu erläutern. Aber an sich eine sehr interessante Studie.","0","1","0","null","","","<div class = 'row'><div class = 'column'><img src = 'usneg/9920.bmp' width = '100%;'></div><div class = 'column'><img src = 'category4/CS10.png' width = '70%;'></div></div>","null","neg","CS","CS","4","category4/CS10.png","","","","",""
"","html-keyboard-response","25","225876","0.0-6.0-0.0-0.19","zszt1vu065","many_one","0","direct_first","1","rt07ip21","0","24","1","1","3","1","Es wäre schön gewesen, am Ende noch die Bedeutung der Schriftzeichen zu erläutern. Aber an sich eine sehr interessante Studie.","0","1","0","null","","","<div class = 'row'><div class = 'column'><img src = 'category1/CS9.png' width = '70%;'></div><div class = 'column'><img src = 'uspos/2165.bmp' width = '100%;'></div></div>","null","pos","CS","CS","1","category1/CS9.png","","","","",""
"","survey-html-form","26","229104","0.0-6.0-1.0","zszt1vu065","many_one","0","direct_first","1","rt07ip21","0","24","1","1","3","1","Es wäre schön gewesen, am Ende noch die Bedeutung der Schriftzeichen zu erläutern. Aber an sich eine sehr interessante Studie.","0","1","0","2714.3049999140203","","{}","","","","","","","","","","","",""
"","html-keyboard-response","27","233123","0.0-6.0-2.0-0.0","zszt1vu065","many_one","0","direct_first","1","rt07ip21","0","24","1","1","3","1","Es wäre schön gewesen, am Ende noch die Bedeutung der Schriftzeichen zu erläutern. Aber an sich eine sehr interessante Studie.","0","1","0","null","","","<div class = 'row'><div class = 'column'><img src = 'category2/CS6.png' width = '70%;'></div><div class = 'column'><img src = 'usneg/3160.bmp' width = '100%;'></div></div>","null","neg","CS","CS","2","category2/CS6.png","","","","",""
"","html-keyboard-response","28","235649","0.0-6.0-2.0-0.1","zszt1vu065","many_one","0","direct_first","1","rt07ip21","0","24","1","1","3","1","Es wäre schön gewesen, am Ende noch die Bedeutung der Schriftzeichen zu erläutern. Aber an sich eine sehr interessante Studie.","0","1","0","null","","","<div class = 'row'><div class = 'column'><img src = 'category2/CS5.png' width = '70%;'></div><div class = 'column'><img src = 'usneg/3300.bmp' width = '100%;'></div></div>","null","neg","CS","CS","2","category2/CS5.png","","","","",""
"","html-keyboard-response","29","238157","0.0-6.0-2.0-0.2","zszt1vu065","many_one","0","direct_first","1","rt07ip21","0","24","1","1","3","1","Es wäre schön gewesen, am Ende noch die Bedeutung der Schriftzeichen zu erläutern. Aber an sich eine sehr interessante Studie.","0","1","0","null","","","<div class = 'row'><div class = 'column'><img src = 'category1/CS5.png' width = '70%;'></div><div class = 'column'><img src = 'uspos/8461.bmp' width = '100%;'></div></div>","null","pos","CS","CS","1","category1/CS5.png","","","","",""
"","html-keyboard-response","30","240671","0.0-6.0-2.0-0.3","zszt1vu065","many_one","0","direct_first","1","rt07ip21","0","24","1","1","3","1","Es wäre schön gewesen, am Ende noch die Bedeutung der Schriftzeichen zu erläutern. Aber an sich eine sehr interessante Studie.","0","1","0","null","","","<div class = 'row'><div class = 'column'><img src = 'category3/CS4.png' width = '70%;'></div><div class = 'column'><img src = 'uspos/8490.bmp' width = '100%;'></div></div>","null","pos","CS","CS","3","category3/CS4.png","","","","",""
"","html-keyboard-response","31","243176","0.0-6.0-2.0-0.4","zszt1vu065","many_one","0","direct_first","1","rt07ip21","0","24","1","1","3","1","Es wäre schön gewesen, am Ende noch die Bedeutung der Schriftzeichen zu erläutern. Aber an sich eine sehr interessante Studie.","0","1","0","null","","","<div class = 'row'><div class = 'column'><img src = 'usneg/6020.bmp' width = '100%;'></div><div class = 'column'><img src = 'category4/CS8.png' width = '70%;'></div></div>","null","neg","CS","CS","4","category4/CS8.png","","","","",""
"","html-keyboard-response","32","245692","0.0-6.0-2.0-0.5","zszt1vu065","many_one","0","direct_first","1","rt07ip21","0","24","1","1","3","1","Es wäre schön gewesen, am Ende noch die Bedeutung der Schriftzeichen zu erläutern. Aber an sich eine sehr interessante Studie.","0","1","0","null","","","<div class = 'row'><div class = 'column'><img src = 'usneg/2141.bmp' width = '100%;'></div><div class = 'column'><img src = 'category4/CS9.png' width = '70%;'></div></div>","null","neg","CS","CS","4","category4/CS9.png","","","","",""
"","html-keyboard-response","33","248212","0.0-6.0-2.0-0.6","zszt1vu065","many_one","0","direct_first","1","rt07ip21","0","24","1","1","3","1","Es wäre schön gewesen, am Ende noch die Bedeutung der Schriftzeichen zu erläutern. Aber an sich eine sehr interessante Studie.","0","1","0","null","","","<div class = 'row'><div class = 'column'><img src = 'category4/CS7.png' width = '70%;'></div><div class = 'column'><img src = 'usneg/7380.bmp' width = '100%;'></div></div>","null","neg","CS","CS","4","category4/CS7.png","","","","",""
"","html-keyboard-response","34","250725","0.0-6.0-2.0-0.7","zszt1vu065","many_one","0","direct_first","1","rt07ip21","0","24","1","1","3","1","Es wäre schön gewesen, am Ende noch die Bedeutung der Schriftzeichen zu erläutern. Aber an sich eine sehr interessante Studie.","0","1","0","null","","","<div class = 'row'><div class = 'column'><img src = 'category4/CS4.png' width = '70%;'></div><div class = 'column'><img src = 'usneg/9421.bmp' width = '100%;'></div></div>","null","neg","CS","CS","4","category4/CS4.png","","","","",""
"","html-keyboard-response","35","253244","0.0-6.0-2.0-0.8","zszt1vu065","many_one","0","direct_first","1","rt07ip21","0","24","1","1","3","1","Es wäre schön gewesen, am Ende noch die Bedeutung der Schriftzeichen zu erläutern. Aber an sich eine sehr interessante Studie.","0","1","0","null","","","<div class = 'row'><div class = 'column'><img src = 'category4/CS10.png' width = '70%;'></div><div class = 'column'><img src = 'usneg/9920.bmp' width = '100%;'></div></div>","null","neg","CS","CS","4","category4/CS10.png","","","","",""
"","html-keyboard-response","36","255752","0.0-6.0-2.0-0.9","zszt1vu065","many_one","0","direct_first","1","rt07ip21","0","24","1","1","3","1","Es wäre schön gewesen, am Ende noch die Bedeutung der Schriftzeichen zu erläutern. Aber an sich eine sehr interessante Studie.","0","1","0","null","","","<div class = 'row'><div class = 'column'><img src = 'category3/CS1.png' width = '70%;'></div><div class = 'column'><img src = 'uspos/5830.bmp' width = '100%;'></div></div>","null","pos","CS","CS","3","category3/CS1.png","","","","",""
"","html-keyboard-response","37","258262","0.0-6.0-2.0-0.10","zszt1vu065","many_one","0","direct_first","1","rt07ip21","0","24","1","1","3","1","Es wäre schön gewesen, am Ende noch die Bedeutung der Schriftzeichen zu erläutern. Aber an sich eine sehr interessante Studie.","0","1","0","null","","","<div class = 'row'><div class = 'column'><img src = 'category2/CS1.png' width = '70%;'></div><div class = 'column'><img src = 'usneg/9635.2.bmp' width = '100%;'></div></div>","null","neg","CS","CS","2","category2/CS1.png","","","","",""
"","html-keyboard-response","38","260794","0.0-6.0-2.0-0.11","zszt1vu065","many_one","0","direct_first","1","rt07ip21","0","24","1","1","3","1","Es wäre schön gewesen, am Ende noch die Bedeutung der Schriftzeichen zu erläutern. Aber an sich eine sehr interessante Studie.","0","1","0","null","","","<div class = 'row'><div class = 'column'><img src = 'category1/CS4.png' width = '70%;'></div><div class = 'column'><img src = 'uspos/2550.bmp' width = '100%;'></div></div>","null","pos","CS","CS","1","category1/CS4.png","","","","",""
"","html-keyboard-response","39","263319","0.0-6.0-2.0-0.12","zszt1vu065","many_one","0","direct_first","1","rt07ip21","0","24","1","1","3","1","Es wäre schön gewesen, am Ende noch die Bedeutung der Schriftzeichen zu erläutern. Aber an sich eine sehr interessante Studie.","0","1","0","null","","","<div class = 'row'><div class = 'column'><img src = 'category2/CS8.png' width = '70%;'></div><div class = 'column'><img src = 'usneg/9182.bmp' width = '100%;'></div></div>","null","neg","CS","CS","2","category2/CS8.png","","","","",""
"","html-keyboard-response","40","265844","0.0-6.0-2.0-0.13","zszt1vu065","many_one","0","direct_first","1","rt07ip21","0","24","1","1","3","1","Es wäre schön gewesen, am Ende noch die Bedeutung der Schriftzeichen zu erläutern. Aber an sich eine sehr interessante Studie.","0","1","0","null","","","<div class = 'row'><div class = 'column'><img src = 'category3/CS8.png' width = '70%;'></div><div class = 'column'><img src = 'uspos/2058.bmp' width = '100%;'></div></div>","null","pos","CS","CS","3","category3/CS8.png","","","","",""
"","html-keyboard-response","41","268361","0.0-6.0-2.0-0.14","zszt1vu065","many_one","0","direct_first","1","rt07ip21","0","24","1","1","3","1","Es wäre schön gewesen, am Ende noch die Bedeutung der Schriftzeichen zu erläutern. Aber an sich eine sehr interessante Studie.","0","1","0","null","","","<div class = 'row'><div class = 'column'><img src = 'category1/CS7.png' width = '70%;'></div><div class = 'column'><img src = 'uspos/5470.bmp' width = '100%;'></div></div>","null","pos","CS","CS","1","category1/CS7.png","","","","",""
"","html-keyboard-response","42","270865","0.0-6.0-2.0-0.15","zszt1vu065","many_one","0","direct_first","1","rt07ip21","0","24","1","1","3","1","Es wäre schön gewesen, am Ende noch die Bedeutung der Schriftzeichen zu erläutern. Aber an sich eine sehr interessante Studie.","0","1","0","null","","","<div class = 'row'><div class = 'column'><img src = 'uspos/1460.bmp' width = '100%;'></div><div class = 'column'><img src = 'category3/CS9.png' width = '70%;'></div></div>","null","pos","CS","CS","3","category3/CS9.png","","","","",""
"","html-keyboard-response","43","273383","0.0-6.0-2.0-0.16","zszt1vu065","many_one","0","direct_first","1","rt07ip21","0","24","1","1","3","1","Es wäre schön gewesen, am Ende noch die Bedeutung der Schriftzeichen zu erläutern. Aber an sich eine sehr interessante Studie.","0","1","0","null","","","<div class = 'row'><div class = 'column'><img src = 'uspos/2040.bmp' width = '100%;'></div><div class = 'column'><img src = 'category1/CS6.png' width = '70%;'></div></div>","null","pos","CS","CS","1","category1/CS6.png","","","","",""
"","html-keyboard-response","44","275888","0.0-6.0-2.0-0.17","zszt1vu065","many_one","0","direct_first","1","rt07ip21","0","24","1","1","3","1","Es wäre schön gewesen, am Ende noch die Bedeutung der Schriftzeichen zu erläutern. Aber an sich eine sehr interessante Studie.","0","1","0","null","","","<div class = 'row'><div class = 'column'><img src = 'category1/CS9.png' width = '70%;'></div><div class = 'column'><img src = 'uspos/2165.bmp' width = '100%;'></div></div>","null","pos","CS","CS","1","category1/CS9.png","","","","",""
"","html-keyboard-response","45","278401","0.0-6.0-2.0-0.18","zszt1vu065","many_one","0","direct_first","1","rt07ip21","0","24","1","1","3","1","Es wäre schön gewesen, am Ende noch die Bedeutung der Schriftzeichen zu erläutern. Aber an sich eine sehr interessante Studie.","0","1","0","null","","","<div class = 'row'><div class = 'column'><img src = 'uspos/8080.bmp' width = '100%;'></div><div class = 'column'><img src = 'category3/CS3.png' width = '70%;'></div></div>","null","pos","CS","CS","3","category3/CS3.png","","","","",""
"","html-keyboard-response","46","280911","0.0-6.0-2.0-0.19","zszt1vu065","many_one","0","direct_first","1","rt07ip21","0","24","1","1","3","1","Es wäre schön gewesen, am Ende noch die Bedeutung der Schriftzeichen zu erläutern. Aber an sich eine sehr interessante Studie.","0","1","0","null","","","<div class = 'row'><div class = 'column'><img src = 'category2/CS2.png' width = '70%;'></div><div class = 'column'><img src = 'usneg/9561.bmp' width = '100%;'></div></div>","null","neg","CS","CS","2","category2/CS2.png","","","","",""
"","survey-html-form","47","284243","0.0-6.0-3.0","zszt1vu065","many_one","0","direct_first","1","rt07ip21","0","24","1","1","3","1","Es wäre schön gewesen, am Ende noch die Bedeutung der Schriftzeichen zu erläutern. Aber an sich eine sehr interessante Studie.","0","1","0","2830.7449999265373","","{}","","","","","","","","","","","",""
"","html-keyboard-response","48","288257","0.0-6.0-4.0-0.0","zszt1vu065","many_one","0","direct_first","1","rt07ip21","0","24","1","1","3","1","Es wäre schön gewesen, am Ende noch die Bedeutung der Schriftzeichen zu erläutern. Aber an sich eine sehr interessante Studie.","0","1","0","null","","","<div class = 'row'><div class = 'column'><img src = 'category2/CS6.png' width = '70%;'></div><div class = 'column'><img src = 'usneg/3160.bmp' width = '100%;'></div></div>","null","neg","CS","CS","2","category2/CS6.png","","","","",""
"","html-keyboard-response","49","290770","0.0-6.0-4.0-0.1","zszt1vu065","many_one","0","direct_first","1","rt07ip21","0","24","1","1","3","1","Es wäre schön gewesen, am Ende noch die Bedeutung der Schriftzeichen zu erläutern. Aber an sich eine sehr interessante Studie.","0","1","0","null","","","<div class = 'row'><div class = 'column'><img src = 'usneg/9182.bmp' width = '100%;'></div><div class = 'column'><img src = 'category2/CS8.png' width = '70%;'></div></div>","null","neg","CS","CS","2","category2/CS8.png","","","","",""
"","html-keyboard-response","50","293275","0.0-6.0-4.0-0.2","zszt1vu065","many_one","0","direct_first","1","rt07ip21","0","24","1","1","3","1","Es wäre schön gewesen, am Ende noch die Bedeutung der Schriftzeichen zu erläutern. Aber an sich eine sehr interessante Studie.","0","1","0","null","","","<div class = 'row'><div class = 'column'><img src = 'uspos/5830.bmp' width = '100%;'></div><div class = 'column'><img src = 'category3/CS1.png' width = '70%;'></div></div>","null","pos","CS","CS","3","category3/CS1.png","","","","",""
"","html-keyboard-response","51","295786","0.0-6.0-4.0-0.3","zszt1vu065","many_one","0","direct_first","1","rt07ip21","0","24","1","1","3","1","Es wäre schön gewesen, am Ende noch die Bedeutung der Schriftzeichen zu erläutern. Aber an sich eine sehr interessante Studie.","0","1","0","null","","","<div class = 'row'><div class = 'column'><img src = 'category2/CS2.png' width = '70%;'></div><div class = 'column'><img src = 'usneg/9561.bmp' width = '100%;'></div></div>","null","neg","CS","CS","2","category2/CS2.png","","","","",""
"","html-keyboard-response","52","298310","0.0-6.0-4.0-0.4","zszt1vu065","many_one","0","direct_first","1","rt07ip21","0","24","1","1","3","1","Es wäre schön gewesen, am Ende noch die Bedeutung der Schriftzeichen zu erläutern. Aber an sich eine sehr interessante Studie.","0","1","0","null","","","<div class = 'row'><div class = 'column'><img src = 'category1/CS7.png' width = '70%;'></div><div class = 'column'><img src = 'uspos/5470.bmp' width = '100%;'></div></div>","null","pos","CS","CS","1","category1/CS7.png","","","","",""
"","html-keyboard-response","53","300820","0.0-6.0-4.0-0.5","zszt1vu065","many_one","0","direct_first","1","rt07ip21","0","24","1","1","3","1","Es wäre schön gewesen, am Ende noch die Bedeutung der Schriftzeichen zu erläutern. Aber an sich eine sehr interessante Studie.","0","1","0","null","","","<div class = 'row'><div class = 'column'><img src = 'uspos/8461.bmp' width = '100%;'></div><div class = 'column'><img src = 'category1/CS5.png' width = '70%;'></div></div>","null","pos","CS","CS","1","category1/CS5.png","","","","",""
"","html-keyboard-response","54","303338","0.0-6.0-4.0-0.6","zszt1vu065","many_one","0","direct_first","1","rt07ip21","0","24","1","1","3","1","Es wäre schön gewesen, am Ende noch die Bedeutung der Schriftzeichen zu erläutern. Aber an sich eine sehr interessante Studie.","0","1","0","null","","","<div class = 'row'><div class = 'column'><img src = 'usneg/2141.bmp' width = '100%;'></div><div class = 'column'><img src = 'category4/CS9.png' width = '70%;'></div></div>","null","neg","CS","CS","4","category4/CS9.png","","","","",""
"","html-keyboard-response","55","305854","0.0-6.0-4.0-0.7","zszt1vu065","many_one","0","direct_first","1","rt07ip21","0","24","1","1","3","1","Es wäre schön gewesen, am Ende noch die Bedeutung der Schriftzeichen zu erläutern. Aber an sich eine sehr interessante Studie.","0","1","0","null","","","<div class = 'row'><div class = 'column'><img src = 'uspos/2058.bmp' width = '100%;'></div><div class = 'column'><img src = 'category3/CS8.png' width = '70%;'></div></div>","null","pos","CS","CS","3","category3/CS8.png","","","","",""
"","html-keyboard-response","56","308368","0.0-6.0-4.0-0.8","zszt1vu065","many_one","0","direct_first","1","rt07ip21","0","24","1","1","3","1","Es wäre schön gewesen, am Ende noch die Bedeutung der Schriftzeichen zu erläutern. Aber an sich eine sehr interessante Studie.","0","1","0","null","","","<div class = 'row'><div class = 'column'><img src = 'uspos/8490.bmp' width = '100%;'></div><div class = 'column'><img src = 'category3/CS4.png' width = '70%;'></div></div>","null","pos","CS","CS","3","category3/CS4.png","","","","",""
"","html-keyboard-response","57","310889","0.0-6.0-4.0-0.9","zszt1vu065","many_one","0","direct_first","1","rt07ip21","0","24","1","1","3","1","Es wäre schön gewesen, am Ende noch die Bedeutung der Schriftzeichen zu erläutern. Aber an sich eine sehr interessante Studie.","0","1","0","null","","","<div class = 'row'><div class = 'column'><img src = 'usneg/6020.bmp' width = '100%;'></div><div class = 'column'><img src = 'category4/CS8.png' width = '70%;'></div></div>","null","neg","CS","CS","4","category4/CS8.png","","","","",""
"","html-keyboard-response","58","313397","0.0-6.0-4.0-0.10","zszt1vu065","many_one","0","direct_first","1","rt07ip21","0","24","1","1","3","1","Es wäre schön gewesen, am Ende noch die Bedeutung der Schriftzeichen zu erläutern. Aber an sich eine sehr interessante Studie.","0","1","0","null","","","<div class = 'row'><div class = 'column'><img src = 'category4/CS4.png' width = '70%;'></div><div class = 'column'><img src = 'usneg/9421.bmp' width = '100%;'></div></div>","null","neg","CS","CS","4","category4/CS4.png","","","","",""
"","html-keyboard-response","59","315906","0.0-6.0-4.0-0.11","zszt1vu065","many_one","0","direct_first","1","rt07ip21","0","24","1","1","3","1","Es wäre schön gewesen, am Ende noch die Bedeutung der Schriftzeichen zu erläutern. Aber an sich eine sehr interessante Studie.","0","1","0","null","","","<div class = 'row'><div class = 'column'><img src = 'usneg/9635.2.bmp' width = '100%;'></div><div class = 'column'><img src = 'category2/CS1.png' width = '70%;'></div></div>","null","neg","CS","CS","2","category2/CS1.png","","","","",""
"","html-keyboard-response","60","318425","0.0-6.0-4.0-0.12","zszt1vu065","many_one","0","direct_first","1","rt07ip21","0","24","1","1","3","1","Es wäre schön gewesen, am Ende noch die Bedeutung der Schriftzeichen zu erläutern. Aber an sich eine sehr interessante Studie.","0","1","0","null","","","<div class = 'row'><div class = 'column'><img src = 'category4/CS10.png' width = '70%;'></div><div class = 'column'><img src = 'usneg/9920.bmp' width = '100%;'></div></div>","null","neg","CS","CS","4","category4/CS10.png","","","","",""
"","html-keyboard-response","61","320957","0.0-6.0-4.0-0.13","zszt1vu065","many_one","0","direct_first","1","rt07ip21","0","24","1","1","3","1","Es wäre schön gewesen, am Ende noch die Bedeutung der Schriftzeichen zu erläutern. Aber an sich eine sehr interessante Studie.","0","1","0","null","","","<div class = 'row'><div class = 'column'><img src = 'uspos/2550.bmp' width = '100%;'></div><div class = 'column'><img src = 'category1/CS4.png' width = '70%;'></div></div>","null","pos","CS","CS","1","category1/CS4.png","","","","",""
"","html-keyboard-response","62","323461","0.0-6.0-4.0-0.14","zszt1vu065","many_one","0","direct_first","1","rt07ip21","0","24","1","1","3","1","Es wäre schön gewesen, am Ende noch die Bedeutung der Schriftzeichen zu erläutern. Aber an sich eine sehr interessante Studie.","0","1","0","null","","","<div class = 'row'><div class = 'column'><img src = 'uspos/1460.bmp' width = '100%;'></div><div class = 'column'><img src = 'category3/CS9.png' width = '70%;'></div></div>","null","pos","CS","CS","3","category3/CS9.png","","","","",""
"","html-keyboard-response","63","325972","0.0-6.0-4.0-0.15","zszt1vu065","many_one","0","direct_first","1","rt07ip21","0","24","1","1","3","1","Es wäre schön gewesen, am Ende noch die Bedeutung der Schriftzeichen zu erläutern. Aber an sich eine sehr interessante Studie.","0","1","0","null","","","<div class = 'row'><div class = 'column'><img src = 'uspos/8080.bmp' width = '100%;'></div><div class = 'column'><img src = 'category3/CS3.png' width = '70%;'></div></div>","null","pos","CS","CS","3","category3/CS3.png","","","","",""
"","html-keyboard-response","64","328481","0.0-6.0-4.0-0.16","zszt1vu065","many_one","0","direct_first","1","rt07ip21","0","24","1","1","3","1","Es wäre schön gewesen, am Ende noch die Bedeutung der Schriftzeichen zu erläutern. Aber an sich eine sehr interessante Studie.","0","1","0","null","","","<div class = 'row'><div class = 'column'><img src = 'category1/CS6.png' width = '70%;'></div><div class = 'column'><img src = 'uspos/2040.bmp' width = '100%;'></div></div>","null","pos","CS","CS","1","category1/CS6.png","","","","",""
"","html-keyboard-response","65","330994","0.0-6.0-4.0-0.17","zszt1vu065","many_one","0","direct_first","1","rt07ip21","0","24","1","1","3","1","Es wäre schön gewesen, am Ende noch die Bedeutung der Schriftzeichen zu erläutern. Aber an sich eine sehr interessante Studie.","0","1","0","null","","","<div class = 'row'><div class = 'column'><img src = 'usneg/7380.bmp' width = '100%;'></div><div class = 'column'><img src = 'category4/CS7.png' width = '70%;'></div></div>","null","neg","CS","CS","4","category4/CS7.png","","","","",""
"","html-keyboard-response","66","333502","0.0-6.0-4.0-0.18","zszt1vu065","many_one","0","direct_first","1","rt07ip21","0","24","1","1","3","1","Es wäre schön gewesen, am Ende noch die Bedeutung der Schriftzeichen zu erläutern. Aber an sich eine sehr interessante Studie.","0","1","0","null","","","<div class = 'row'><div class = 'column'><img src = 'category1/CS9.png' width = '70%;'></div><div class = 'column'><img src = 'uspos/2165.bmp' width = '100%;'></div></div>","null","pos","CS","CS","1","category1/CS9.png","","","","",""
"","html-keyboard-response","67","336011","0.0-6.0-4.0-0.19","zszt1vu065","many_one","0","direct_first","1","rt07ip21","0","24","1","1","3","1","Es wäre schön gewesen, am Ende noch die Bedeutung der Schriftzeichen zu erläutern. Aber an sich eine sehr interessante Studie.","0","1","0","null","","","<div class = 'row'><div class = 'column'><img src = 'category2/CS5.png' width = '70%;'></div><div class = 'column'><img src = 'usneg/3300.bmp' width = '100%;'></div></div>","null","neg","CS","CS","2","category2/CS5.png","","","","",""
"","survey-html-form","68","343714","0.0-6.0-5.0","zszt1vu065","many_one","0","direct_first","1","rt07ip21","0","24","1","1","3","1","Es wäre schön gewesen, am Ende noch die Bedeutung der Schriftzeichen zu erläutern. Aber an sich eine sehr interessante Studie.","0","1","0","7196.229999884963","","{}","","","","","","","","","","","",""
"","html-keyboard-response","69","347725","0.0-6.0-6.0-0.0","zszt1vu065","many_one","0","direct_first","1","rt07ip21","0","24","1","1","3","1","Es wäre schön gewesen, am Ende noch die Bedeutung der Schriftzeichen zu erläutern. Aber an sich eine sehr interessante Studie.","0","1","0","null","","","<div class = 'row'><div class = 'column'><img src = 'usneg/2141.bmp' width = '100%;'></div><div class = 'column'><img src = 'category4/CS9.png' width = '70%;'></div></div>","null","neg","CS","CS","4","category4/CS9.png","","","","",""
"","html-keyboard-response","70","350234","0.0-6.0-6.0-0.1","zszt1vu065","many_one","0","direct_first","1","rt07ip21","0","24","1","1","3","1","Es wäre schön gewesen, am Ende noch die Bedeutung der Schriftzeichen zu erläutern. Aber an sich eine sehr interessante Studie.","0","1","0","null","","","<div class = 'row'><div class = 'column'><img src = 'usneg/3300.bmp' width = '100%;'></div><div class = 'column'><img src = 'category2/CS5.png' width = '70%;'></div></div>","null","neg","CS","CS","2","category2/CS5.png","","","","",""
"","html-keyboard-response","71","352748","0.0-6.0-6.0-0.2","zszt1vu065","many_one","0","direct_first","1","rt07ip21","0","24","1","1","3","1","Es wäre schön gewesen, am Ende noch die Bedeutung der Schriftzeichen zu erläutern. Aber an sich eine sehr interessante Studie.","0","1","0","null","","","<div class = 'row'><div class = 'column'><img src = 'category1/CS5.png' width = '70%;'></div><div class = 'column'><img src = 'uspos/8461.bmp' width = '100%;'></div></div>","null","pos","CS","CS","1","category1/CS5.png","","","","",""
"","html-keyboard-response","72","355260","0.0-6.0-6.0-0.3","zszt1vu065","many_one","0","direct_first","1","rt07ip21","0","24","1","1","3","1","Es wäre schön gewesen, am Ende noch die Bedeutung der Schriftzeichen zu erläutern. Aber an sich eine sehr interessante Studie.","0","1","0","null","","","<div class = 'row'><div class = 'column'><img src = 'category1/CS7.png' width = '70%;'></div><div class = 'column'><img src = 'uspos/5470.bmp' width = '100%;'></div></div>","null","pos","CS","CS","1","category1/CS7.png","","","","",""
"","html-keyboard-response","73","357779","0.0-6.0-6.0-0.4","zszt1vu065","many_one","0","direct_first","1","rt07ip21","0","24","1","1","3","1","Es wäre schön gewesen, am Ende noch die Bedeutung der Schriftzeichen zu erläutern. Aber an sich eine sehr interessante Studie.","0","1","0","null","","","<div class = 'row'><div class = 'column'><img src = 'uspos/8080.bmp' width = '100%;'></div><div class = 'column'><img src = 'category3/CS3.png' width = '70%;'></div></div>","null","pos","CS","CS","3","category3/CS3.png","","","","",""
"","html-keyboard-response","74","360293","0.0-6.0-6.0-0.5","zszt1vu065","many_one","0","direct_first","1","rt07ip21","0","24","1","1","3","1","Es wäre schön gewesen, am Ende noch die Bedeutung der Schriftzeichen zu erläutern. Aber an sich eine sehr interessante Studie.","0","1","0","null","","","<div class = 'row'><div class = 'column'><img src = 'category2/CS6.png' width = '70%;'></div><div class = 'column'><img src = 'usneg/3160.bmp' width = '100%;'></div></div>","null","neg","CS","CS","2","category2/CS6.png","","","","",""
"","html-keyboard-response","75","362807","0.0-6.0-6.0-0.6","zszt1vu065","many_one","0","direct_first","1","rt07ip21","0","24","1","1","3","1","Es wäre schön gewesen, am Ende noch die Bedeutung der Schriftzeichen zu erläutern. Aber an sich eine sehr interessante Studie.","0","1","0","null","","","<div class = 'row'><div class = 'column'><img src = 'category1/CS9.png' width = '70%;'></div><div class = 'column'><img src = 'uspos/2165.bmp' width = '100%;'></div></div>","null","pos","CS","CS","1","category1/CS9.png","","","","",""
"","html-keyboard-response","76","365323","0.0-6.0-6.0-0.7","zszt1vu065","many_one","0","direct_first","1","rt07ip21","0","24","1","1","3","1","Es wäre schön gewesen, am Ende noch die Bedeutung der Schriftzeichen zu erläutern. Aber an sich eine sehr interessante Studie.","0","1","0","null","","","<div class = 'row'><div class = 'column'><img src = 'usneg/9421.bmp' width = '100%;'></div><div class = 'column'><img src = 'category4/CS4.png' width = '70%;'></div></div>","null","neg","CS","CS","4","category4/CS4.png","","","","",""
"","html-keyboard-response","77","367836","0.0-6.0-6.0-0.8","zszt1vu065","many_one","0","direct_first","1","rt07ip21","0","24","1","1","3","1","Es wäre schön gewesen, am Ende noch die Bedeutung der Schriftzeichen zu erläutern. Aber an sich eine sehr interessante Studie.","0","1","0","null","","","<div class = 'row'><div class = 'column'><img src = 'usneg/6020.bmp' width = '100%;'></div><div class = 'column'><img src = 'category4/CS8.png' width = '70%;'></div></div>","null","neg","CS","CS","4","category4/CS8.png","","","","",""
"","html-keyboard-response","78","370350","0.0-6.0-6.0-0.9","zszt1vu065","many_one","0","direct_first","1","rt07ip21","0","24","1","1","3","1","Es wäre schön gewesen, am Ende noch die Bedeutung der Schriftzeichen zu erläutern. Aber an sich eine sehr interessante Studie.","0","1","0","null","","","<div class = 'row'><div class = 'column'><img src = 'category3/CS1.png' width = '70%;'></div><div class = 'column'><img src = 'uspos/5830.bmp' width = '100%;'></div></div>","null","pos","CS","CS","3","category3/CS1.png","","","","",""
"","html-keyboard-response","79","372871","0.0-6.0-6.0-0.10","zszt1vu065","many_one","0","direct_first","1","rt07ip21","0","24","1","1","3","1","Es wäre schön gewesen, am Ende noch die Bedeutung der Schriftzeichen zu erläutern. Aber an sich eine sehr interessante Studie.","0","1","0","null","","","<div class = 'row'><div class = 'column'><img src = 'category3/CS4.png' width = '70%;'></div><div class = 'column'><img src = 'uspos/8490.bmp' width = '100%;'></div></div>","null","pos","CS","CS","3","category3/CS4.png","","","","",""
"","html-keyboard-response","80","375389","0.0-6.0-6.0-0.11","zszt1vu065","many_one","0","direct_first","1","rt07ip21","0","24","1","1","3","1","Es wäre schön gewesen, am Ende noch die Bedeutung der Schriftzeichen zu erläutern. Aber an sich eine sehr interessante Studie.","0","1","0","null","","","<div class = 'row'><div class = 'column'><img src = 'category3/CS8.png' width = '70%;'></div><div class = 'column'><img src = 'uspos/2058.bmp' width = '100%;'></div></div>","null","pos","CS","CS","3","category3/CS8.png","","","","",""
"","html-keyboard-response","81","377902","0.0-6.0-6.0-0.12","zszt1vu065","many_one","0","direct_first","1","rt07ip21","0","24","1","1","3","1","Es wäre schön gewesen, am Ende noch die Bedeutung der Schriftzeichen zu erläutern. Aber an sich eine sehr interessante Studie.","0","1","0","null","","","<div class = 'row'><div class = 'column'><img src = 'uspos/2040.bmp' width = '100%;'></div><div class = 'column'><img src = 'category1/CS6.png' width = '70%;'></div></div>","null","pos","CS","CS","1","category1/CS6.png","","","","",""
"","html-keyboard-response","82","380417","0.0-6.0-6.0-0.13","zszt1vu065","many_one","0","direct_first","1","rt07ip21","0","24","1","1","3","1","Es wäre schön gewesen, am Ende noch die Bedeutung der Schriftzeichen zu erläutern. Aber an sich eine sehr interessante Studie.","0","1","0","null","","","<div class = 'row'><div class = 'column'><img src = 'usneg/7380.bmp' width = '100%;'></div><div class = 'column'><img src = 'category4/CS7.png' width = '70%;'></div></div>","null","neg","CS","CS","4","category4/CS7.png","","","","",""
"","html-keyboard-response","83","382929","0.0-6.0-6.0-0.14","zszt1vu065","many_one","0","direct_first","1","rt07ip21","0","24","1","1","3","1","Es wäre schön gewesen, am Ende noch die Bedeutung der Schriftzeichen zu erläutern. Aber an sich eine sehr interessante Studie.","0","1","0","null","","","<div class = 'row'><div class = 'column'><img src = 'usneg/9635.2.bmp' width = '100%;'></div><div class = 'column'><img src = 'category2/CS1.png' width = '70%;'></div></div>","null","neg","CS","CS","2","category2/CS1.png","","","","",""
"","html-keyboard-response","84","385441","0.0-6.0-6.0-0.15","zszt1vu065","many_one","0","direct_first","1","rt07ip21","0","24","1","1","3","1","Es wäre schön gewesen, am Ende noch die Bedeutung der Schriftzeichen zu erläutern. Aber an sich eine sehr interessante Studie.","0","1","0","null","","","<div class = 'row'><div class = 'column'><img src = 'uspos/1460.bmp' width = '100%;'></div><div class = 'column'><img src = 'category3/CS9.png' width = '70%;'></div></div>","null","pos","CS","CS","3","category3/CS9.png","","","","",""
"","html-keyboard-response","85","387962","0.0-6.0-6.0-0.16","zszt1vu065","many_one","0","direct_first","1","rt07ip21","0","24","1","1","3","1","Es wäre schön gewesen, am Ende noch die Bedeutung der Schriftzeichen zu erläutern. Aber an sich eine sehr interessante Studie.","0","1","0","null","","","<div class = 'row'><div class = 'column'><img src = 'usneg/9182.bmp' width = '100%;'></div><div class = 'column'><img src = 'category2/CS8.png' width = '70%;'></div></div>","null","neg","CS","CS","2","category2/CS8.png","","","","",""
"","html-keyboard-response","86","390467","0.0-6.0-6.0-0.17","zszt1vu065","many_one","0","direct_first","1","rt07ip21","0","24","1","1","3","1","Es wäre schön gewesen, am Ende noch die Bedeutung der Schriftzeichen zu erläutern. Aber an sich eine sehr interessante Studie.","0","1","0","null","","","<div class = 'row'><div class = 'column'><img src = 'category2/CS2.png' width = '70%;'></div><div class = 'column'><img src = 'usneg/9561.bmp' width = '100%;'></div></div>","null","neg","CS","CS","2","category2/CS2.png","","","","",""
"","html-keyboard-response","87","392980","0.0-6.0-6.0-0.18","zszt1vu065","many_one","0","direct_first","1","rt07ip21","0","24","1","1","3","1","Es wäre schön gewesen, am Ende noch die Bedeutung der Schriftzeichen zu erläutern. Aber an sich eine sehr interessante Studie.","0","1","0","null","","","<div class = 'row'><div class = 'column'><img src = 'category1/CS4.png' width = '70%;'></div><div class = 'column'><img src = 'uspos/2550.bmp' width = '100%;'></div></div>","null","pos","CS","CS","1","category1/CS4.png","","","","",""
"","html-keyboard-response","88","395496","0.0-6.0-6.0-0.19","zszt1vu065","many_one","0","direct_first","1","rt07ip21","0","24","1","1","3","1","Es wäre schön gewesen, am Ende noch die Bedeutung der Schriftzeichen zu erläutern. Aber an sich eine sehr interessante Studie.","0","1","0","null","","","<div class = 'row'><div class = 'column'><img src = 'category4/CS10.png' width = '70%;'></div><div class = 'column'><img src = 'usneg/9920.bmp' width = '100%;'></div></div>","null","neg","CS","CS","4","category4/CS10.png","","","","",""
"","survey-html-form","89","400827","0.0-7.0","zszt1vu065","many_one","0","direct_first","1","rt07ip21","0","24","1","1","3","1","Es wäre schön gewesen, am Ende noch die Bedeutung der Schriftzeichen zu erläutern. Aber an sich eine sehr interessante Studie.","0","1","0","4829.105000011623","","{}","","","","","","","","","","","",""
"","image-slider-response","90","410436","0.0-8.0-0.0","zszt1vu065","many_one","0","direct_first","1","rt07ip21","0","24","1","1","3","1","Es wäre schön gewesen, am Ende noch die Bedeutung der Schriftzeichen zu erläutern. Aber an sich eine sehr interessante Studie.","0","1","0","7600.009999936447","","","","","pos","CS","CS","1","category1/CS4.png","100","targets/32.png","direct","",""
"","image-slider-response","91","417505","0.0-8.0-0.1","zszt1vu065","many_one","0","direct_first","1","rt07ip21","0","24","1","1","3","1","Es wäre schön gewesen, am Ende noch die Bedeutung der Schriftzeichen zu erläutern. Aber an sich eine sehr interessante Studie.","0","1","0","7066.4749999996275","","","","","neg","GS","GSold","4","category4/CS5.png","-64","targets/12.png","direct","",""
"","image-slider-response","92","419744","0.0-8.0-0.2","zszt1vu065","many_one","0","direct_first","1","rt07ip21","0","24","1","1","3","1","Es wäre schön gewesen, am Ende noch die Bedeutung der Schriftzeichen zu erläutern. Aber an sich eine sehr interessante Studie.","0","1","0","2237.245000200346","","","","","neg","GS","GSnew","4","category4/GS1.png","26","targets/11.png","direct","",""
"","image-slider-response","93","422613","0.0-8.0-0.3","zszt1vu065","many_one","0","direct_first","1","rt07ip21","0","24","1","1","3","1","Es wäre schön gewesen, am Ende noch die Bedeutung der Schriftzeichen zu erläutern. Aber an sich eine sehr interessante Studie.","0","1","0","2867.2350000124425","","","","","pos","CS","CS","3","category3/CS3.png","100","targets/8.png","direct","",""
"","image-slider-response","94","427263","0.0-8.0-0.4","zszt1vu065","many_one","0","direct_first","1","rt07ip21","0","24","1","1","3","1","Es wäre schön gewesen, am Ende noch die Bedeutung der Schriftzeichen zu erläutern. Aber an sich eine sehr interessante Studie.","0","1","0","4647.6000000257045","","","","","pos","CS","CS","3","category3/CS4.png","100","targets/3.png","direct","",""
"","image-slider-response","95","430574","0.0-8.0-0.5","zszt1vu065","many_one","0","direct_first","1","rt07ip21","0","24","1","1","3","1","Es wäre schön gewesen, am Ende noch die Bedeutung der Schriftzeichen zu erläutern. Aber an sich eine sehr interessante Studie.","0","1","0","3308.8400000706315","","","","","pos","CS","CS","3","category3/CS8.png","61","targets/14.png","direct","",""
"","image-slider-response","96","437362","0.0-8.0-0.6","zszt1vu065","many_one","0","direct_first","1","rt07ip21","0","24","1","1","3","1","Es wäre schön gewesen, am Ende noch die Bedeutung der Schriftzeichen zu erläutern. Aber an sich eine sehr interessante Studie.","0","1","0","6785.655000014231","","","","","neg","CS","CS","4","category4/CS4.png","-36","targets/23.png","direct","",""
"","image-slider-response","97","441353","0.0-8.0-0.7","zszt1vu065","many_one","0","direct_first","1","rt07ip21","0","24","1","1","3","1","Es wäre schön gewesen, am Ende noch die Bedeutung der Schriftzeichen zu erläutern. Aber an sich eine sehr interessante Studie.","0","1","0","3995.389999821782","","","","","neg","CS","CS","2","category2/CS5.png","-100","targets/18.png","direct","",""
"","image-slider-response","98","443854","0.0-8.0-0.8","zszt1vu065","many_one","0","direct_first","1","rt07ip21","0","24","1","1","3","1","Es wäre schön gewesen, am Ende noch die Bedeutung der Schriftzeichen zu erläutern. Aber an sich eine sehr interessante Studie.","0","1","0","2498.3699999284","","","","","neg","CS","CS","4","category4/CS7.png","-36","targets/7.png","direct","",""
"","image-slider-response","99","449668","0.0-8.0-0.9","zszt1vu065","many_one","0","direct_first","1","rt07ip21","0","24","1","1","3","1","Es wäre schön gewesen, am Ende noch die Bedeutung der Schriftzeichen zu erläutern. Aber an sich eine sehr interessante Studie.","0","1","0","5811.514999950305","","","","","neg","GS","GSnew","2","category2/GS2.png","18","targets/1.png","direct","",""
"","image-slider-response","100","452453","0.0-8.0-0.10","zszt1vu065","many_one","0","direct_first","1","rt07ip21","0","24","1","1","3","1","Es wäre schön gewesen, am Ende noch die Bedeutung der Schriftzeichen zu erläutern. Aber an sich eine sehr interessante Studie.","0","1","0","2782.0999999530613","","","","","neg","CS","CS","2","category2/CS2.png","-100","targets/43.png","direct","",""
"","image-slider-response","101","455177","0.0-8.0-0.11","zszt1vu065","many_one","0","direct_first","1","rt07ip21","0","24","1","1","3","1","Es wäre schön gewesen, am Ende noch die Bedeutung der Schriftzeichen zu erläutern. Aber an sich eine sehr interessante Studie.","0","1","0","2721.6600000392646","","","","","neg","GS","GSold","4","category4/CS3.png","21","targets/10.png","direct","",""
"","image-slider-response","102","457595","0.0-8.0-0.12","zszt1vu065","many_one","0","direct_first","1","rt07ip21","0","24","1","1","3","1","Es wäre schön gewesen, am Ende noch die Bedeutung der Schriftzeichen zu erläutern. Aber an sich eine sehr interessante Studie.","0","1","0","2416.854999959469","","","","","neg","GS","GSold","4","category4/CS6.png","51","targets/45.png","direct","",""
"","image-slider-response","103","460276","0.0-8.0-0.13","zszt1vu065","many_one","0","direct_first","1","rt07ip21","0","24","1","1","3","1","Es wäre schön gewesen, am Ende noch die Bedeutung der Schriftzeichen zu erläutern. Aber an sich eine sehr interessante Studie.","0","1","0","2677.8599999379367","","","","","pos","GS","GSnew","3","category3/GS3.png","100","targets/25.png","direct","",""
"","image-slider-response","104","465229","0.0-8.0-0.14","zszt1vu065","many_one","0","direct_first","1","rt07ip21","0","24","1","1","3","1","Es wäre schön gewesen, am Ende noch die Bedeutung der Schriftzeichen zu erläutern. Aber an sich eine sehr interessante Studie.","0","1","0","4951.894999947399","","","","","neg","GS","GSnew","4","category4/GS3.png","-34","targets/47.png","direct","",""
"","image-slider-response","105","472895","0.0-8.0-0.15","zszt1vu065","many_one","0","direct_first","1","rt07ip21","0","24","1","1","3","1","Es wäre schön gewesen, am Ende noch die Bedeutung der Schriftzeichen zu erläutern. Aber an sich eine sehr interessante Studie.","0","1","0","7663.450000109151","","","","","pos","CS","CS","1","category1/CS7.png","100","targets/35.png","direct","",""
"","image-slider-response","106","476395","0.0-8.0-0.16","zszt1vu065","many_one","0","direct_first","1","rt07ip21","0","24","1","1","3","1","Es wäre schön gewesen, am Ende noch die Bedeutung der Schriftzeichen zu erläutern. Aber an sich eine sehr interessante Studie.","0","1","0","3496.470000129193","","","","","pos","GS","GSold","3","category3/CS5.png","100","targets/28.png","direct","",""
"","image-slider-response","107","478785","0.0-8.0-0.17","zszt1vu065","many_one","0","direct_first","1","rt07ip21","0","24","1","1","3","1","Es wäre schön gewesen, am Ende noch die Bedeutung der Schriftzeichen zu erläutern. Aber an sich eine sehr interessante Studie.","0","1","0","2388.4700001217425","","","","","neg","CS","CS","2","category2/CS6.png","-100","targets/21.png","direct","",""
"","image-slider-response","108","483505","0.0-8.0-0.18","zszt1vu065","many_one","0","direct_first","1","rt07ip21","0","24","1","1","3","1","Es wäre schön gewesen, am Ende noch die Bedeutung der Schriftzeichen zu erläutern. Aber an sich eine sehr interessante Studie.","0","1","0","4718.330000061542","","","","","neg","GS","abstract","2","category2/men.png","-28","targets/17.png","direct","",""
"","image-slider-response","109","485885","0.0-8.0-0.19","zszt1vu065","many_one","0","direct_first","1","rt07ip21","0","24","1","1","3","1","Es wäre schön gewesen, am Ende noch die Bedeutung der Schriftzeichen zu erläutern. Aber an sich eine sehr interessante Studie.","0","1","0","2378.2699999865144","","","","","neg","CS","CS","4","category4/CS10.png","10","targets/40.png","direct","",""
"","image-slider-response","110","489256","0.0-8.0-0.20","zszt1vu065","many_one","0","direct_first","1","rt07ip21","0","24","1","1","3","1","Es wäre schön gewesen, am Ende noch die Bedeutung der Schriftzeichen zu erläutern. Aber an sich eine sehr interessante Studie.","0","1","0","3369.5449999067932","","","","","pos","GS","GSnew","1","category1/GS1.png","-32","targets/33.png","direct","",""
"","image-slider-response","111","492298","0.0-8.0-0.21","zszt1vu065","many_one","0","direct_first","1","rt07ip21","0","24","1","1","3","1","Es wäre schön gewesen, am Ende noch die Bedeutung der Schriftzeichen zu erläutern. Aber an sich eine sehr interessante Studie.","0","1","0","3039.2450001090765","","","","","neg","CS","CS","2","category2/CS8.png","-100","targets/39.png","direct","",""
"","image-slider-response","112","494398","0.0-8.0-0.22","zszt1vu065","many_one","0","direct_first","1","rt07ip21","0","24","1","1","3","1","Es wäre schön gewesen, am Ende noch die Bedeutung der Schriftzeichen zu erläutern. Aber an sich eine sehr interessante Studie.","0","1","0","2098.3049999922514","","","","","pos","GS","GSnew","1","category1/GS3.png","13","targets/22.png","direct","",""
"","image-slider-response","113","498325","0.0-8.0-0.23","zszt1vu065","many_one","0","direct_first","1","rt07ip21","0","24","1","1","3","1","Es wäre schön gewesen, am Ende noch die Bedeutung der Schriftzeichen zu erläutern. Aber an sich eine sehr interessante Studie.","0","1","0","3918.0499999783933","","","","","neg","GS","GSnew","2","category2/GS1.png","34","targets/38.png","direct","",""
"","image-slider-response","114","502658","0.0-8.0-0.24","zszt1vu065","many_one","0","direct_first","1","rt07ip21","0","24","1","1","3","1","Es wäre schön gewesen, am Ende noch die Bedeutung der Schriftzeichen zu erläutern. Aber an sich eine sehr interessante Studie.","0","1","0","4330.714999930933","","","","","neg","GS","abstract","4","category4/lin.png","15","targets/46.png","direct","",""
"","image-slider-response","115","505622","0.0-8.0-0.25","zszt1vu065","many_one","0","direct_first","1","rt07ip21","0","24","1","1","3","1","Es wäre schön gewesen, am Ende noch die Bedeutung der Schriftzeichen zu erläutern. Aber an sich eine sehr interessante Studie.","0","1","0","2961.580000119284","","","","","pos","CS","CS","1","category1/CS9.png","54","targets/26.png","direct","",""
"","image-slider-response","116","509032","0.0-8.0-0.26","zszt1vu065","many_one","0","direct_first","1","rt07ip21","0","24","1","1","3","1","Es wäre schön gewesen, am Ende noch die Bedeutung der Schriftzeichen zu erläutern. Aber an sich eine sehr interessante Studie.","0","1","0","3407.1250001434237","","","","","pos","GS","abstract","1","category1/ma.png","12","targets/19.png","direct","",""
"","image-slider-response","117","513565","0.0-8.0-0.27","zszt1vu065","many_one","0","direct_first","1","rt07ip21","0","24","1","1","3","1","Es wäre schön gewesen, am Ende noch die Bedeutung der Schriftzeichen zu erläutern. Aber an sich eine sehr interessante Studie.","0","1","0","4531.179999932647","","","","","neg","CS","CS","4","category4/CS8.png","-55","targets/2.png","direct","",""
"","image-slider-response","118","517944","0.0-8.0-0.28","zszt1vu065","many_one","0","direct_first","1","rt07ip21","0","24","1","1","3","1","Es wäre schön gewesen, am Ende noch die Bedeutung der Schriftzeichen zu erläutern. Aber an sich eine sehr interessante Studie.","0","1","0","4376.7549998592585","","","","","neg","CS","CS","2","category2/CS1.png","-100","targets/27.png","direct","",""
"","image-slider-response","119","520966","0.0-8.0-0.29","zszt1vu065","many_one","0","direct_first","1","rt07ip21","0","24","1","1","3","1","Es wäre schön gewesen, am Ende noch die Bedeutung der Schriftzeichen zu erläutern. Aber an sich eine sehr interessante Studie.","0","1","0","3018.730000127107","","","","","pos","GS","GSold","3","category3/CS6.png","100","targets/48.png","direct","",""
"","image-slider-response","120","523135","0.0-8.0-0.30","zszt1vu065","many_one","0","direct_first","1","rt07ip21","0","24","1","1","3","1","Es wäre schön gewesen, am Ende noch die Bedeutung der Schriftzeichen zu erläutern. Aber an sich eine sehr interessante Studie.","0","1","0","2167.509999824688","","","","","pos","GS","GSold","3","category3/CS10.png","100","targets/30.png","direct","",""
"","image-slider-response","121","525180","0.0-8.0-0.31","zszt1vu065","many_one","0","direct_first","1","rt07ip21","0","24","1","1","3","1","Es wäre schön gewesen, am Ende noch die Bedeutung der Schriftzeichen zu erläutern. Aber an sich eine sehr interessante Studie.","0","1","0","2042.72500006482","","","","","pos","GS","GSnew","1","category1/GS2.png","23","targets/24.png","direct","",""
"","image-slider-response","122","527847","0.0-8.0-0.32","zszt1vu065","many_one","0","direct_first","1","rt07ip21","0","24","1","1","3","1","Es wäre schön gewesen, am Ende noch die Bedeutung der Schriftzeichen zu erläutern. Aber an sich eine sehr interessante Studie.","0","1","0","2665.2299999259412","","","","","pos","GS","abstract","3","category3/wang.png","100","targets/41.png","direct","",""
"","image-slider-response","123","531297","0.0-8.0-0.33","zszt1vu065","many_one","0","direct_first","1","rt07ip21","0","24","1","1","3","1","Es wäre schön gewesen, am Ende noch die Bedeutung der Schriftzeichen zu erläutern. Aber an sich eine sehr interessante Studie.","0","1","0","3448.240000056103","","","","","pos","GS","GSold","1","category1/CS2.png","52","targets/20.png","direct","",""
"","image-slider-response","124","539489","0.0-8.0-0.34","zszt1vu065","many_one","0","direct_first","1","rt07ip21","0","24","1","1","3","1","Es wäre schön gewesen, am Ende noch die Bedeutung der Schriftzeichen zu erläutern. Aber an sich eine sehr interessante Studie.","0","1","0","8189.9350001476705","","","","","neg","GS","GSold","2","category2/CS3.png","-100","targets/42.png","direct","",""
"","image-slider-response","125","542893","0.0-8.0-0.35","zszt1vu065","many_one","0","direct_first","1","rt07ip21","0","24","1","1","3","1","Es wäre schön gewesen, am Ende noch die Bedeutung der Schriftzeichen zu erläutern. Aber an sich eine sehr interessante Studie.","0","1","0","3401.2450000736862","","","","","neg","GS","GSold","2","category2/CS10.png","-100","targets/5.png","direct","",""
"","image-slider-response","126","545158","0.0-8.0-0.36","zszt1vu065","many_one","0","direct_first","1","rt07ip21","0","24","1","1","3","1","Es wäre schön gewesen, am Ende noch die Bedeutung der Schriftzeichen zu erläutern. Aber an sich eine sehr interessante Studie.","0","1","0","2263.1650001276284","","","","","neg","CS","CS","4","category4/CS9.png","17","targets/6.png","direct","",""
"","image-slider-response","127","550266","0.0-8.0-0.37","zszt1vu065","many_one","0","direct_first","1","rt07ip21","0","24","1","1","3","1","Es wäre schön gewesen, am Ende noch die Bedeutung der Schriftzeichen zu erläutern. Aber an sich eine sehr interessante Studie.","0","1","0","5105.355000123382","","","","","neg","GS","GSnew","4","category4/GS2.png","24","targets/37.png","direct","",""
"","image-slider-response","128","553101","0.0-8.0-0.38","zszt1vu065","many_one","0","direct_first","1","rt07ip21","0","24","1","1","3","1","Es wäre schön gewesen, am Ende noch die Bedeutung der Schriftzeichen zu erläutern. Aber an sich eine sehr interessante Studie.","0","1","0","2832.694999873638","","","","","pos","CS","CS","3","category3/CS9.png","100","targets/36.png","direct","",""
"","image-slider-response","129","555469","0.0-8.0-0.39","zszt1vu065","many_one","0","direct_first","1","rt07ip21","0","24","1","1","3","1","Es wäre schön gewesen, am Ende noch die Bedeutung der Schriftzeichen zu erläutern. Aber an sich eine sehr interessante Studie.","0","1","0","2365.8799999393523","","","","","pos","CS","CS","3","category3/CS1.png","100","targets/9.png","direct","",""
"","image-slider-response","130","557604","0.0-8.0-0.40","zszt1vu065","many_one","0","direct_first","1","rt07ip21","0","24","1","1","3","1","Es wäre schön gewesen, am Ende noch die Bedeutung der Schriftzeichen zu erläutern. Aber an sich eine sehr interessante Studie.","0","1","0","2133.0999999772757","","","","","pos","GS","GSold","1","category1/CS8.png","75","targets/15.png","direct","",""
"","image-slider-response","131","560683","0.0-8.0-0.41","zszt1vu065","many_one","0","direct_first","1","rt07ip21","0","24","1","1","3","1","Es wäre schön gewesen, am Ende noch die Bedeutung der Schriftzeichen zu erläutern. Aber an sich eine sehr interessante Studie.","0","1","0","3081.9200000260025","","","","","pos","GS","GSnew","3","category3/GS2.png","-50","targets/4.png","direct","",""
"","image-slider-response","132","563298","0.0-8.0-0.42","zszt1vu065","many_one","0","direct_first","1","rt07ip21","0","24","1","1","3","1","Es wäre schön gewesen, am Ende noch die Bedeutung der Schriftzeichen zu erläutern. Aber an sich eine sehr interessante Studie.","0","1","0","2612.195000052452","","","","","pos","CS","CS","1","category1/CS5.png","27","targets/44.png","direct","",""
"","image-slider-response","133","566228","0.0-8.0-0.43","zszt1vu065","many_one","0","direct_first","1","rt07ip21","0","24","1","1","3","1","Es wäre schön gewesen, am Ende noch die Bedeutung der Schriftzeichen zu erläutern. Aber an sich eine sehr interessante Studie.","0","1","0","2928.279999876395","","","","","neg","GS","GSold","2","category2/CS9.png","-99","targets/29.png","direct","",""
"","image-slider-response","134","569695","0.0-8.0-0.44","zszt1vu065","many_one","0","direct_first","1","rt07ip21","0","24","1","1","3","1","Es wäre schön gewesen, am Ende noch die Bedeutung der Schriftzeichen zu erläutern. Aber an sich eine sehr interessante Studie.","0","1","0","3463.980000000447","","","","","pos","GS","GSnew","3","category3/GS1.png","38","targets/34.png","direct","",""
"","image-slider-response","135","576534","0.0-8.0-0.45","zszt1vu065","many_one","0","direct_first","1","rt07ip21","0","24","1","1","3","1","Es wäre schön gewesen, am Ende noch die Bedeutung der Schriftzeichen zu erläutern. Aber an sich eine sehr interessante Studie.","0","1","0","6837.035000091419","","","","","neg","GS","GSnew","2","category2/GS3.png","-38","targets/31.png","direct","",""
"","image-slider-response","136","580026","0.0-8.0-0.46","zszt1vu065","many_one","0","direct_first","1","rt07ip21","0","24","1","1","3","1","Es wäre schön gewesen, am Ende noch die Bedeutung der Schriftzeichen zu erläutern. Aber an sich eine sehr interessante Studie.","0","1","0","3489.564999938011","","","","","pos","GS","GSold","1","category1/CS3.png","83","targets/16.png","direct","",""
"","image-slider-response","137","584567","0.0-8.0-0.47","zszt1vu065","many_one","0","direct_first","1","rt07ip21","0","24","1","1","3","1","Es wäre schön gewesen, am Ende noch die Bedeutung der Schriftzeichen zu erläutern. Aber an sich eine sehr interessante Studie.","0","1","0","4538.21499994956","","","","","pos","CS","CS","1","category1/CS6.png","15","targets/13.png","direct","",""
"","html-keyboard-response","138","596983","0.0-9.0","zszt1vu065","many_one","0","direct_first","1","rt07ip21","0","24","1","1","3","1","Es wäre schön gewesen, am Ende noch die Bedeutung der Schriftzeichen zu erläutern. Aber an sich eine sehr interessante Studie.","0","1","0","12414.080000016838","","","<p>Sie sehen nun die chinesischen Zeichen nur ganz kurz. Danach sehen Sie die jeweilige Aussprache der Zeichen als Silbe auf dem Bildschrim. Ihre Aufgabe ist es, für jede Silbe anzugeben, ob diese etwas angenehmes, oder unangenehmes bedeuten könnte. Verlassen Sie sich hier vor allem auf Ihre Intuition.<br><br>Die Zeichen werden nur zur Orientierung dargestellt, beachten Sie sie deshalb nicht. Konzentrieren Sie sich vor allem auf die Silben. <br>Reagieren Sie mit folgenden zwei Tasten: <br><br><b>'D' </b> wenn die Silbe etwas <b>unangenehmes</b> bedeuten könnte. <br><b>'K'</b> wenn die Silbe etwas <b>angenehmes</b> bedeuten könnte. <br><br>Bitte legen Sie nun den Zeigefinger der linken Hand auf die Taste 'D' und den Zeigefinger der rechten Hand auf die Taste 'K'. <br>Reagieren Sie auf jede Silbe so schnell wie möglich. Uns interessiert Ihre spontane Reaktion. <br> <br> <br>Drücken Sie 'D' oder 'K', um die nächste Aufgabe zu starten. </p>","75","","","","","","","","","",""
"","html-keyboard-response","139","599988","0.0-10.0-0.0","zszt1vu065","many_one","0","direct_first","1","rt07ip21","0","24","1","1","3","1","Es wäre schön gewesen, am Ende noch die Bedeutung der Schriftzeichen zu erläutern. Aber an sich eine sehr interessante Studie.","0","1","0","null","","","<div style=""font-size:60px;"">+</div>","null","","","","","","","","","",""
"","html-keyboard-response","140","600084","0.0-10.0-1.0","zszt1vu065","many_one","0","direct_first","1","rt07ip21","0","24","1","1","3","1","Es wäre schön gewesen, am Ende noch die Bedeutung der Schriftzeichen zu erläutern. Aber an sich eine sehr interessante Studie.","0","1","0","null","","","<img src = 'category4/CS7.png' width = '100%;'>","null","","","","","","","","","",""
"","html-keyboard-response","141","600344","0.0-10.0-2.0","zszt1vu065","many_one","0","direct_first","1","rt07ip21","0","24","1","1","3","1","Es wäre schön gewesen, am Ende noch die Bedeutung der Schriftzeichen zu erläutern. Aber an sich eine sehr interessante Studie.","0","1","0","null","","","<img src = 'targets/7.png' width = '100%;'>","null","","","","","","","","","",""
"","html-keyboard-response","142","605408","0.0-10.0-3.0","zszt1vu065","many_one","0","direct_first","1","rt07ip21","0","24","1","1","3","1","Es wäre schön gewesen, am Ende noch die Bedeutung der Schriftzeichen zu erläutern. Aber an sich eine sehr interessante Studie.","0","1","0","5062.820000108331","","","<img src = 'targets/mask.png' width = '100%;'>","75","neg","CS","CS","4","category4/CS7.png","","targets/7.png","indirect","1","0"
"","html-keyboard-response","143","606914","0.0-10.0-0.1","zszt1vu065","many_one","0","direct_first","1","rt07ip21","0","24","1","1","3","1","Es wäre schön gewesen, am Ende noch die Bedeutung der Schriftzeichen zu erläutern. Aber an sich eine sehr interessante Studie.","0","1","0","null","","","<div style=""font-size:60px;"">+</div>","null","","","","","","","","","",""
"","html-keyboard-response","144","607010","0.0-10.0-1.1","zszt1vu065","many_one","0","direct_first","1","rt07ip21","0","24","1","1","3","1","Es wäre schön gewesen, am Ende noch die Bedeutung der Schriftzeichen zu erläutern. Aber an sich eine sehr interessante Studie.","0","1","0","null","","","<img src = 'category2/CS5.png' width = '100%;'>","null","","","","","","","","","",""
"","html-keyboard-response","145","607265","0.0-10.0-2.1","zszt1vu065","many_one","0","direct_first","1","rt07ip21","0","24","1","1","3","1","Es wäre schön gewesen, am Ende noch die Bedeutung der Schriftzeichen zu erläutern. Aber an sich eine sehr interessante Studie.","0","1","0","null","","","<img src = 'targets/18.png' width = '100%;'>","null","","","","","","","","","",""
"","html-keyboard-response","146","607694","0.0-10.0-3.1","zszt1vu065","many_one","0","direct_first","1","rt07ip21","0","24","1","1","3","1","Es wäre schön gewesen, am Ende noch die Bedeutung der Schriftzeichen zu erläutern. Aber an sich eine sehr interessante Studie.","0","1","0","426.92999984137714","","","<img src = 'targets/mask.png' width = '100%;'>","68","neg","CS","CS","2","category2/CS5.png","","targets/18.png","indirect","0","1"
"","html-keyboard-response","147","609204","0.0-10.0-0.2","zszt1vu065","many_one","0","direct_first","1","rt07ip21","0","24","1","1","3","1","Es wäre schön gewesen, am Ende noch die Bedeutung der Schriftzeichen zu erläutern. Aber an sich eine sehr interessante Studie.","0","1","0","null","","","<div style=""font-size:60px;"">+</div>","null","","","","","","","","","",""
"","html-keyboard-response","148","609300","0.0-10.0-1.2","zszt1vu065","many_one","0","direct_first","1","rt07ip21","0","24","1","1","3","1","Es wäre schön gewesen, am Ende noch die Bedeutung der Schriftzeichen zu erläutern. Aber an sich eine sehr interessante Studie.","0","1","0","null","","","<img src = 'category4/CS10.png' width = '100%;'>","null","","","","","","","","","",""
"","html-keyboard-response","149","609557","0.0-10.0-2.2","zszt1vu065","many_one","0","direct_first","1","rt07ip21","0","24","1","1","3","1","Es wäre schön gewesen, am Ende noch die Bedeutung der Schriftzeichen zu erläutern. Aber an sich eine sehr interessante Studie.","0","1","0","null","","","<img src = 'targets/40.png' width = '100%;'>","null","","","","","","","","","",""
"","html-keyboard-response","150","610008","0.0-10.0-3.2","zszt1vu065","many_one","0","direct_first","1","rt07ip21","0","24","1","1","3","1","Es wäre schön gewesen, am Ende noch die Bedeutung der Schriftzeichen zu erläutern. Aber an sich eine sehr interessante Studie.","0","1","0","449.5250000618398","","","<img src = 'targets/mask.png' width = '100%;'>","75","neg","CS","CS","4","category4/CS10.png","","targets/40.png","indirect","1","2"
"","html-keyboard-response","151","611522","0.0-10.0-0.3","zszt1vu065","many_one","0","direct_first","1","rt07ip21","0","24","1","1","3","1","Es wäre schön gewesen, am Ende noch die Bedeutung der Schriftzeichen zu erläutern. Aber an sich eine sehr interessante Studie.","0","1","0","null","","","<div style=""font-size:60px;"">+</div>","null","","","","","","","","","",""
"","html-keyboard-response","152","611619","0.0-10.0-1.3","zszt1vu065","many_one","0","direct_first","1","rt07ip21","0","24","1","1","3","1","Es wäre schön gewesen, am Ende noch die Bedeutung der Schriftzeichen zu erläutern. Aber an sich eine sehr interessante Studie.","0","1","0","null","","","<img src = 'category2/CS9.png' width = '100%;'>","null","","","","","","","","","",""
"","html-keyboard-response","153","611874","0.0-10.0-2.3","zszt1vu065","many_one","0","direct_first","1","rt07ip21","0","24","1","1","3","1","Es wäre schön gewesen, am Ende noch die Bedeutung der Schriftzeichen zu erläutern. Aber an sich eine sehr interessante Studie.","0","1","0","null","","","<img src = 'targets/29.png' width = '100%;'>","null","","","","","","","","","",""
"","html-keyboard-response","154","612140","0.0-10.0-3.3","zszt1vu065","many_one","0","direct_first","1","rt07ip21","0","24","1","1","3","1","Es wäre schön gewesen, am Ende noch die Bedeutung der Schriftzeichen zu erläutern. Aber an sich eine sehr interessante Studie.","0","1","0","263.98999989032745","","","<img src = 'targets/mask.png' width = '100%;'>","68","neg","GS","GSold","2","category2/CS9.png","","targets/29.png","indirect","0","3"
"","html-keyboard-response","155","613643","0.0-10.0-0.4","zszt1vu065","many_one","0","direct_first","1","rt07ip21","0","24","1","1","3","1","Es wäre schön gewesen, am Ende noch die Bedeutung der Schriftzeichen zu erläutern. Aber an sich eine sehr interessante Studie.","0","1","0","null","","","<div style=""font-size:60px;"">+</div>","null","","","","","","","","","",""
"","html-keyboard-response","156","613739","0.0-10.0-1.4","zszt1vu065","many_one","0","direct_first","1","rt07ip21","0","24","1","1","3","1","Es wäre schön gewesen, am Ende noch die Bedeutung der Schriftzeichen zu erläutern. Aber an sich eine sehr interessante Studie.","0","1","0","null","","","<img src = 'category2/CS3.png' width = '100%;'>","null","","","","","","","","","",""
"","html-keyboard-response","157","613995","0.0-10.0-2.4","zszt1vu065","many_one","0","direct_first","1","rt07ip21","0","24","1","1","3","1","Es wäre schön gewesen, am Ende noch die Bedeutung der Schriftzeichen zu erläutern. Aber an sich eine sehr interessante Studie.","0","1","0","null","","","<img src = 'targets/42.png' width = '100%;'>","null","","","","","","","","","",""
"","html-keyboard-response","158","614900","0.0-10.0-3.4","zszt1vu065","many_one","0","direct_first","1","rt07ip21","0","24","1","1","3","1","Es wäre schön gewesen, am Ende noch die Bedeutung der Schriftzeichen zu erläutern. Aber an sich eine sehr interessante Studie.","0","1","0","903.2449999358505","","","<img src = 'targets/mask.png' width = '100%;'>","75","neg","GS","GSold","2","category2/CS3.png","","targets/42.png","indirect","1","4"
"","html-keyboard-response","159","616411","0.0-10.0-0.5","zszt1vu065","many_one","0","direct_first","1","rt07ip21","0","24","1","1","3","1","Es wäre schön gewesen, am Ende noch die Bedeutung der Schriftzeichen zu erläutern. Aber an sich eine sehr interessante Studie.","0","1","0","null","","","<div style=""font-size:60px;"">+</div>","null","","","","","","","","","",""
"","html-keyboard-response","160","616507","0.0-10.0-1.5","zszt1vu065","many_one","0","direct_first","1","rt07ip21","0","24","1","1","3","1","Es wäre schön gewesen, am Ende noch die Bedeutung der Schriftzeichen zu erläutern. Aber an sich eine sehr interessante Studie.","0","1","0","null","","","<img src = 'category2/CS8.png' width = '100%;'>","null","","","","","","","","","",""
"","html-keyboard-response","161","616764","0.0-10.0-2.5","zszt1vu065","many_one","0","direct_first","1","rt07ip21","0","24","1","1","3","1","Es wäre schön gewesen, am Ende noch die Bedeutung der Schriftzeichen zu erläutern. Aber an sich eine sehr interessante Studie.","0","1","0","null","","","<img src = 'targets/39.png' width = '100%;'>","null","","","","","","","","","",""
"","html-keyboard-response","162","617143","0.0-10.0-3.5","zszt1vu065","many_one","0","direct_first","1","rt07ip21","0","24","1","1","3","1","Es wäre schön gewesen, am Ende noch die Bedeutung der Schriftzeichen zu erläutern. Aber an sich eine sehr interessante Studie.","0","1","0","377.1349999587983","","","<img src = 'targets/mask.png' width = '100%;'>","68","neg","CS","CS","2","category2/CS8.png","","targets/39.png","indirect","0","5"
"","html-keyboard-response","163","618656","0.0-10.0-0.6","zszt1vu065","many_one","0","direct_first","1","rt07ip21","0","24","1","1","3","1","Es wäre schön gewesen, am Ende noch die Bedeutung der Schriftzeichen zu erläutern. Aber an sich eine sehr interessante Studie.","0","1","0","null","","","<div style=""font-size:60px;"">+</div>","null","","","","","","","","","",""
"","html-keyboard-response","164","618752","0.0-10.0-1.6","zszt1vu065","many_one","0","direct_first","1","rt07ip21","0","24","1","1","3","1","Es wäre schön gewesen, am Ende noch die Bedeutung der Schriftzeichen zu erläutern. Aber an sich eine sehr interessante Studie.","0","1","0","null","","","<img src = 'category2/CS2.png' width = '100%;'>","null","","","","","","","","","",""
"","html-keyboard-response","165","619009","0.0-10.0-2.6","zszt1vu065","many_one","0","direct_first","1","rt07ip21","0","24","1","1","3","1","Es wäre schön gewesen, am Ende noch die Bedeutung der Schriftzeichen zu erläutern. Aber an sich eine sehr interessante Studie.","0","1","0","null","","","<img src = 'targets/43.png' width = '100%;'>","null","","","","","","","","","",""
"","html-keyboard-response","166","619316","0.0-10.0-3.6","zszt1vu065","many_one","0","direct_first","1","rt07ip21","0","24","1","1","3","1","Es wäre schön gewesen, am Ende noch die Bedeutung der Schriftzeichen zu erläutern. Aber an sich eine sehr interessante Studie.","0","1","0","305.6150001939386","","","<img src = 'targets/mask.png' width = '100%;'>","68","neg","CS","CS","2","category2/CS2.png","","targets/43.png","indirect","0","6"
"","html-keyboard-response","167","620840","0.0-10.0-0.7","zszt1vu065","many_one","0","direct_first","1","rt07ip21","0","24","1","1","3","1","Es wäre schön gewesen, am Ende noch die Bedeutung der Schriftzeichen zu erläutern. Aber an sich eine sehr interessante Studie.","0","1","0","null","","","<div style=""font-size:60px;"">+</div>","null","","","","","","","","","",""
"","html-keyboard-response","168","620936","0.0-10.0-1.7","zszt1vu065","many_one","0","direct_first","1","rt07ip21","0","24","1","1","3","1","Es wäre schön gewesen, am Ende noch die Bedeutung der Schriftzeichen zu erläutern. Aber an sich eine sehr interessante Studie.","0","1","0","null","","","<img src = 'category3/CS1.png' width = '100%;'>","null","","","","","","","","","",""
"","html-keyboard-response","169","621199","0.0-10.0-2.7","zszt1vu065","many_one","0","direct_first","1","rt07ip21","0","24","1","1","3","1","Es wäre schön gewesen, am Ende noch die Bedeutung der Schriftzeichen zu erläutern. Aber an sich eine sehr interessante Studie.","0","1","0","null","","","<img src = 'targets/9.png' width = '100%;'>","null","","","","","","","","","",""
"","html-keyboard-response","170","621283","0.0-10.0-3.7","zszt1vu065","many_one","0","direct_first","1","rt07ip21","0","24","1","1","3","1","Es wäre schön gewesen, am Ende noch die Bedeutung der Schriftzeichen zu erläutern. Aber an sich eine sehr interessante Studie.","0","1","0","82.30999996885657","","","<img src = 'targets/mask.png' width = '100%;'>","75","pos","CS","CS","3","category3/CS1.png","","targets/9.png","indirect","1","7"
"","html-keyboard-response","171","622797","0.0-10.0-0.8","zszt1vu065","many_one","0","direct_first","1","rt07ip21","0","24","1","1","3","1","Es wäre schön gewesen, am Ende noch die Bedeutung der Schriftzeichen zu erläutern. Aber an sich eine sehr interessante Studie.","0","1","0","null","","","<div style=""font-size:60px;"">+</div>","null","","","","","","","","","",""
"","html-keyboard-response","172","622893","0.0-10.0-1.8","zszt1vu065","many_one","0","direct_first","1","rt07ip21","0","24","1","1","3","1","Es wäre schön gewesen, am Ende noch die Bedeutung der Schriftzeichen zu erläutern. Aber an sich eine sehr interessante Studie.","0","1","0","null","","","<img src = 'category2/CS6.png' width = '100%;'>","null","","","","","","","","","",""
"","html-keyboard-response","173","623151","0.0-10.0-2.8","zszt1vu065","many_one","0","direct_first","1","rt07ip21","0","24","1","1","3","1","Es wäre schön gewesen, am Ende noch die Bedeutung der Schriftzeichen zu erläutern. Aber an sich eine sehr interessante Studie.","0","1","0","null","","","<img src = 'targets/21.png' width = '100%;'>","null","","","","","","","","","",""
"","html-keyboard-response","174","623655","0.0-10.0-3.8","zszt1vu065","many_one","0","direct_first","1","rt07ip21","0","24","1","1","3","1","Es wäre schön gewesen, am Ende noch die Bedeutung der Schriftzeichen zu erläutern. Aber an sich eine sehr interessante Studie.","0","1","0","502.4800000246614","","","<img src = 'targets/mask.png' width = '100%;'>","75","neg","CS","CS","2","category2/CS6.png","","targets/21.png","indirect","1","8"
"","html-keyboard-response","175","625182","0.0-10.0-0.9","zszt1vu065","many_one","0","direct_first","1","rt07ip21","0","24","1","1","3","1","Es wäre schön gewesen, am Ende noch die Bedeutung der Schriftzeichen zu erläutern. Aber an sich eine sehr interessante Studie.","0","1","0","null","","","<div style=""font-size:60px;"">+</div>","null","","","","","","","","","",""
"","html-keyboard-response","176","625278","0.0-10.0-1.9","zszt1vu065","many_one","0","direct_first","1","rt07ip21","0","24","1","1","3","1","Es wäre schön gewesen, am Ende noch die Bedeutung der Schriftzeichen zu erläutern. Aber an sich eine sehr interessante Studie.","0","1","0","null","","","<img src = 'category3/CS9.png' width = '100%;'>","null","","","","","","","","","",""
"","html-keyboard-response","177","625537","0.0-10.0-2.9","zszt1vu065","many_one","0","direct_first","1","rt07ip21","0","24","1","1","3","1","Es wäre schön gewesen, am Ende noch die Bedeutung der Schriftzeichen zu erläutern. Aber an sich eine sehr interessante Studie.","0","1","0","null","","","<img src = 'targets/36.png' width = '100%;'>","null","","","","","","","","","",""
"","html-keyboard-response","178","625962","0.0-10.0-3.9","zszt1vu065","many_one","0","direct_first","1","rt07ip21","0","24","1","1","3","1","Es wäre schön gewesen, am Ende noch die Bedeutung der Schriftzeichen zu erläutern. Aber an sich eine sehr interessante Studie.","0","1","0","423.62000001594424","","","<img src = 'targets/mask.png' width = '100%;'>","75","pos","CS","CS","3","category3/CS9.png","","targets/36.png","indirect","1","9"
"","html-keyboard-response","179","627491","0.0-10.0-0.10","zszt1vu065","many_one","0","direct_first","1","rt07ip21","0","24","1","1","3","1","Es wäre schön gewesen, am Ende noch die Bedeutung der Schriftzeichen zu erläutern. Aber an sich eine sehr interessante Studie.","0","1","0","null","","","<div style=""font-size:60px;"">+</div>","null","","","","","","","","","",""
"","html-keyboard-response","180","627589","0.0-10.0-1.10","zszt1vu065","many_one","0","direct_first","1","rt07ip21","0","24","1","1","3","1","Es wäre schön gewesen, am Ende noch die Bedeutung der Schriftzeichen zu erläutern. Aber an sich eine sehr interessante Studie.","0","1","0","null","","","<img src = 'category1/CS8.png' width = '100%;'>","null","","","","","","","","","",""
"","html-keyboard-response","181","627846","0.0-10.0-2.10","zszt1vu065","many_one","0","direct_first","1","rt07ip21","0","24","1","1","3","1","Es wäre schön gewesen, am Ende noch die Bedeutung der Schriftzeichen zu erläutern. Aber an sich eine sehr interessante Studie.","0","1","0","null","","","<img src = 'targets/15.png' width = '100%;'>","null","","","","","","","","","",""
"","html-keyboard-response","182","628959","0.0-10.0-3.10","zszt1vu065","many_one","0","direct_first","1","rt07ip21","0","24","1","1","3","1","Es wäre schön gewesen, am Ende noch die Bedeutung der Schriftzeichen zu erläutern. Aber an sich eine sehr interessante Studie.","0","1","0","1111.6049999836832","","","<img src = 'targets/mask.png' width = '100%;'>","75","pos","GS","GSold","1","category1/CS8.png","","targets/15.png","indirect","1","10"
"","html-keyboard-response","183","630476","0.0-10.0-0.11","zszt1vu065","many_one","0","direct_first","1","rt07ip21","0","24","1","1","3","1","Es wäre schön gewesen, am Ende noch die Bedeutung der Schriftzeichen zu erläutern. Aber an sich eine sehr interessante Studie.","0","1","0","null","","","<div style=""font-size:60px;"">+</div>","null","","","","","","","","","",""
"","html-keyboard-response","184","630572","0.0-10.0-1.11","zszt1vu065","many_one","0","direct_first","1","rt07ip21","0","24","1","1","3","1","Es wäre schön gewesen, am Ende noch die Bedeutung der Schriftzeichen zu erläutern. Aber an sich eine sehr interessante Studie.","0","1","0","null","","","<img src = 'category1/CS6.png' width = '100%;'>","null","","","","","","","","","",""
"","html-keyboard-response","185","630830","0.0-10.0-2.11","zszt1vu065","many_one","0","direct_first","1","rt07ip21","0","24","1","1","3","1","Es wäre schön gewesen, am Ende noch die Bedeutung der Schriftzeichen zu erläutern. Aber an sich eine sehr interessante Studie.","0","1","0","null","","","<img src = 'targets/13.png' width = '100%;'>","null","","","","","","","","","",""
"","html-keyboard-response","186","632393","0.0-10.0-3.11","zszt1vu065","many_one","0","direct_first","1","rt07ip21","0","24","1","1","3","1","Es wäre schön gewesen, am Ende noch die Bedeutung der Schriftzeichen zu erläutern. Aber an sich eine sehr interessante Studie.","0","1","0","1561.4849999547005","","","<img src = 'targets/mask.png' width = '100%;'>","68","pos","CS","CS","1","category1/CS6.png","","targets/13.png","indirect","0","11"
"","html-keyboard-response","187","633909","0.0-10.0-0.12","zszt1vu065","many_one","0","direct_first","1","rt07ip21","0","24","1","1","3","1","Es wäre schön gewesen, am Ende noch die Bedeutung der Schriftzeichen zu erläutern. Aber an sich eine sehr interessante Studie.","0","1","0","null","","","<div style=""font-size:60px;"">+</div>","null","","","","","","","","","",""
"","html-keyboard-response","188","634005","0.0-10.0-1.12","zszt1vu065","many_one","0","direct_first","1","rt07ip21","0","24","1","1","3","1","Es wäre schön gewesen, am Ende noch die Bedeutung der Schriftzeichen zu erläutern. Aber an sich eine sehr interessante Studie.","0","1","0","null","","","<img src = 'category3/CS3.png' width = '100%;'>","null","","","","","","","","","",""
"","html-keyboard-response","189","634260","0.0-10.0-2.12","zszt1vu065","many_one","0","direct_first","1","rt07ip21","0","24","1","1","3","1","Es wäre schön gewesen, am Ende noch die Bedeutung der Schriftzeichen zu erläutern. Aber an sich eine sehr interessante Studie.","0","1","0","null","","","<img src = 'targets/8.png' width = '100%;'>","null","","","","","","","","","",""
"","html-keyboard-response","190","634492","0.0-10.0-3.12","zszt1vu065","many_one","0","direct_first","1","rt07ip21","0","24","1","1","3","1","Es wäre schön gewesen, am Ende noch die Bedeutung der Schriftzeichen zu erläutern. Aber an sich eine sehr interessante Studie.","0","1","0","230.33000016584992","","","<img src = 'targets/mask.png' width = '100%;'>","75","pos","CS","CS","3","category3/CS3.png","","targets/8.png","indirect","1","12"
"","html-keyboard-response","191","636002","0.0-10.0-0.13","zszt1vu065","many_one","0","direct_first","1","rt07ip21","0","24","1","1","3","1","Es wäre schön gewesen, am Ende noch die Bedeutung der Schriftzeichen zu erläutern. Aber an sich eine sehr interessante Studie.","0","1","0","null","","","<div style=""font-size:60px;"">+</div>","null","","","","","","","","","",""
"","html-keyboard-response","192","636099","0.0-10.0-1.13","zszt1vu065","many_one","0","direct_first","1","rt07ip21","0","24","1","1","3","1","Es wäre schön gewesen, am Ende noch die Bedeutung der Schriftzeichen zu erläutern. Aber an sich eine sehr interessante Studie.","0","1","0","null","","","<img src = 'category2/CS10.png' width = '100%;'>","null","","","","","","","","","",""
"","html-keyboard-response","193","636357","0.0-10.0-2.13","zszt1vu065","many_one","0","direct_first","1","rt07ip21","0","24","1","1","3","1","Es wäre schön gewesen, am Ende noch die Bedeutung der Schriftzeichen zu erläutern. Aber an sich eine sehr interessante Studie.","0","1","0","null","","","<img src = 'targets/5.png' width = '100%;'>","null","","","","","","","","","",""
"","html-keyboard-response","194","636659","0.0-10.0-3.13","zszt1vu065","many_one","0","direct_first","1","rt07ip21","0","24","1","1","3","1","Es wäre schön gewesen, am Ende noch die Bedeutung der Schriftzeichen zu erläutern. Aber an sich eine sehr interessante Studie.","0","1","0","301.01500009186566","","","<img src = 'targets/mask.png' width = '100%;'>","68","neg","GS","GSold","2","category2/CS10.png","","targets/5.png","indirect","0","13"
"","html-keyboard-response","195","638172","0.0-10.0-0.14","zszt1vu065","many_one","0","direct_first","1","rt07ip21","0","24","1","1","3","1","Es wäre schön gewesen, am Ende noch die Bedeutung der Schriftzeichen zu erläutern. Aber an sich eine sehr interessante Studie.","0","1","0","null","","","<div style=""font-size:60px;"">+</div>","null","","","","","","","","","",""
"","html-keyboard-response","196","638268","0.0-10.0-1.14","zszt1vu065","many_one","0","direct_first","1","rt07ip21","0","24","1","1","3","1","Es wäre schön gewesen, am Ende noch die Bedeutung der Schriftzeichen zu erläutern. Aber an sich eine sehr interessante Studie.","0","1","0","null","","","<img src = 'category4/CS8.png' width = '100%;'>","null","","","","","","","","","",""
"","html-keyboard-response","197","638538","0.0-10.0-2.14","zszt1vu065","many_one","0","direct_first","1","rt07ip21","0","24","1","1","3","1","Es wäre schön gewesen, am Ende noch die Bedeutung der Schriftzeichen zu erläutern. Aber an sich eine sehr interessante Studie.","0","1","0","null","","","<img src = 'targets/2.png' width = '100%;'>","null","","","","","","","","","",""
"","html-keyboard-response","198","638944","0.0-10.0-3.14","zszt1vu065","many_one","0","direct_first","1","rt07ip21","0","24","1","1","3","1","Es wäre schön gewesen, am Ende noch die Bedeutung der Schriftzeichen zu erläutern. Aber an sich eine sehr interessante Studie.","0","1","0","404.9500001128763","","","<img src = 'targets/mask.png' width = '100%;'>","75","neg","CS","CS","4","category4/CS8.png","","targets/2.png","indirect","1","14"
"","html-keyboard-response","199","640460","0.0-10.0-0.15","zszt1vu065","many_one","0","direct_first","1","rt07ip21","0","24","1","1","3","1","Es wäre schön gewesen, am Ende noch die Bedeutung der Schriftzeichen zu erläutern. Aber an sich eine sehr interessante Studie.","0","1","0","null","","","<div style=""font-size:60px;"">+</div>","null","","","","","","","","","",""
"","html-keyboard-response","200","640565","0.0-10.0-1.15","zszt1vu065","many_one","0","direct_first","1","rt07ip21","0","24","1","1","3","1","Es wäre schön gewesen, am Ende noch die Bedeutung der Schriftzeichen zu erläutern. Aber an sich eine sehr interessante Studie.","0","1","0","null","","","<img src = 'category1/CS9.png' width = '100%;'>","null","","","","","","","","","",""
"","html-keyboard-response","201","640822","0.0-10.0-2.15","zszt1vu065","many_one","0","direct_first","1","rt07ip21","0","24","1","1","3","1","Es wäre schön gewesen, am Ende noch die Bedeutung der Schriftzeichen zu erläutern. Aber an sich eine sehr interessante Studie.","0","1","0","null","","","<img src = 'targets/26.png' width = '100%;'>","null","","","","","","","","","",""
"","html-keyboard-response","202","641345","0.0-10.0-3.15","zszt1vu065","many_one","0","direct_first","1","rt07ip21","0","24","1","1","3","1","Es wäre schön gewesen, am Ende noch die Bedeutung der Schriftzeichen zu erläutern. Aber an sich eine sehr interessante Studie.","0","1","0","522.1750000491738","","","<img src = 'targets/mask.png' width = '100%;'>","75","pos","CS","CS","1","category1/CS9.png","","targets/26.png","indirect","1","15"
"","html-keyboard-response","203","642865","0.0-10.0-0.16","zszt1vu065","many_one","0","direct_first","1","rt07ip21","0","24","1","1","3","1","Es wäre schön gewesen, am Ende noch die Bedeutung der Schriftzeichen zu erläutern. Aber an sich eine sehr interessante Studie.","0","1","0","null","","","<div style=""font-size:60px;"">+</div>","null","","","","","","","","","",""
"","html-keyboard-response","204","642963","0.0-10.0-1.16","zszt1vu065","many_one","0","direct_first","1","rt07ip21","0","24","1","1","3","1","Es wäre schön gewesen, am Ende noch die Bedeutung der Schriftzeichen zu erläutern. Aber an sich eine sehr interessante Studie.","0","1","0","null","","","<img src = 'category1/CS5.png' width = '100%;'>","null","","","","","","","","","",""
"","html-keyboard-response","205","643226","0.0-10.0-2.16","zszt1vu065","many_one","0","direct_first","1","rt07ip21","0","24","1","1","3","1","Es wäre schön gewesen, am Ende noch die Bedeutung der Schriftzeichen zu erläutern. Aber an sich eine sehr interessante Studie.","0","1","0","null","","","<img src = 'targets/44.png' width = '100%;'>","null","","","","","","","","","",""
"","html-keyboard-response","206","643558","0.0-10.0-3.16","zszt1vu065","many_one","0","direct_first","1","rt07ip21","0","24","1","1","3","1","Es wäre schön gewesen, am Ende noch die Bedeutung der Schriftzeichen zu erläutern. Aber an sich eine sehr interessante Studie.","0","1","0","329.8100000247359","","","<img src = 'targets/mask.png' width = '100%;'>","75","pos","CS","CS","1","category1/CS5.png","","targets/44.png","indirect","1","16"
"","html-keyboard-response","207","645067","0.0-10.0-0.17","zszt1vu065","many_one","0","direct_first","1","rt07ip21","0","24","1","1","3","1","Es wäre schön gewesen, am Ende noch die Bedeutung der Schriftzeichen zu erläutern. Aber an sich eine sehr interessante Studie.","0","1","0","null","","","<div style=""font-size:60px;"">+</div>","null","","","","","","","","","",""
"","html-keyboard-response","208","645164","0.0-10.0-1.17","zszt1vu065","many_one","0","direct_first","1","rt07ip21","0","24","1","1","3","1","Es wäre schön gewesen, am Ende noch die Bedeutung der Schriftzeichen zu erläutern. Aber an sich eine sehr interessante Studie.","0","1","0","null","","","<img src = 'category2/CS1.png' width = '100%;'>","null","","","","","","","","","",""
"","html-keyboard-response","209","645421","0.0-10.0-2.17","zszt1vu065","many_one","0","direct_first","1","rt07ip21","0","24","1","1","3","1","Es wäre schön gewesen, am Ende noch die Bedeutung der Schriftzeichen zu erläutern. Aber an sich eine sehr interessante Studie.","0","1","0","null","","","<img src = 'targets/27.png' width = '100%;'>","null","","","","","","","","","",""
"","html-keyboard-response","210","645653","0.0-10.0-3.17","zszt1vu065","many_one","0","direct_first","1","rt07ip21","0","24","1","1","3","1","Es wäre schön gewesen, am Ende noch die Bedeutung der Schriftzeichen zu erläutern. Aber an sich eine sehr interessante Studie.","0","1","0","231.07999982312322","","","<img src = 'targets/mask.png' width = '100%;'>","68","neg","CS","CS","2","category2/CS1.png","","targets/27.png","indirect","0","17"
"","html-keyboard-response","211","647169","0.0-10.0-0.18","zszt1vu065","many_one","0","direct_first","1","rt07ip21","0","24","1","1","3","1","Es wäre schön gewesen, am Ende noch die Bedeutung der Schriftzeichen zu erläutern. Aber an sich eine sehr interessante Studie.","0","1","0","null","","","<div style=""font-size:60px;"">+</div>","null","","","","","","","","","",""
"","html-keyboard-response","212","647265","0.0-10.0-1.18","zszt1vu065","many_one","0","direct_first","1","rt07ip21","0","24","1","1","3","1","Es wäre schön gewesen, am Ende noch die Bedeutung der Schriftzeichen zu erläutern. Aber an sich eine sehr interessante Studie.","0","1","0","null","","","<img src = 'category3/CS8.png' width = '100%;'>","null","","","","","","","","","",""
"","html-keyboard-response","213","647522","0.0-10.0-2.18","zszt1vu065","many_one","0","direct_first","1","rt07ip21","0","24","1","1","3","1","Es wäre schön gewesen, am Ende noch die Bedeutung der Schriftzeichen zu erläutern. Aber an sich eine sehr interessante Studie.","0","1","0","null","","","<img src = 'targets/14.png' width = '100%;'>","null","","","","","","","","","",""
"","html-keyboard-response","214","648440","0.0-10.0-3.18","zszt1vu065","many_one","0","direct_first","1","rt07ip21","0","24","1","1","3","1","Es wäre schön gewesen, am Ende noch die Bedeutung der Schriftzeichen zu erläutern. Aber an sich eine sehr interessante Studie.","0","1","0","917.2449999023229","","","<img src = 'targets/mask.png' width = '100%;'>","75","pos","CS","CS","3","category3/CS8.png","","targets/14.png","indirect","1","18"
"","html-keyboard-response","215","649951","0.0-10.0-0.19","zszt1vu065","many_one","0","direct_first","1","rt07ip21","0","24","1","1","3","1","Es wäre schön gewesen, am Ende noch die Bedeutung der Schriftzeichen zu erläutern. Aber an sich eine sehr interessante Studie.","0","1","0","null","","","<div style=""font-size:60px;"">+</div>","null","","","","","","","","","",""
"","html-keyboard-response","216","650055","0.0-10.0-1.19","zszt1vu065","many_one","0","direct_first","1","rt07ip21","0","24","1","1","3","1","Es wäre schön gewesen, am Ende noch die Bedeutung der Schriftzeichen zu erläutern. Aber an sich eine sehr interessante Studie.","0","1","0","null","","","<img src = 'category3/CS4.png' width = '100%;'>","null","","","","","","","","","",""
"","html-keyboard-response","217","650313","0.0-10.0-2.19","zszt1vu065","many_one","0","direct_first","1","rt07ip21","0","24","1","1","3","1","Es wäre schön gewesen, am Ende noch die Bedeutung der Schriftzeichen zu erläutern. Aber an sich eine sehr interessante Studie.","0","1","0","null","","","<img src = 'targets/3.png' width = '100%;'>","null","","","","","","","","","",""
"","html-keyboard-response","218","650551","0.0-10.0-3.19","zszt1vu065","many_one","0","direct_first","1","rt07ip21","0","24","1","1","3","1","Es wäre schön gewesen, am Ende noch die Bedeutung der Schriftzeichen zu erläutern. Aber an sich eine sehr interessante Studie.","0","1","0","236.89999990165234","","","<img src = 'targets/mask.png' width = '100%;'>","75","pos","CS","CS","3","category3/CS4.png","","targets/3.png","indirect","1","19"
"","html-keyboard-response","219","652067","0.0-10.0-0.20","zszt1vu065","many_one","0","direct_first","1","rt07ip21","0","24","1","1","3","1","Es wäre schön gewesen, am Ende noch die Bedeutung der Schriftzeichen zu erläutern. Aber an sich eine sehr interessante Studie.","0","1","0","null","","","<div style=""font-size:60px;"">+</div>","null","","","","","","","","","",""
"","html-keyboard-response","220","652159","0.0-10.0-1.20","zszt1vu065","many_one","0","direct_first","1","rt07ip21","0","24","1","1","3","1","Es wäre schön gewesen, am Ende noch die Bedeutung der Schriftzeichen zu erläutern. Aber an sich eine sehr interessante Studie.","0","1","0","null","","","<img src = 'category4/CS9.png' width = '100%;'>","null","","","","","","","","","",""
"","html-keyboard-response","221","652418","0.0-10.0-2.20","zszt1vu065","many_one","0","direct_first","1","rt07ip21","0","24","1","1","3","1","Es wäre schön gewesen, am Ende noch die Bedeutung der Schriftzeichen zu erläutern. Aber an sich eine sehr interessante Studie.","0","1","0","null","","","<img src = 'targets/6.png' width = '100%;'>","null","","","","","","","","","",""
"","html-keyboard-response","222","652788","0.0-10.0-3.20","zszt1vu065","many_one","0","direct_first","1","rt07ip21","0","24","1","1","3","1","Es wäre schön gewesen, am Ende noch die Bedeutung der Schriftzeichen zu erläutern. Aber an sich eine sehr interessante Studie.","0","1","0","369.4299999624491","","","<img src = 'targets/mask.png' width = '100%;'>","68","neg","CS","CS","4","category4/CS9.png","","targets/6.png","indirect","0","20"
