"success","trial_type","trial_index","time_elapsed","internal_node_id","subject","condition","condition_code","measure","measure_code","codeword","gender","age","education","chinese","fach","handedness","comment","hinschauen","ablenkung","gewissenhaft","rt","url","responses","stimulus","key_press","val","type","type_specific","category","cs_selected","target","indirect","task","nr_pres","response"
"true","fullscreen","0","3366","0.0-0.0","1zwmlmap3z","one_one","1","indirect_first","0","AM03UT15","0","31","1","0","3","1","","0","1","0","","","","","","","","","","","","","","",""
"","external-html","1","40407","0.0-1.0","1zwmlmap3z","one_one","1","indirect_first","0","AM03UT15","0","31","1","0","3","1","","0","1","0","36997.49500001781","text/information.html","","","","","","","","","","","","",""
"","external-html","2","50943","0.0-2.0","1zwmlmap3z","one_one","1","indirect_first","0","AM03UT15","0","31","1","0","3","1","","0","1","0","10258.66000005044","text/consent.html","","","","","","","","","","","","",""
"","survey-html-form","3","63620","0.0-3.0","1zwmlmap3z","one_one","1","indirect_first","0","AM03UT15","0","31","1","0","3","1","","0","1","0","12671.579999965616","","{""codeword_enter"":""AM03UT15""}","","","","","","","","","","","",""
"","survey-html-form","4","80902","0.0-4.0","1zwmlmap3z","one_one","1","indirect_first","0","AM03UT15","0","31","1","0","3","1","","0","1","0","17277.000000001863","","{""age"":""31"",""education"":""1"",""subject"":""3"",""gender"":""0"",""handedness"":""1"",""chinese"":""0""}","","","","","","","","","","","",""
"","survey-html-form","5","90767","0.0-5.0","1zwmlmap3z","one_one","1","indirect_first","0","AM03UT15","0","31","1","0","3","1","","0","1","0","9862.090000067838","","{}","","","","","","","","","","","",""
"","html-keyboard-response","6","94796","0.0-6.0-0.0-0.0","1zwmlmap3z","one_one","1","indirect_first","0","AM03UT15","0","31","1","0","3","1","","0","1","0","null","","","<div class = 'row'><div class = 'column'><img src = 'category3/CS5.png' width = '70%;'></div><div class = 'column'><img src = 'usneg/9290.bmp' width = '100%;'></div></div>","null","neg","CS","CS","3","category3/CS5.png","","","","",""
"","html-keyboard-response","7","97304","0.0-6.0-0.0-0.1","1zwmlmap3z","one_one","1","indirect_first","0","AM03UT15","0","31","1","0","3","1","","0","1","0","null","","","<div class = 'row'><div class = 'column'><img src = 'category4/CS5.png' width = '70%;'></div><div class = 'column'><img src = 'uspos/5700.bmp' width = '100%;'></div></div>","null","pos","CS","CS","4","category4/CS5.png","","","","",""
"","html-keyboard-response","8","99814","0.0-6.0-0.0-0.2","1zwmlmap3z","one_one","1","indirect_first","0","AM03UT15","0","31","1","0","3","1","","0","1","0","null","","","<div class = 'row'><div class = 'column'><img src = 'category1/CS4.png' width = '70%;'></div><div class = 'column'><img src = 'uspos/2057.bmp' width = '100%;'></div></div>","null","pos","CS","CS","1","category1/CS4.png","","","","",""
"","html-keyboard-response","9","102327","0.0-6.0-0.0-0.3","1zwmlmap3z","one_one","1","indirect_first","0","AM03UT15","0","31","1","0","3","1","","0","1","0","null","","","<div class = 'row'><div class = 'column'><img src = 'usneg/9584.bmp' width = '100%;'></div><div class = 'column'><img src = 'category2/CS6.png' width = '70%;'></div></div>","null","neg","CS","CS","2","category2/CS6.png","","","","",""
"","html-keyboard-response","10","104844","0.0-6.0-0.0-0.4","1zwmlmap3z","one_one","1","indirect_first","0","AM03UT15","0","31","1","0","3","1","","0","1","0","null","","","<div class = 'row'><div class = 'column'><img src = 'uspos/2057.bmp' width = '100%;'></div><div class = 'column'><img src = 'category1/CS4.png' width = '70%;'></div></div>","null","pos","CS","CS","1","category1/CS4.png","","","","",""
"","html-keyboard-response","11","107351","0.0-6.0-0.0-0.5","1zwmlmap3z","one_one","1","indirect_first","0","AM03UT15","0","31","1","0","3","1","","0","1","0","null","","","<div class = 'row'><div class = 'column'><img src = 'usneg/9584.bmp' width = '100%;'></div><div class = 'column'><img src = 'category2/CS6.png' width = '70%;'></div></div>","null","neg","CS","CS","2","category2/CS6.png","","","","",""
"","html-keyboard-response","12","109866","0.0-6.0-0.0-0.6","1zwmlmap3z","one_one","1","indirect_first","0","AM03UT15","0","31","1","0","3","1","","0","1","0","null","","","<div class = 'row'><div class = 'column'><img src = 'category3/CS5.png' width = '70%;'></div><div class = 'column'><img src = 'usneg/9290.bmp' width = '100%;'></div></div>","null","neg","CS","CS","3","category3/CS5.png","","","","",""
"","html-keyboard-response","13","112391","0.0-6.0-0.0-0.7","1zwmlmap3z","one_one","1","indirect_first","0","AM03UT15","0","31","1","0","3","1","","0","1","0","null","","","<div class = 'row'><div class = 'column'><img src = 'category1/CS4.png' width = '70%;'></div><div class = 'column'><img src = 'uspos/2057.bmp' width = '100%;'></div></div>","null","pos","CS","CS","1","category1/CS4.png","","","","",""
"","html-keyboard-response","14","114897","0.0-6.0-0.0-0.8","1zwmlmap3z","one_one","1","indirect_first","0","AM03UT15","0","31","1","0","3","1","","0","1","0","null","","","<div class = 'row'><div class = 'column'><img src = 'category3/CS5.png' width = '70%;'></div><div class = 'column'><img src = 'usneg/9290.bmp' width = '100%;'></div></div>","null","neg","CS","CS","3","category3/CS5.png","","","","",""
"","html-keyboard-response","15","117407","0.0-6.0-0.0-0.9","1zwmlmap3z","one_one","1","indirect_first","0","AM03UT15","0","31","1","0","3","1","","0","1","0","null","","","<div class = 'row'><div class = 'column'><img src = 'category1/CS4.png' width = '70%;'></div><div class = 'column'><img src = 'uspos/2057.bmp' width = '100%;'></div></div>","null","pos","CS","CS","1","category1/CS4.png","","","","",""
"","html-keyboard-response","16","119929","0.0-6.0-0.0-0.10","1zwmlmap3z","one_one","1","indirect_first","0","AM03UT15","0","31","1","0","3","1","","0","1","0","null","","","<div class = 'row'><div class = 'column'><img src = 'category4/CS5.png' width = '70%;'></div><div class = 'column'><img src = 'uspos/5700.bmp' width = '100%;'></div></div>","null","pos","CS","CS","4","category4/CS5.png","","","","",""
"","html-keyboard-response","17","122442","0.0-6.0-0.0-0.11","1zwmlmap3z","one_one","1","indirect_first","0","AM03UT15","0","31","1","0","3","1","","0","1","0","null","","","<div class = 'row'><div class = 'column'><img src = 'usneg/9584.bmp' width = '100%;'></div><div class = 'column'><img src = 'category2/CS6.png' width = '70%;'></div></div>","null","neg","CS","CS","2","category2/CS6.png","","","","",""
"","html-keyboard-response","18","124967","0.0-6.0-0.0-0.12","1zwmlmap3z","one_one","1","indirect_first","0","AM03UT15","0","31","1","0","3","1","","0","1","0","null","","","<div class = 'row'><div class = 'column'><img src = 'category4/CS5.png' width = '70%;'></div><div class = 'column'><img src = 'uspos/5700.bmp' width = '100%;'></div></div>","null","pos","CS","CS","4","category4/CS5.png","","","","",""
"","html-keyboard-response","19","127482","0.0-6.0-0.0-0.13","1zwmlmap3z","one_one","1","indirect_first","0","AM03UT15","0","31","1","0","3","1","","0","1","0","null","","","<div class = 'row'><div class = 'column'><img src = 'usneg/9290.bmp' width = '100%;'></div><div class = 'column'><img src = 'category3/CS5.png' width = '70%;'></div></div>","null","neg","CS","CS","3","category3/CS5.png","","","","",""
"","html-keyboard-response","20","129991","0.0-6.0-0.0-0.14","1zwmlmap3z","one_one","1","indirect_first","0","AM03UT15","0","31","1","0","3","1","","0","1","0","null","","","<div class = 'row'><div class = 'column'><img src = 'category4/CS5.png' width = '70%;'></div><div class = 'column'><img src = 'uspos/5700.bmp' width = '100%;'></div></div>","null","pos","CS","CS","4","category4/CS5.png","","","","",""
"","html-keyboard-response","21","132500","0.0-6.0-0.0-0.15","1zwmlmap3z","one_one","1","indirect_first","0","AM03UT15","0","31","1","0","3","1","","0","1","0","null","","","<div class = 'row'><div class = 'column'><img src = 'usneg/9584.bmp' width = '100%;'></div><div class = 'column'><img src = 'category2/CS6.png' width = '70%;'></div></div>","null","neg","CS","CS","2","category2/CS6.png","","","","",""
"","html-keyboard-response","22","135005","0.0-6.0-0.0-0.16","1zwmlmap3z","one_one","1","indirect_first","0","AM03UT15","0","31","1","0","3","1","","0","1","0","null","","","<div class = 'row'><div class = 'column'><img src = 'category3/CS5.png' width = '70%;'></div><div class = 'column'><img src = 'usneg/9290.bmp' width = '100%;'></div></div>","null","neg","CS","CS","3","category3/CS5.png","","","","",""
"","html-keyboard-response","23","137522","0.0-6.0-0.0-0.17","1zwmlmap3z","one_one","1","indirect_first","0","AM03UT15","0","31","1","0","3","1","","0","1","0","null","","","<div class = 'row'><div class = 'column'><img src = 'uspos/2057.bmp' width = '100%;'></div><div class = 'column'><img src = 'category1/CS4.png' width = '70%;'></div></div>","null","pos","CS","CS","1","category1/CS4.png","","","","",""
"","html-keyboard-response","24","140033","0.0-6.0-0.0-0.18","1zwmlmap3z","one_one","1","indirect_first","0","AM03UT15","0","31","1","0","3","1","","0","1","0","null","","","<div class = 'row'><div class = 'column'><img src = 'usneg/9584.bmp' width = '100%;'></div><div class = 'column'><img src = 'category2/CS6.png' width = '70%;'></div></div>","null","neg","CS","CS","2","category2/CS6.png","","","","",""
"","html-keyboard-response","25","142539","0.0-6.0-0.0-0.19","1zwmlmap3z","one_one","1","indirect_first","0","AM03UT15","0","31","1","0","3","1","","0","1","0","null","","","<div class = 'row'><div class = 'column'><img src = 'uspos/5700.bmp' width = '100%;'></div><div class = 'column'><img src = 'category4/CS5.png' width = '70%;'></div></div>","null","pos","CS","CS","4","category4/CS5.png","","","","",""
"","survey-html-form","26","145102","0.0-6.0-1.0","1zwmlmap3z","one_one","1","indirect_first","0","AM03UT15","0","31","1","0","3","1","","0","1","0","2059.815000044182","","{}","","","","","","","","","","","",""
"","html-keyboard-response","27","149121","0.0-6.0-2.0-0.0","1zwmlmap3z","one_one","1","indirect_first","0","AM03UT15","0","31","1","0","3","1","","0","1","0","null","","","<div class = 'row'><div class = 'column'><img src = 'category2/CS6.png' width = '70%;'></div><div class = 'column'><img src = 'usneg/9584.bmp' width = '100%;'></div></div>","null","neg","CS","CS","2","category2/CS6.png","","","","",""
"","html-keyboard-response","28","151636","0.0-6.0-2.0-0.1","1zwmlmap3z","one_one","1","indirect_first","0","AM03UT15","0","31","1","0","3","1","","0","1","0","null","","","<div class = 'row'><div class = 'column'><img src = 'category4/CS5.png' width = '70%;'></div><div class = 'column'><img src = 'uspos/5700.bmp' width = '100%;'></div></div>","null","pos","CS","CS","4","category4/CS5.png","","","","",""
"","html-keyboard-response","29","154150","0.0-6.0-2.0-0.2","1zwmlmap3z","one_one","1","indirect_first","0","AM03UT15","0","31","1","0","3","1","","0","1","0","null","","","<div class = 'row'><div class = 'column'><img src = 'uspos/2057.bmp' width = '100%;'></div><div class = 'column'><img src = 'category1/CS4.png' width = '70%;'></div></div>","null","pos","CS","CS","1","category1/CS4.png","","","","",""
"","html-keyboard-response","30","156658","0.0-6.0-2.0-0.3","1zwmlmap3z","one_one","1","indirect_first","0","AM03UT15","0","31","1","0","3","1","","0","1","0","null","","","<div class = 'row'><div class = 'column'><img src = 'category3/CS5.png' width = '70%;'></div><div class = 'column'><img src = 'usneg/9290.bmp' width = '100%;'></div></div>","null","neg","CS","CS","3","category3/CS5.png","","","","",""
"","html-keyboard-response","31","159170","0.0-6.0-2.0-0.4","1zwmlmap3z","one_one","1","indirect_first","0","AM03UT15","0","31","1","0","3","1","","0","1","0","null","","","<div class = 'row'><div class = 'column'><img src = 'usneg/9584.bmp' width = '100%;'></div><div class = 'column'><img src = 'category2/CS6.png' width = '70%;'></div></div>","null","neg","CS","CS","2","category2/CS6.png","","","","",""
"","html-keyboard-response","32","161698","0.0-6.0-2.0-0.5","1zwmlmap3z","one_one","1","indirect_first","0","AM03UT15","0","31","1","0","3","1","","0","1","0","null","","","<div class = 'row'><div class = 'column'><img src = 'category1/CS4.png' width = '70%;'></div><div class = 'column'><img src = 'uspos/2057.bmp' width = '100%;'></div></div>","null","pos","CS","CS","1","category1/CS4.png","","","","",""
"","html-keyboard-response","33","164207","0.0-6.0-2.0-0.6","1zwmlmap3z","one_one","1","indirect_first","0","AM03UT15","0","31","1","0","3","1","","0","1","0","null","","","<div class = 'row'><div class = 'column'><img src = 'category2/CS6.png' width = '70%;'></div><div class = 'column'><img src = 'usneg/9584.bmp' width = '100%;'></div></div>","null","neg","CS","CS","2","category2/CS6.png","","","","",""
"","html-keyboard-response","34","166724","0.0-6.0-2.0-0.7","1zwmlmap3z","one_one","1","indirect_first","0","AM03UT15","0","31","1","0","3","1","","0","1","0","null","","","<div class = 'row'><div class = 'column'><img src = 'category3/CS5.png' width = '70%;'></div><div class = 'column'><img src = 'usneg/9290.bmp' width = '100%;'></div></div>","null","neg","CS","CS","3","category3/CS5.png","","","","",""
"","html-keyboard-response","35","169244","0.0-6.0-2.0-0.8","1zwmlmap3z","one_one","1","indirect_first","0","AM03UT15","0","31","1","0","3","1","","0","1","0","null","","","<div class = 'row'><div class = 'column'><img src = 'category4/CS5.png' width = '70%;'></div><div class = 'column'><img src = 'uspos/5700.bmp' width = '100%;'></div></div>","null","pos","CS","CS","4","category4/CS5.png","","","","",""
"","html-keyboard-response","36","171777","0.0-6.0-2.0-0.9","1zwmlmap3z","one_one","1","indirect_first","0","AM03UT15","0","31","1","0","3","1","","0","1","0","null","","","<div class = 'row'><div class = 'column'><img src = 'category3/CS5.png' width = '70%;'></div><div class = 'column'><img src = 'usneg/9290.bmp' width = '100%;'></div></div>","null","neg","CS","CS","3","category3/CS5.png","","","","",""
"","html-keyboard-response","37","174302","0.0-6.0-2.0-0.10","1zwmlmap3z","one_one","1","indirect_first","0","AM03UT15","0","31","1","0","3","1","","0","1","0","null","","","<div class = 'row'><div class = 'column'><img src = 'uspos/5700.bmp' width = '100%;'></div><div class = 'column'><img src = 'category4/CS5.png' width = '70%;'></div></div>","null","pos","CS","CS","4","category4/CS5.png","","","","",""
"","html-keyboard-response","38","176823","0.0-6.0-2.0-0.11","1zwmlmap3z","one_one","1","indirect_first","0","AM03UT15","0","31","1","0","3","1","","0","1","0","null","","","<div class = 'row'><div class = 'column'><img src = 'usneg/9584.bmp' width = '100%;'></div><div class = 'column'><img src = 'category2/CS6.png' width = '70%;'></div></div>","null","neg","CS","CS","2","category2/CS6.png","","","","",""
"","html-keyboard-response","39","179338","0.0-6.0-2.0-0.12","1zwmlmap3z","one_one","1","indirect_first","0","AM03UT15","0","31","1","0","3","1","","0","1","0","null","","","<div class = 'row'><div class = 'column'><img src = 'category3/CS5.png' width = '70%;'></div><div class = 'column'><img src = 'usneg/9290.bmp' width = '100%;'></div></div>","null","neg","CS","CS","3","category3/CS5.png","","","","",""
"","html-keyboard-response","40","181852","0.0-6.0-2.0-0.13","1zwmlmap3z","one_one","1","indirect_first","0","AM03UT15","0","31","1","0","3","1","","0","1","0","null","","","<div class = 'row'><div class = 'column'><img src = 'usneg/9584.bmp' width = '100%;'></div><div class = 'column'><img src = 'category2/CS6.png' width = '70%;'></div></div>","null","neg","CS","CS","2","category2/CS6.png","","","","",""
"","html-keyboard-response","41","184372","0.0-6.0-2.0-0.14","1zwmlmap3z","one_one","1","indirect_first","0","AM03UT15","0","31","1","0","3","1","","0","1","0","null","","","<div class = 'row'><div class = 'column'><img src = 'category1/CS4.png' width = '70%;'></div><div class = 'column'><img src = 'uspos/2057.bmp' width = '100%;'></div></div>","null","pos","CS","CS","1","category1/CS4.png","","","","",""
"","html-keyboard-response","42","186892","0.0-6.0-2.0-0.15","1zwmlmap3z","one_one","1","indirect_first","0","AM03UT15","0","31","1","0","3","1","","0","1","0","null","","","<div class = 'row'><div class = 'column'><img src = 'category4/CS5.png' width = '70%;'></div><div class = 'column'><img src = 'uspos/5700.bmp' width = '100%;'></div></div>","null","pos","CS","CS","4","category4/CS5.png","","","","",""
"","html-keyboard-response","43","189407","0.0-6.0-2.0-0.16","1zwmlmap3z","one_one","1","indirect_first","0","AM03UT15","0","31","1","0","3","1","","0","1","0","null","","","<div class = 'row'><div class = 'column'><img src = 'category3/CS5.png' width = '70%;'></div><div class = 'column'><img src = 'usneg/9290.bmp' width = '100%;'></div></div>","null","neg","CS","CS","3","category3/CS5.png","","","","",""
"","html-keyboard-response","44","191929","0.0-6.0-2.0-0.17","1zwmlmap3z","one_one","1","indirect_first","0","AM03UT15","0","31","1","0","3","1","","0","1","0","null","","","<div class = 'row'><div class = 'column'><img src = 'uspos/2057.bmp' width = '100%;'></div><div class = 'column'><img src = 'category1/CS4.png' width = '70%;'></div></div>","null","pos","CS","CS","1","category1/CS4.png","","","","",""
"","html-keyboard-response","45","194448","0.0-6.0-2.0-0.18","1zwmlmap3z","one_one","1","indirect_first","0","AM03UT15","0","31","1","0","3","1","","0","1","0","null","","","<div class = 'row'><div class = 'column'><img src = 'uspos/5700.bmp' width = '100%;'></div><div class = 'column'><img src = 'category4/CS5.png' width = '70%;'></div></div>","null","pos","CS","CS","4","category4/CS5.png","","","","",""
"","html-keyboard-response","46","196962","0.0-6.0-2.0-0.19","1zwmlmap3z","one_one","1","indirect_first","0","AM03UT15","0","31","1","0","3","1","","0","1","0","null","","","<div class = 'row'><div class = 'column'><img src = 'category1/CS4.png' width = '70%;'></div><div class = 'column'><img src = 'uspos/2057.bmp' width = '100%;'></div></div>","null","pos","CS","CS","1","category1/CS4.png","","","","",""
"","survey-html-form","47","199738","0.0-6.0-3.0","1zwmlmap3z","one_one","1","indirect_first","0","AM03UT15","0","31","1","0","3","1","","0","1","0","2264.625000068918","","{}","","","","","","","","","","","",""
"","html-keyboard-response","48","203765","0.0-6.0-4.0-0.0","1zwmlmap3z","one_one","1","indirect_first","0","AM03UT15","0","31","1","0","3","1","","0","1","0","null","","","<div class = 'row'><div class = 'column'><img src = 'category3/CS5.png' width = '70%;'></div><div class = 'column'><img src = 'usneg/9290.bmp' width = '100%;'></div></div>","null","neg","CS","CS","3","category3/CS5.png","","","","",""
"","html-keyboard-response","49","206294","0.0-6.0-4.0-0.1","1zwmlmap3z","one_one","1","indirect_first","0","AM03UT15","0","31","1","0","3","1","","0","1","0","null","","","<div class = 'row'><div class = 'column'><img src = 'usneg/9584.bmp' width = '100%;'></div><div class = 'column'><img src = 'category2/CS6.png' width = '70%;'></div></div>","null","neg","CS","CS","2","category2/CS6.png","","","","",""
"","html-keyboard-response","50","208811","0.0-6.0-4.0-0.2","1zwmlmap3z","one_one","1","indirect_first","0","AM03UT15","0","31","1","0","3","1","","0","1","0","null","","","<div class = 'row'><div class = 'column'><img src = 'uspos/5700.bmp' width = '100%;'></div><div class = 'column'><img src = 'category4/CS5.png' width = '70%;'></div></div>","null","pos","CS","CS","4","category4/CS5.png","","","","",""
"","html-keyboard-response","51","211334","0.0-6.0-4.0-0.3","1zwmlmap3z","one_one","1","indirect_first","0","AM03UT15","0","31","1","0","3","1","","0","1","0","null","","","<div class = 'row'><div class = 'column'><img src = 'uspos/2057.bmp' width = '100%;'></div><div class = 'column'><img src = 'category1/CS4.png' width = '70%;'></div></div>","null","pos","CS","CS","1","category1/CS4.png","","","","",""
"","html-keyboard-response","52","213847","0.0-6.0-4.0-0.4","1zwmlmap3z","one_one","1","indirect_first","0","AM03UT15","0","31","1","0","3","1","","0","1","0","null","","","<div class = 'row'><div class = 'column'><img src = 'usneg/9290.bmp' width = '100%;'></div><div class = 'column'><img src = 'category3/CS5.png' width = '70%;'></div></div>","null","neg","CS","CS","3","category3/CS5.png","","","","",""
"","html-keyboard-response","53","216362","0.0-6.0-4.0-0.5","1zwmlmap3z","one_one","1","indirect_first","0","AM03UT15","0","31","1","0","3","1","","0","1","0","null","","","<div class = 'row'><div class = 'column'><img src = 'usneg/9584.bmp' width = '100%;'></div><div class = 'column'><img src = 'category2/CS6.png' width = '70%;'></div></div>","null","neg","CS","CS","2","category2/CS6.png","","","","",""
"","html-keyboard-response","54","218884","0.0-6.0-4.0-0.6","1zwmlmap3z","one_one","1","indirect_first","0","AM03UT15","0","31","1","0","3","1","","0","1","0","null","","","<div class = 'row'><div class = 'column'><img src = 'usneg/9290.bmp' width = '100%;'></div><div class = 'column'><img src = 'category3/CS5.png' width = '70%;'></div></div>","null","neg","CS","CS","3","category3/CS5.png","","","","",""
"","html-keyboard-response","55","221401","0.0-6.0-4.0-0.7","1zwmlmap3z","one_one","1","indirect_first","0","AM03UT15","0","31","1","0","3","1","","0","1","0","null","","","<div class = 'row'><div class = 'column'><img src = 'category1/CS4.png' width = '70%;'></div><div class = 'column'><img src = 'uspos/2057.bmp' width = '100%;'></div></div>","null","pos","CS","CS","1","category1/CS4.png","","","","",""
"","html-keyboard-response","56","223910","0.0-6.0-4.0-0.8","1zwmlmap3z","one_one","1","indirect_first","0","AM03UT15","0","31","1","0","3","1","","0","1","0","null","","","<div class = 'row'><div class = 'column'><img src = 'category3/CS5.png' width = '70%;'></div><div class = 'column'><img src = 'usneg/9290.bmp' width = '100%;'></div></div>","null","neg","CS","CS","3","category3/CS5.png","","","","",""
"","html-keyboard-response","57","226432","0.0-6.0-4.0-0.9","1zwmlmap3z","one_one","1","indirect_first","0","AM03UT15","0","31","1","0","3","1","","0","1","0","null","","","<div class = 'row'><div class = 'column'><img src = 'category2/CS6.png' width = '70%;'></div><div class = 'column'><img src = 'usneg/9584.bmp' width = '100%;'></div></div>","null","neg","CS","CS","2","category2/CS6.png","","","","",""
"","html-keyboard-response","58","228947","0.0-6.0-4.0-0.10","1zwmlmap3z","one_one","1","indirect_first","0","AM03UT15","0","31","1","0","3","1","","0","1","0","null","","","<div class = 'row'><div class = 'column'><img src = 'category3/CS5.png' width = '70%;'></div><div class = 'column'><img src = 'usneg/9290.bmp' width = '100%;'></div></div>","null","neg","CS","CS","3","category3/CS5.png","","","","",""
"","html-keyboard-response","59","231467","0.0-6.0-4.0-0.11","1zwmlmap3z","one_one","1","indirect_first","0","AM03UT15","0","31","1","0","3","1","","0","1","0","null","","","<div class = 'row'><div class = 'column'><img src = 'uspos/2057.bmp' width = '100%;'></div><div class = 'column'><img src = 'category1/CS4.png' width = '70%;'></div></div>","null","pos","CS","CS","1","category1/CS4.png","","","","",""
"","html-keyboard-response","60","233977","0.0-6.0-4.0-0.12","1zwmlmap3z","one_one","1","indirect_first","0","AM03UT15","0","31","1","0","3","1","","0","1","0","null","","","<div class = 'row'><div class = 'column'><img src = 'uspos/5700.bmp' width = '100%;'></div><div class = 'column'><img src = 'category4/CS5.png' width = '70%;'></div></div>","null","pos","CS","CS","4","category4/CS5.png","","","","",""
"","html-keyboard-response","61","236514","0.0-6.0-4.0-0.13","1zwmlmap3z","one_one","1","indirect_first","0","AM03UT15","0","31","1","0","3","1","","0","1","0","null","","","<div class = 'row'><div class = 'column'><img src = 'category1/CS4.png' width = '70%;'></div><div class = 'column'><img src = 'uspos/2057.bmp' width = '100%;'></div></div>","null","pos","CS","CS","1","category1/CS4.png","","","","",""
"","html-keyboard-response","62","239029","0.0-6.0-4.0-0.14","1zwmlmap3z","one_one","1","indirect_first","0","AM03UT15","0","31","1","0","3","1","","0","1","0","null","","","<div class = 'row'><div class = 'column'><img src = 'category4/CS5.png' width = '70%;'></div><div class = 'column'><img src = 'uspos/5700.bmp' width = '100%;'></div></div>","null","pos","CS","CS","4","category4/CS5.png","","","","",""
"","html-keyboard-response","63","241563","0.0-6.0-4.0-0.15","1zwmlmap3z","one_one","1","indirect_first","0","AM03UT15","0","31","1","0","3","1","","0","1","0","null","","","<div class = 'row'><div class = 'column'><img src = 'usneg/9584.bmp' width = '100%;'></div><div class = 'column'><img src = 'category2/CS6.png' width = '70%;'></div></div>","null","neg","CS","CS","2","category2/CS6.png","","","","",""
"","html-keyboard-response","64","244095","0.0-6.0-4.0-0.16","1zwmlmap3z","one_one","1","indirect_first","0","AM03UT15","0","31","1","0","3","1","","0","1","0","null","","","<div class = 'row'><div class = 'column'><img src = 'uspos/5700.bmp' width = '100%;'></div><div class = 'column'><img src = 'category4/CS5.png' width = '70%;'></div></div>","null","pos","CS","CS","4","category4/CS5.png","","","","",""
"","html-keyboard-response","65","246619","0.0-6.0-4.0-0.17","1zwmlmap3z","one_one","1","indirect_first","0","AM03UT15","0","31","1","0","3","1","","0","1","0","null","","","<div class = 'row'><div class = 'column'><img src = 'uspos/2057.bmp' width = '100%;'></div><div class = 'column'><img src = 'category1/CS4.png' width = '70%;'></div></div>","null","pos","CS","CS","1","category1/CS4.png","","","","",""
"","html-keyboard-response","66","249138","0.0-6.0-4.0-0.18","1zwmlmap3z","one_one","1","indirect_first","0","AM03UT15","0","31","1","0","3","1","","0","1","0","null","","","<div class = 'row'><div class = 'column'><img src = 'uspos/5700.bmp' width = '100%;'></div><div class = 'column'><img src = 'category4/CS5.png' width = '70%;'></div></div>","null","pos","CS","CS","4","category4/CS5.png","","","","",""
"","html-keyboard-response","67","251665","0.0-6.0-4.0-0.19","1zwmlmap3z","one_one","1","indirect_first","0","AM03UT15","0","31","1","0","3","1","","0","1","0","null","","","<div class = 'row'><div class = 'column'><img src = 'usneg/9584.bmp' width = '100%;'></div><div class = 'column'><img src = 'category2/CS6.png' width = '70%;'></div></div>","null","neg","CS","CS","2","category2/CS6.png","","","","",""
"","survey-html-form","68","257348","0.0-6.0-5.0","1zwmlmap3z","one_one","1","indirect_first","0","AM03UT15","0","31","1","0","3","1","","0","1","0","5180.775000015274","","{}","","","","","","","","","","","",""
"","html-keyboard-response","69","261359","0.0-6.0-6.0-0.0","1zwmlmap3z","one_one","1","indirect_first","0","AM03UT15","0","31","1","0","3","1","","0","1","0","null","","","<div class = 'row'><div class = 'column'><img src = 'category3/CS5.png' width = '70%;'></div><div class = 'column'><img src = 'usneg/9290.bmp' width = '100%;'></div></div>","null","neg","CS","CS","3","category3/CS5.png","","","","",""
"","html-keyboard-response","70","263871","0.0-6.0-6.0-0.1","1zwmlmap3z","one_one","1","indirect_first","0","AM03UT15","0","31","1","0","3","1","","0","1","0","null","","","<div class = 'row'><div class = 'column'><img src = 'uspos/2057.bmp' width = '100%;'></div><div class = 'column'><img src = 'category1/CS4.png' width = '70%;'></div></div>","null","pos","CS","CS","1","category1/CS4.png","","","","",""
"","html-keyboard-response","71","266396","0.0-6.0-6.0-0.2","1zwmlmap3z","one_one","1","indirect_first","0","AM03UT15","0","31","1","0","3","1","","0","1","0","null","","","<div class = 'row'><div class = 'column'><img src = 'category3/CS5.png' width = '70%;'></div><div class = 'column'><img src = 'usneg/9290.bmp' width = '100%;'></div></div>","null","neg","CS","CS","3","category3/CS5.png","","","","",""
"","html-keyboard-response","72","268909","0.0-6.0-6.0-0.3","1zwmlmap3z","one_one","1","indirect_first","0","AM03UT15","0","31","1","0","3","1","","0","1","0","null","","","<div class = 'row'><div class = 'column'><img src = 'category2/CS6.png' width = '70%;'></div><div class = 'column'><img src = 'usneg/9584.bmp' width = '100%;'></div></div>","null","neg","CS","CS","2","category2/CS6.png","","","","",""
"","html-keyboard-response","73","271425","0.0-6.0-6.0-0.4","1zwmlmap3z","one_one","1","indirect_first","0","AM03UT15","0","31","1","0","3","1","","0","1","0","null","","","<div class = 'row'><div class = 'column'><img src = 'category4/CS5.png' width = '70%;'></div><div class = 'column'><img src = 'uspos/5700.bmp' width = '100%;'></div></div>","null","pos","CS","CS","4","category4/CS5.png","","","","",""
"","html-keyboard-response","74","273943","0.0-6.0-6.0-0.5","1zwmlmap3z","one_one","1","indirect_first","0","AM03UT15","0","31","1","0","3","1","","0","1","0","null","","","<div class = 'row'><div class = 'column'><img src = 'category2/CS6.png' width = '70%;'></div><div class = 'column'><img src = 'usneg/9584.bmp' width = '100%;'></div></div>","null","neg","CS","CS","2","category2/CS6.png","","","","",""
"","html-keyboard-response","75","276458","0.0-6.0-6.0-0.6","1zwmlmap3z","one_one","1","indirect_first","0","AM03UT15","0","31","1","0","3","1","","0","1","0","null","","","<div class = 'row'><div class = 'column'><img src = 'category4/CS5.png' width = '70%;'></div><div class = 'column'><img src = 'uspos/5700.bmp' width = '100%;'></div></div>","null","pos","CS","CS","4","category4/CS5.png","","","","",""
"","html-keyboard-response","76","278973","0.0-6.0-6.0-0.7","1zwmlmap3z","one_one","1","indirect_first","0","AM03UT15","0","31","1","0","3","1","","0","1","0","null","","","<div class = 'row'><div class = 'column'><img src = 'usneg/9290.bmp' width = '100%;'></div><div class = 'column'><img src = 'category3/CS5.png' width = '70%;'></div></div>","null","neg","CS","CS","3","category3/CS5.png","","","","",""
"","html-keyboard-response","77","281497","0.0-6.0-6.0-0.8","1zwmlmap3z","one_one","1","indirect_first","0","AM03UT15","0","31","1","0","3","1","","0","1","0","null","","","<div class = 'row'><div class = 'column'><img src = 'uspos/2057.bmp' width = '100%;'></div><div class = 'column'><img src = 'category1/CS4.png' width = '70%;'></div></div>","null","pos","CS","CS","1","category1/CS4.png","","","","",""
"","html-keyboard-response","78","284023","0.0-6.0-6.0-0.9","1zwmlmap3z","one_one","1","indirect_first","0","AM03UT15","0","31","1","0","3","1","","0","1","0","null","","","<div class = 'row'><div class = 'column'><img src = 'uspos/5700.bmp' width = '100%;'></div><div class = 'column'><img src = 'category4/CS5.png' width = '70%;'></div></div>","null","pos","CS","CS","4","category4/CS5.png","","","","",""
"","html-keyboard-response","79","286565","0.0-6.0-6.0-0.10","1zwmlmap3z","one_one","1","indirect_first","0","AM03UT15","0","31","1","0","3","1","","0","1","0","null","","","<div class = 'row'><div class = 'column'><img src = 'usneg/9584.bmp' width = '100%;'></div><div class = 'column'><img src = 'category2/CS6.png' width = '70%;'></div></div>","null","neg","CS","CS","2","category2/CS6.png","","","","",""
"","html-keyboard-response","80","289078","0.0-6.0-6.0-0.11","1zwmlmap3z","one_one","1","indirect_first","0","AM03UT15","0","31","1","0","3","1","","0","1","0","null","","","<div class = 'row'><div class = 'column'><img src = 'uspos/5700.bmp' width = '100%;'></div><div class = 'column'><img src = 'category4/CS5.png' width = '70%;'></div></div>","null","pos","CS","CS","4","category4/CS5.png","","","","",""
"","html-keyboard-response","81","291610","0.0-6.0-6.0-0.12","1zwmlmap3z","one_one","1","indirect_first","0","AM03UT15","0","31","1","0","3","1","","0","1","0","null","","","<div class = 'row'><div class = 'column'><img src = 'category2/CS6.png' width = '70%;'></div><div class = 'column'><img src = 'usneg/9584.bmp' width = '100%;'></div></div>","null","neg","CS","CS","2","category2/CS6.png","","","","",""
"","html-keyboard-response","82","294141","0.0-6.0-6.0-0.13","1zwmlmap3z","one_one","1","indirect_first","0","AM03UT15","0","31","1","0","3","1","","0","1","0","null","","","<div class = 'row'><div class = 'column'><img src = 'category1/CS4.png' width = '70%;'></div><div class = 'column'><img src = 'uspos/2057.bmp' width = '100%;'></div></div>","null","pos","CS","CS","1","category1/CS4.png","","","","",""
"","html-keyboard-response","83","296667","0.0-6.0-6.0-0.14","1zwmlmap3z","one_one","1","indirect_first","0","AM03UT15","0","31","1","0","3","1","","0","1","0","null","","","<div class = 'row'><div class = 'column'><img src = 'category3/CS5.png' width = '70%;'></div><div class = 'column'><img src = 'usneg/9290.bmp' width = '100%;'></div></div>","null","neg","CS","CS","3","category3/CS5.png","","","","",""
"","html-keyboard-response","84","299195","0.0-6.0-6.0-0.15","1zwmlmap3z","one_one","1","indirect_first","0","AM03UT15","0","31","1","0","3","1","","0","1","0","null","","","<div class = 'row'><div class = 'column'><img src = 'uspos/2057.bmp' width = '100%;'></div><div class = 'column'><img src = 'category1/CS4.png' width = '70%;'></div></div>","null","pos","CS","CS","1","category1/CS4.png","","","","",""
"","html-keyboard-response","85","301706","0.0-6.0-6.0-0.16","1zwmlmap3z","one_one","1","indirect_first","0","AM03UT15","0","31","1","0","3","1","","0","1","0","null","","","<div class = 'row'><div class = 'column'><img src = 'uspos/5700.bmp' width = '100%;'></div><div class = 'column'><img src = 'category4/CS5.png' width = '70%;'></div></div>","null","pos","CS","CS","4","category4/CS5.png","","","","",""
"","html-keyboard-response","86","304222","0.0-6.0-6.0-0.17","1zwmlmap3z","one_one","1","indirect_first","0","AM03UT15","0","31","1","0","3","1","","0","1","0","null","","","<div class = 'row'><div class = 'column'><img src = 'category3/CS5.png' width = '70%;'></div><div class = 'column'><img src = 'usneg/9290.bmp' width = '100%;'></div></div>","null","neg","CS","CS","3","category3/CS5.png","","","","",""
"","html-keyboard-response","87","306734","0.0-6.0-6.0-0.18","1zwmlmap3z","one_one","1","indirect_first","0","AM03UT15","0","31","1","0","3","1","","0","1","0","null","","","<div class = 'row'><div class = 'column'><img src = 'category1/CS4.png' width = '70%;'></div><div class = 'column'><img src = 'uspos/2057.bmp' width = '100%;'></div></div>","null","pos","CS","CS","1","category1/CS4.png","","","","",""
"","html-keyboard-response","88","309246","0.0-6.0-6.0-0.19","1zwmlmap3z","one_one","1","indirect_first","0","AM03UT15","0","31","1","0","3","1","","0","1","0","null","","","<div class = 'row'><div class = 'column'><img src = 'category2/CS6.png' width = '70%;'></div><div class = 'column'><img src = 'usneg/9584.bmp' width = '100%;'></div></div>","null","neg","CS","CS","2","category2/CS6.png","","","","",""
"","html-keyboard-response","89","332453","0.0-7.0","1zwmlmap3z","one_one","1","indirect_first","0","AM03UT15","0","31","1","0","3","1","","0","1","0","22693.53000004776","","","<p>Sie sehen nun die chinesischen Zeichen nur ganz kurz. Danach sehen Sie die jeweilige Aussprache der Zeichen als Silbe auf dem Bildschrim. Ihre Aufgabe ist es, für jede Silbe anzugeben, ob diese etwas angenehmes, oder unangenehmes bedeuten könnte. Verlassen Sie sich hier vor allem auf Ihre Intuition.<br><br>Die Zeichen werden nur zur Orientierung dargestellt, beachten Sie sie deshalb nicht. Konzentrieren Sie sich vor allem auf die Silben. <br>Reagieren Sie mit folgenden zwei Tasten: <br><br><b>'D' </b> wenn die Silbe etwas <b>unangenehmes</b> bedeuten könnte. <br><b>'K'</b> wenn die Silbe etwas <b>angenehmes</b> bedeuten könnte. <br><br>Bitte legen Sie nun den Zeigefinger der linken Hand auf die Taste 'D' und den Zeigefinger der rechten Hand auf die Taste 'K'. <br>Reagieren Sie auf jede Silbe so schnell wie möglich. Uns interessiert Ihre spontane Reaktion. <br> <br> <br>Drücken Sie 'D' oder 'K', um die nächste Aufgabe zu starten. </p>","68","","","","","","","","","",""
"","html-keyboard-response","90","335457","0.0-8.0-0.0","1zwmlmap3z","one_one","1","indirect_first","0","AM03UT15","0","31","1","0","3","1","","0","1","0","null","","","<div style=""font-size:60px;"">+</div>","null","","","","","","","","","",""
"","html-keyboard-response","91","335558","0.0-8.0-1.0","1zwmlmap3z","one_one","1","indirect_first","0","AM03UT15","0","31","1","0","3","1","","0","1","0","null","","","<img src = 'category4/CS5.png' width = '100%;'>","null","","","","","","","","","",""
"","html-keyboard-response","92","335827","0.0-8.0-2.0","1zwmlmap3z","one_one","1","indirect_first","0","AM03UT15","0","31","1","0","3","1","","0","1","0","null","","","<img src = 'targets/29.png' width = '100%;'>","null","","","","","","","","","",""
"","html-keyboard-response","93","339035","0.0-8.0-3.0","1zwmlmap3z","one_one","1","indirect_first","0","AM03UT15","0","31","1","0","3","1","","0","1","0","3206.6349999513477","","","<img src = 'targets/mask.png' width = '100%;'>","75","pos","CS","CS","4","category4/CS5.png","targets/29.png","1","indirect","0",""
"","html-keyboard-response","94","340557","0.0-8.0-0.1","1zwmlmap3z","one_one","1","indirect_first","0","AM03UT15","0","31","1","0","3","1","","0","1","0","null","","","<div style=""font-size:60px;"">+</div>","null","","","","","","","","","",""
"","html-keyboard-response","95","340673","0.0-8.0-1.1","1zwmlmap3z","one_one","1","indirect_first","0","AM03UT15","0","31","1","0","3","1","","0","1","0","null","","","<img src = 'category1/CS6.png' width = '100%;'>","null","","","","","","","","","",""
"","html-keyboard-response","96","340940","0.0-8.0-2.1","1zwmlmap3z","one_one","1","indirect_first","0","AM03UT15","0","31","1","0","3","1","","0","1","0","null","","","<img src = 'targets/47.png' width = '100%;'>","null","","","","","","","","","",""
"","html-keyboard-response","97","342526","0.0-8.0-3.1","1zwmlmap3z","one_one","1","indirect_first","0","AM03UT15","0","31","1","0","3","1","","0","1","0","1584.2800000682473","","","<img src = 'targets/mask.png' width = '100%;'>","68","pos","GS","GSold","1","category1/CS6.png","targets/47.png","0","indirect","1",""
"","html-keyboard-response","98","344033","0.0-8.0-0.2","1zwmlmap3z","one_one","1","indirect_first","0","AM03UT15","0","31","1","0","3","1","","0","1","0","null","","","<div style=""font-size:60px;"">+</div>","null","","","","","","","","","",""
"","html-keyboard-response","99","344134","0.0-8.0-1.2","1zwmlmap3z","one_one","1","indirect_first","0","AM03UT15","0","31","1","0","3","1","","0","1","0","null","","","<img src = 'category2/CS5.png' width = '100%;'>","null","","","","","","","","","",""
"","html-keyboard-response","100","344404","0.0-8.0-2.2","1zwmlmap3z","one_one","1","indirect_first","0","AM03UT15","0","31","1","0","3","1","","0","1","0","null","","","<img src = 'targets/16.png' width = '100%;'>","null","","","","","","","","","",""
"","html-keyboard-response","101","345133","0.0-8.0-3.2","1zwmlmap3z","one_one","1","indirect_first","0","AM03UT15","0","31","1","0","3","1","","0","1","0","727.5300000328571","","","<img src = 'targets/mask.png' width = '100%;'>","75","neg","GS","GSold","2","category2/CS5.png","targets/16.png","1","indirect","2",""
"","html-keyboard-response","102","346648","0.0-8.0-0.3","1zwmlmap3z","one_one","1","indirect_first","0","AM03UT15","0","31","1","0","3","1","","0","1","0","null","","","<div style=""font-size:60px;"">+</div>","null","","","","","","","","","",""
"","html-keyboard-response","103","346749","0.0-8.0-1.3","1zwmlmap3z","one_one","1","indirect_first","0","AM03UT15","0","31","1","0","3","1","","0","1","0","null","","","<img src = 'category3/CS5.png' width = '100%;'>","null","","","","","","","","","",""
"","html-keyboard-response","104","347014","0.0-8.0-2.3","1zwmlmap3z","one_one","1","indirect_first","0","AM03UT15","0","31","1","0","3","1","","0","1","0","null","","","<img src = 'targets/41.png' width = '100%;'>","null","","","","","","","","","",""
"","html-keyboard-response","105","349502","0.0-8.0-3.3","1zwmlmap3z","one_one","1","indirect_first","0","AM03UT15","0","31","1","0","3","1","","0","1","0","2485.1049999706447","","","<img src = 'targets/mask.png' width = '100%;'>","68","neg","CS","CS","3","category3/CS5.png","targets/41.png","0","indirect","3",""
"","html-keyboard-response","106","351020","0.0-8.0-0.4","1zwmlmap3z","one_one","1","indirect_first","0","AM03UT15","0","31","1","0","3","1","","0","1","0","null","","","<div style=""font-size:60px;"">+</div>","null","","","","","","","","","",""
"","html-keyboard-response","107","351126","0.0-8.0-1.4","1zwmlmap3z","one_one","1","indirect_first","0","AM03UT15","0","31","1","0","3","1","","0","1","0","null","","","<img src = 'category2/CS6.png' width = '100%;'>","null","","","","","","","","","",""
"","html-keyboard-response","108","351392","0.0-8.0-2.4","1zwmlmap3z","one_one","1","indirect_first","0","AM03UT15","0","31","1","0","3","1","","0","1","0","null","","","<img src = 'targets/38.png' width = '100%;'>","null","","","","","","","","","",""
"","html-keyboard-response","109","352914","0.0-8.0-3.4","1zwmlmap3z","one_one","1","indirect_first","0","AM03UT15","0","31","1","0","3","1","","0","1","0","1519.484999938868","","","<img src = 'targets/mask.png' width = '100%;'>","68","neg","CS","CS","2","category2/CS6.png","targets/38.png","0","indirect","4",""
"","html-keyboard-response","110","354454","0.0-8.0-0.5","1zwmlmap3z","one_one","1","indirect_first","0","AM03UT15","0","31","1","0","3","1","","0","1","0","null","","","<div style=""font-size:60px;"">+</div>","null","","","","","","","","","",""
"","html-keyboard-response","111","354554","0.0-8.0-1.5","1zwmlmap3z","one_one","1","indirect_first","0","AM03UT15","0","31","1","0","3","1","","0","1","0","null","","","<img src = 'category3/CS1.png' width = '100%;'>","null","","","","","","","","","",""
"","html-keyboard-response","112","354818","0.0-8.0-2.5","1zwmlmap3z","one_one","1","indirect_first","0","AM03UT15","0","31","1","0","3","1","","0","1","0","null","","","<img src = 'targets/4.png' width = '100%;'>","null","","","","","","","","","",""
"","html-keyboard-response","113","357092","0.0-8.0-3.5","1zwmlmap3z","one_one","1","indirect_first","0","AM03UT15","0","31","1","0","3","1","","0","1","0","2272.149999975227","","","<img src = 'targets/mask.png' width = '100%;'>","68","neg","GS","GSold","3","category3/CS1.png","targets/4.png","0","indirect","5",""
"","html-keyboard-response","114","358606","0.0-8.0-0.6","1zwmlmap3z","one_one","1","indirect_first","0","AM03UT15","0","31","1","0","3","1","","0","1","0","null","","","<div style=""font-size:60px;"">+</div>","null","","","","","","","","","",""
"","html-keyboard-response","115","358703","0.0-8.0-1.6","1zwmlmap3z","one_one","1","indirect_first","0","AM03UT15","0","31","1","0","3","1","","0","1","0","null","","","<img src = 'category4/CS7.png' width = '100%;'>","null","","","","","","","","","",""
"","html-keyboard-response","116","358976","0.0-8.0-2.6","1zwmlmap3z","one_one","1","indirect_first","0","AM03UT15","0","31","1","0","3","1","","0","1","0","null","","","<img src = 'targets/13.png' width = '100%;'>","null","","","","","","","","","",""
"","html-keyboard-response","117","359502","0.0-8.0-3.6","1zwmlmap3z","one_one","1","indirect_first","0","AM03UT15","0","31","1","0","3","1","","0","1","0","523.4500000951812","","","<img src = 'targets/mask.png' width = '100%;'>","75","pos","GS","GSold","4","category4/CS7.png","targets/13.png","1","indirect","6",""
"","html-keyboard-response","118","361017","0.0-8.0-0.7","1zwmlmap3z","one_one","1","indirect_first","0","AM03UT15","0","31","1","0","3","1","","0","1","0","null","","","<div style=""font-size:60px;"">+</div>","null","","","","","","","","","",""
"","html-keyboard-response","119","361110","0.0-8.0-1.7","1zwmlmap3z","one_one","1","indirect_first","0","AM03UT15","0","31","1","0","3","1","","0","1","0","null","","","<img src = 'category4/CS4.png' width = '100%;'>","null","","","","","","","","","",""
"","html-keyboard-response","120","361387","0.0-8.0-2.7","1zwmlmap3z","one_one","1","indirect_first","0","AM03UT15","0","31","1","0","3","1","","0","1","0","null","","","<img src = 'targets/5.png' width = '100%;'>","null","","","","","","","","","",""
"","html-keyboard-response","121","361977","0.0-8.0-3.7","1zwmlmap3z","one_one","1","indirect_first","0","AM03UT15","0","31","1","0","3","1","","0","1","0","587.9999999888241","","","<img src = 'targets/mask.png' width = '100%;'>","75","pos","GS","GSold","4","category4/CS4.png","targets/5.png","1","indirect","7",""
"","html-keyboard-response","122","363495","0.0-8.0-0.8","1zwmlmap3z","one_one","1","indirect_first","0","AM03UT15","0","31","1","0","3","1","","0","1","0","null","","","<div style=""font-size:60px;"">+</div>","null","","","","","","","","","",""
"","html-keyboard-response","123","363595","0.0-8.0-1.8","1zwmlmap3z","one_one","1","indirect_first","0","AM03UT15","0","31","1","0","3","1","","0","1","0","null","","","<img src = 'category1/CS4.png' width = '100%;'>","null","","","","","","","","","",""
"","html-keyboard-response","124","363863","0.0-8.0-2.8","1zwmlmap3z","one_one","1","indirect_first","0","AM03UT15","0","31","1","0","3","1","","0","1","0","null","","","<img src = 'targets/2.png' width = '100%;'>","null","","","","","","","","","",""
"","html-keyboard-response","125","364994","0.0-8.0-3.8","1zwmlmap3z","one_one","1","indirect_first","0","AM03UT15","0","31","1","0","3","1","","0","1","0","1128.8350000977516","","","<img src = 'targets/mask.png' width = '100%;'>","75","pos","CS","CS","1","category1/CS4.png","targets/2.png","1","indirect","8",""
"","html-keyboard-response","126","366508","0.0-8.0-0.9","1zwmlmap3z","one_one","1","indirect_first","0","AM03UT15","0","31","1","0","3","1","","0","1","0","null","","","<div style=""font-size:60px;"">+</div>","null","","","","","","","","","",""
"","html-keyboard-response","127","366608","0.0-8.0-1.9","1zwmlmap3z","one_one","1","indirect_first","0","AM03UT15","0","31","1","0","3","1","","0","1","0","null","","","<img src = 'category3/CS4.png' width = '100%;'>","null","","","","","","","","","",""
"","html-keyboard-response","128","366876","0.0-8.0-2.9","1zwmlmap3z","one_one","1","indirect_first","0","AM03UT15","0","31","1","0","3","1","","0","1","0","null","","","<img src = 'targets/39.png' width = '100%;'>","null","","","","","","","","","",""
"","html-keyboard-response","129","368674","0.0-8.0-3.9","1zwmlmap3z","one_one","1","indirect_first","0","AM03UT15","0","31","1","0","3","1","","0","1","0","1795.0100000016391","","","<img src = 'targets/mask.png' width = '100%;'>","75","neg","GS","GSold","3","category3/CS4.png","targets/39.png","1","indirect","9",""
"","html-keyboard-response","130","370187","0.0-8.0-0.10","1zwmlmap3z","one_one","1","indirect_first","0","AM03UT15","0","31","1","0","3","1","","0","1","0","null","","","<div style=""font-size:60px;"">+</div>","null","","","","","","","","","",""
"","html-keyboard-response","131","370287","0.0-8.0-1.10","1zwmlmap3z","one_one","1","indirect_first","0","AM03UT15","0","31","1","0","3","1","","0","1","0","null","","","<img src = 'category2/CS9.png' width = '100%;'>","null","","","","","","","","","",""
"","html-keyboard-response","132","370568","0.0-8.0-2.10","1zwmlmap3z","one_one","1","indirect_first","0","AM03UT15","0","31","1","0","3","1","","0","1","0","null","","","<img src = 'targets/22.png' width = '100%;'>","null","","","","","","","","","",""
"","html-keyboard-response","133","372224","0.0-8.0-3.10","1zwmlmap3z","one_one","1","indirect_first","0","AM03UT15","0","31","1","0","3","1","","0","1","0","1654.3599999276921","","","<img src = 'targets/mask.png' width = '100%;'>","75","neg","GS","GSold","2","category2/CS9.png","targets/22.png","1","indirect","10",""
"","html-keyboard-response","134","373748","0.0-8.0-0.11","1zwmlmap3z","one_one","1","indirect_first","0","AM03UT15","0","31","1","0","3","1","","0","1","0","null","","","<div style=""font-size:60px;"">+</div>","null","","","","","","","","","",""
"","html-keyboard-response","135","373850","0.0-8.0-1.11","1zwmlmap3z","one_one","1","indirect_first","0","AM03UT15","0","31","1","0","3","1","","0","1","0","null","","","<img src = 'category1/CS9.png' width = '100%;'>","null","","","","","","","","","",""
"","html-keyboard-response","136","374110","0.0-8.0-2.11","1zwmlmap3z","one_one","1","indirect_first","0","AM03UT15","0","31","1","0","3","1","","0","1","0","null","","","<img src = 'targets/1.png' width = '100%;'>","null","","","","","","","","","",""
"","html-keyboard-response","137","375016","0.0-8.0-3.11","1zwmlmap3z","one_one","1","indirect_first","0","AM03UT15","0","31","1","0","3","1","","0","1","0","903.4799999790266","","","<img src = 'targets/mask.png' width = '100%;'>","68","pos","GS","GSold","1","category1/CS9.png","targets/1.png","0","indirect","11",""
"","html-keyboard-response","138","376537","0.0-8.0-0.12","1zwmlmap3z","one_one","1","indirect_first","0","AM03UT15","0","31","1","0","3","1","","0","1","0","null","","","<div style=""font-size:60px;"">+</div>","null","","","","","","","","","",""
"","html-keyboard-response","139","376637","0.0-8.0-1.12","1zwmlmap3z","one_one","1","indirect_first","0","AM03UT15","0","31","1","0","3","1","","0","1","0","null","","","<img src = 'category4/CS10.png' width = '100%;'>","null","","","","","","","","","",""
"","html-keyboard-response","140","376906","0.0-8.0-2.12","1zwmlmap3z","one_one","1","indirect_first","0","AM03UT15","0","31","1","0","3","1","","0","1","0","null","","","<img src = 'targets/15.png' width = '100%;'>","null","","","","","","","","","",""
"","html-keyboard-response","141","377647","0.0-8.0-3.12","1zwmlmap3z","one_one","1","indirect_first","0","AM03UT15","0","31","1","0","3","1","","0","1","0","738.9300001086667","","","<img src = 'targets/mask.png' width = '100%;'>","75","pos","GS","GSold","4","category4/CS10.png","targets/15.png","1","indirect","12",""
"","html-keyboard-response","142","379166","0.0-8.0-0.13","1zwmlmap3z","one_one","1","indirect_first","0","AM03UT15","0","31","1","0","3","1","","0","1","0","null","","","<div style=""font-size:60px;"">+</div>","null","","","","","","","","","",""
"","html-keyboard-response","143","379273","0.0-8.0-1.13","1zwmlmap3z","one_one","1","indirect_first","0","AM03UT15","0","31","1","0","3","1","","0","1","0","null","","","<img src = 'category1/CS3.png' width = '100%;'>","null","","","","","","","","","",""
"","html-keyboard-response","144","379552","0.0-8.0-2.13","1zwmlmap3z","one_one","1","indirect_first","0","AM03UT15","0","31","1","0","3","1","","0","1","0","null","","","<img src = 'targets/43.png' width = '100%;'>","null","","","","","","","","","",""
"","html-keyboard-response","145","380239","0.0-8.0-3.13","1zwmlmap3z","one_one","1","indirect_first","0","AM03UT15","0","31","1","0","3","1","","0","1","0","684.7550000529736","","","<img src = 'targets/mask.png' width = '100%;'>","75","pos","GS","GSold","1","category1/CS3.png","targets/43.png","1","indirect","13",""
"","html-keyboard-response","146","381761","0.0-8.0-0.14","1zwmlmap3z","one_one","1","indirect_first","0","AM03UT15","0","31","1","0","3","1","","0","1","0","null","","","<div style=""font-size:60px;"">+</div>","null","","","","","","","","","",""
"","html-keyboard-response","147","381860","0.0-8.0-1.14","1zwmlmap3z","one_one","1","indirect_first","0","AM03UT15","0","31","1","0","3","1","","0","1","0","null","","","<img src = 'category3/CS8.png' width = '100%;'>","null","","","","","","","","","",""
"","html-keyboard-response","148","382134","0.0-8.0-2.14","1zwmlmap3z","one_one","1","indirect_first","0","AM03UT15","0","31","1","0","3","1","","0","1","0","null","","","<img src = 'targets/48.png' width = '100%;'>","null","","","","","","","","","",""
"","html-keyboard-response","149","382726","0.0-8.0-3.14","1zwmlmap3z","one_one","1","indirect_first","0","AM03UT15","0","31","1","0","3","1","","0","1","0","589.8750000633299","","","<img src = 'targets/mask.png' width = '100%;'>","68","neg","GS","GSold","3","category3/CS8.png","targets/48.png","0","indirect","14",""
"","html-keyboard-response","150","384245","0.0-8.0-0.15","1zwmlmap3z","one_one","1","indirect_first","0","AM03UT15","0","31","1","0","3","1","","0","1","0","null","","","<div style=""font-size:60px;"">+</div>","null","","","","","","","","","",""
"","html-keyboard-response","151","384343","0.0-8.0-1.15","1zwmlmap3z","one_one","1","indirect_first","0","AM03UT15","0","31","1","0","3","1","","0","1","0","null","","","<img src = 'category2/CS4.png' width = '100%;'>","null","","","","","","","","","",""
"","html-keyboard-response","152","384615","0.0-8.0-2.15","1zwmlmap3z","one_one","1","indirect_first","0","AM03UT15","0","31","1","0","3","1","","0","1","0","null","","","<img src = 'targets/44.png' width = '100%;'>","null","","","","","","","","","",""
"","html-keyboard-response","153","385180","0.0-8.0-3.15","1zwmlmap3z","one_one","1","indirect_first","0","AM03UT15","0","31","1","0","3","1","","0","1","0","563.374999910593","","","<img src = 'targets/mask.png' width = '100%;'>","75","neg","GS","GSold","2","category2/CS4.png","targets/44.png","1","indirect","15",""
"","survey-html-form","154","386986","0.0-9.0","1zwmlmap3z","one_one","1","indirect_first","0","AM03UT15","0","31","1","0","3","1","","0","1","0","1292.7350000245497","","{}","","","","","","","","","","","",""
"","html-keyboard-response","155","389993","0.0-10.0-0.0","1zwmlmap3z","one_one","1","indirect_first","0","AM03UT15","0","31","1","0","3","1","","0","1","0","null","","","<div style=""font-size:60px;"">+</div>","null","","","","","","","","","",""
"","html-keyboard-response","156","390087","0.0-10.0-1.0","1zwmlmap3z","one_one","1","indirect_first","0","AM03UT15","0","31","1","0","3","1","","0","1","0","null","","","<img src = 'category3/wang.png' width = '100%;'>","null","","","","","","","","","",""
"","html-keyboard-response","157","390357","0.0-10.0-2.0","1zwmlmap3z","one_one","1","indirect_first","0","AM03UT15","0","31","1","0","3","1","","0","1","0","null","","","<img src = 'targets/11.png' width = '100%;'>","null","","","","","","","","","",""
"","html-keyboard-response","158","392277","0.0-10.0-3.0","1zwmlmap3z","one_one","1","indirect_first","0","AM03UT15","0","31","1","0","3","1","","0","1","0","1916.9850000180304","","","<img src = 'targets/mask.png' width = '100%;'>","68","neg","GS","abstract","3","category3/wang.png","targets/11.png","0","indirect","16",""
"","html-keyboard-response","159","393784","0.0-10.0-0.1","1zwmlmap3z","one_one","1","indirect_first","0","AM03UT15","0","31","1","0","3","1","","0","1","0","null","","","<div style=""font-size:60px;"">+</div>","null","","","","","","","","","",""
"","html-keyboard-response","160","393879","0.0-10.0-1.1","1zwmlmap3z","one_one","1","indirect_first","0","AM03UT15","0","31","1","0","3","1","","0","1","0","null","","","<img src = 'category1/ma.png' width = '100%;'>","null","","","","","","","","","",""
"","html-keyboard-response","161","394138","0.0-10.0-2.1","1zwmlmap3z","one_one","1","indirect_first","0","AM03UT15","0","31","1","0","3","1","","0","1","0","null","","","<img src = 'targets/46.png' width = '100%;'>","null","","","","","","","","","",""
"","html-keyboard-response","162","394917","0.0-10.0-3.1","1zwmlmap3z","one_one","1","indirect_first","0","AM03UT15","0","31","1","0","3","1","","0","1","0","775.3200000151992","","","<img src = 'targets/mask.png' width = '100%;'>","75","pos","GS","abstract","1","category1/ma.png","targets/46.png","1","indirect","17",""
"","html-keyboard-response","163","396433","0.0-10.0-0.2","1zwmlmap3z","one_one","1","indirect_first","0","AM03UT15","0","31","1","0","3","1","","0","1","0","null","","","<div style=""font-size:60px;"">+</div>","null","","","","","","","","","",""
"","html-keyboard-response","164","396532","0.0-10.0-1.2","1zwmlmap3z","one_one","1","indirect_first","0","AM03UT15","0","31","1","0","3","1","","0","1","0","null","","","<img src = 'category1/GS1.png' width = '100%;'>","null","","","","","","","","","",""
"","html-keyboard-response","165","396797","0.0-10.0-2.2","1zwmlmap3z","one_one","1","indirect_first","0","AM03UT15","0","31","1","0","3","1","","0","1","0","null","","","<img src = 'targets/7.png' width = '100%;'>","null","","","","","","","","","",""
"","html-keyboard-response","166","398266","0.0-10.0-3.2","1zwmlmap3z","one_one","1","indirect_first","0","AM03UT15","0","31","1","0","3","1","","0","1","0","1466.2099999841303","","","<img src = 'targets/mask.png' width = '100%;'>","68","pos","GS","GSnew","1","category1/GS1.png","targets/7.png","0","indirect","18",""
"","html-keyboard-response","167","399780","0.0-10.0-0.3","1zwmlmap3z","one_one","1","indirect_first","0","AM03UT15","0","31","1","0","3","1","","0","1","0","null","","","<div style=""font-size:60px;"">+</div>","null","","","","","","","","","",""
"","html-keyboard-response","168","399882","0.0-10.0-1.3","1zwmlmap3z","one_one","1","indirect_first","0","AM03UT15","0","31","1","0","3","1","","0","1","0","null","","","<img src = 'category4/GS2.png' width = '100%;'>","null","","","","","","","","","",""
"","html-keyboard-response","169","400149","0.0-10.0-2.3","1zwmlmap3z","one_one","1","indirect_first","0","AM03UT15","0","31","1","0","3","1","","0","1","0","null","","","<img src = 'targets/42.png' width = '100%;'>","null","","","","","","","","","",""
"","html-keyboard-response","170","401423","0.0-10.0-3.3","1zwmlmap3z","one_one","1","indirect_first","0","AM03UT15","0","31","1","0","3","1","","0","1","0","1271.8299999833107","","","<img src = 'targets/mask.png' width = '100%;'>","68","pos","GS","GSnew","4","category4/GS2.png","targets/42.png","0","indirect","19",""
"","html-keyboard-response","171","402944","0.0-10.0-0.4","1zwmlmap3z","one_one","1","indirect_first","0","AM03UT15","0","31","1","0","3","1","","0","1","0","null","","","<div style=""font-size:60px;"">+</div>","null","","","","","","","","","",""
"","html-keyboard-response","172","403045","0.0-10.0-1.4","1zwmlmap3z","one_one","1","indirect_first","0","AM03UT15","0","31","1","0","3","1","","0","1","0","null","","","<img src = 'category4/GS1.png' width = '100%;'>","null","","","","","","","","","",""
"","html-keyboard-response","173","403298","0.0-10.0-2.4","1zwmlmap3z","one_one","1","indirect_first","0","AM03UT15","0","31","1","0","3","1","","0","1","0","null","","","<img src = 'targets/40.png' width = '100%;'>","null","","","","","","","","","",""
"","html-keyboard-response","174","404642","0.0-10.0-3.4","1zwmlmap3z","one_one","1","indirect_first","0","AM03UT15","0","31","1","0","3","1","","0","1","0","1341.4500000653788","","","<img src = 'targets/mask.png' width = '100%;'>","68","pos","GS","GSnew","4","category4/GS1.png","targets/40.png","0","indirect","20",""
"","html-keyboard-response","175","406176","0.0-10.0-0.5","1zwmlmap3z","one_one","1","indirect_first","0","AM03UT15","0","31","1","0","3","1","","0","1","0","null","","","<div style=""font-size:60px;"">+</div>","null","","","","","","","","","",""
"","html-keyboard-response","176","406275","0.0-10.0-1.5","1zwmlmap3z","one_one","1","indirect_first","0","AM03UT15","0","31","1","0","3","1","","0","1","0","null","","","<img src = 'category3/GS3.png' width = '100%;'>","null","","","","","","","","","",""
"","html-keyboard-response","177","406563","0.0-10.0-2.5","1zwmlmap3z","one_one","1","indirect_first","0","AM03UT15","0","31","1","0","3","1","","0","1","0","null","","","<img src = 'targets/9.png' width = '100%;'>","null","","","","","","","","","",""
"","html-keyboard-response","178","407119","0.0-10.0-3.5","1zwmlmap3z","one_one","1","indirect_first","0","AM03UT15","0","31","1","0","3","1","","0","1","0","554.6799999428913","","","<img src = 'targets/mask.png' width = '100%;'>","75","neg","GS","GSnew","3","category3/GS3.png","targets/9.png","1","indirect","21",""
"","html-keyboard-response","179","408647","0.0-10.0-0.6","1zwmlmap3z","one_one","1","indirect_first","0","AM03UT15","0","31","1","0","3","1","","0","1","0","null","","","<div style=""font-size:60px;"">+</div>","null","","","","","","","","","",""
"","html-keyboard-response","180","408746","0.0-10.0-1.6","1zwmlmap3z","one_one","1","indirect_first","0","AM03UT15","0","31","1","0","3","1","","0","1","0","null","","","<img src = 'category4/GS3.png' width = '100%;'>","null","","","","","","","","","",""
"","html-keyboard-response","181","409017","0.0-10.0-2.6","1zwmlmap3z","one_one","1","indirect_first","0","AM03UT15","0","31","1","0","3","1","","0","1","0","null","","","<img src = 'targets/6.png' width = '100%;'>","null","","","","","","","","","",""
"","html-keyboard-response","182","409993","0.0-10.0-3.6","1zwmlmap3z","one_one","1","indirect_first","0","AM03UT15","0","31","1","0","3","1","","0","1","0","973.009999957867","","","<img src = 'targets/mask.png' width = '100%;'>","75","pos","GS","GSnew","4","category4/GS3.png","targets/6.png","1","indirect","22",""
"","html-keyboard-response","183","411515","0.0-10.0-0.7","1zwmlmap3z","one_one","1","indirect_first","0","AM03UT15","0","31","1","0","3","1","","0","1","0","null","","","<div style=""font-size:60px;"">+</div>","null","","","","","","","","","",""
"","html-keyboard-response","184","411622","0.0-10.0-1.7","1zwmlmap3z","one_one","1","indirect_first","0","AM03UT15","0","31","1","0","3","1","","0","1","0","null","","","<img src = 'category1/GS3.png' width = '100%;'>","null","","","","","","","","","",""
"","html-keyboard-response","185","411895","0.0-10.0-2.7","1zwmlmap3z","one_one","1","indirect_first","0","AM03UT15","0","31","1","0","3","1","","0","1","0","null","","","<img src = 'targets/19.png' width = '100%;'>","null","","","","","","","","","",""
"","html-keyboard-response","186","412591","0.0-10.0-3.7","1zwmlmap3z","one_one","1","indirect_first","0","AM03UT15","0","31","1","0","3","1","","0","1","0","694.3550000432879","","","<img src = 'targets/mask.png' width = '100%;'>","75","pos","GS","GSnew","1","category1/GS3.png","targets/19.png","1","indirect","23",""
"","html-keyboard-response","187","414108","0.0-10.0-0.8","1zwmlmap3z","one_one","1","indirect_first","0","AM03UT15","0","31","1","0","3","1","","0","1","0","null","","","<div style=""font-size:60px;"">+</div>","null","","","","","","","","","",""
"","html-keyboard-response","188","414201","0.0-10.0-1.8","1zwmlmap3z","one_one","1","indirect_first","0","AM03UT15","0","31","1","0","3","1","","0","1","0","null","","","<img src = 'category2/men.png' width = '100%;'>","null","","","","","","","","","",""
"","html-keyboard-response","189","414474","0.0-10.0-2.8","1zwmlmap3z","one_one","1","indirect_first","0","AM03UT15","0","31","1","0","3","1","","0","1","0","null","","","<img src = 'targets/31.png' width = '100%;'>","null","","","","","","","","","",""
"","html-keyboard-response","190","415782","0.0-10.0-3.8","1zwmlmap3z","one_one","1","indirect_first","0","AM03UT15","0","31","1","0","3","1","","0","1","0","1305.6749999523163","","","<img src = 'targets/mask.png' width = '100%;'>","75","neg","GS","abstract","2","category2/men.png","targets/31.png","1","indirect","24",""
"","html-keyboard-response","191","417304","0.0-10.0-0.9","1zwmlmap3z","one_one","1","indirect_first","0","AM03UT15","0","31","1","0","3","1","","0","1","0","null","","","<div style=""font-size:60px;"">+</div>","null","","","","","","","","","",""
"","html-keyboard-response","192","417409","0.0-10.0-1.9","1zwmlmap3z","one_one","1","indirect_first","0","AM03UT15","0","31","1","0","3","1","","0","1","0","null","","","<img src = 'category2/GS3.png' width = '100%;'>","null","","","","","","","","","",""
"","html-keyboard-response","193","417670","0.0-10.0-2.9","1zwmlmap3z","one_one","1","indirect_first","0","AM03UT15","0","31","1","0","3","1","","0","1","0","null","","","<img src = 'targets/27.png' width = '100%;'>","null","","","","","","","","","",""
"","html-keyboard-response","194","419685","0.0-10.0-3.9","1zwmlmap3z","one_one","1","indirect_first","0","AM03UT15","0","31","1","0","3","1","","0","1","0","2011.8050000164658","","","<img src = 'targets/mask.png' width = '100%;'>","68","neg","GS","GSnew","2","category2/GS3.png","targets/27.png","0","indirect","25",""
"","html-keyboard-response","195","421194","0.0-10.0-0.10","1zwmlmap3z","one_one","1","indirect_first","0","AM03UT15","0","31","1","0","3","1","","0","1","0","null","","","<div style=""font-size:60px;"">+</div>","null","","","","","","","","","",""
"","html-keyboard-response","196","421302","0.0-10.0-1.10","1zwmlmap3z","one_one","1","indirect_first","0","AM03UT15","0","31","1","0","3","1","","0","1","0","null","","","<img src = 'category1/GS2.png' width = '100%;'>","null","","","","","","","","","",""
"","html-keyboard-response","197","421564","0.0-10.0-2.10","1zwmlmap3z","one_one","1","indirect_first","0","AM03UT15","0","31","1","0","3","1","","0","1","0","null","","","<img src = 'targets/20.png' width = '100%;'>","null","","","","","","","","","",""
"","html-keyboard-response","198","422380","0.0-10.0-3.10","1zwmlmap3z","one_one","1","indirect_first","0","AM03UT15","0","31","1","0","3","1","","0","1","0","813.5000000474975","","","<img src = 'targets/mask.png' width = '100%;'>","75","pos","GS","GSnew","1","category1/GS2.png","targets/20.png","1","indirect","26",""
"","html-keyboard-response","199","423890","0.0-10.0-0.11","1zwmlmap3z","one_one","1","indirect_first","0","AM03UT15","0","31","1","0","3","1","","0","1","0","null","","","<div style=""font-size:60px;"">+</div>","null","","","","","","","","","",""
"","html-keyboard-response","200","423991","0.0-10.0-1.11","1zwmlmap3z","one_one","1","indirect_first","0","AM03UT15","0","31","1","0","3","1","","0","1","0","null","","","<img src = 'category4/lin.png' width = '100%;'>","null","","","","","","","","","",""
"","html-keyboard-response","201","424259","0.0-10.0-2.11","1zwmlmap3z","one_one","1","indirect_first","0","AM03UT15","0","31","1","0","3","1","","0","1","0","null","","","<img src = 'targets/3.png' width = '100%;'>","null","","","","","","","","","",""
"","html-keyboard-response","202","425952","0.0-10.0-3.11","1zwmlmap3z","one_one","1","indirect_first","0","AM03UT15","0","31","1","0","3","1","","0","1","0","1690.4949999880046","","","<img src = 'targets/mask.png' width = '100%;'>","68","pos","GS","abstract","4","category4/lin.png","targets/3.png","0","indirect","27",""
"","html-keyboard-response","203","427472","0.0-10.0-0.12","1zwmlmap3z","one_one","1","indirect_first","0","AM03UT15","0","31","1","0","3","1","","0","1","0","null","","","<div style=""font-size:60px;"">+</div>","null","","","","","","","","","",""
"","html-keyboard-response","204","427572","0.0-10.0-1.12","1zwmlmap3z","one_one","1","indirect_first","0","AM03UT15","0","31","1","0","3","1","","0","1","0","null","","","<img src = 'category3/GS2.png' width = '100%;'>","null","","","","","","","","","",""
"","html-keyboard-response","205","427827","0.0-10.0-2.12","1zwmlmap3z","one_one","1","indirect_first","0","AM03UT15","0","31","1","0","3","1","","0","1","0","null","","","<img src = 'targets/24.png' width = '100%;'>","null","","","","","","","","","",""
"","html-keyboard-response","206","428599","0.0-10.0-3.12","1zwmlmap3z","one_one","1","indirect_first","0","AM03UT15","0","31","1","0","3","1","","0","1","0","769.5999999996275","","","<img src = 'targets/mask.png' width = '100%;'>","68","neg","GS","GSnew","3","category3/GS2.png","targets/24.png","0","indirect","28",""
"","html-keyboard-response","207","430118","0.0-10.0-0.13","1zwmlmap3z","one_one","1","indirect_first","0","AM03UT15","0","31","1","0","3","1","","0","1","0","null","","","<div style=""font-size:60px;"">+</div>","null","","","","","","","","","",""
"","html-keyboard-response","208","430219","0.0-10.0-1.13","1zwmlmap3z","one_one","1","indirect_first","0","AM03UT15","0","31","1","0","3","1","","0","1","0","null","","","<img src = 'category2/GS1.png' width = '100%;'>","null","","","","","","","","","",""
"","html-keyboard-response","209","430497","0.0-10.0-2.13","1zwmlmap3z","one_one","1","indirect_first","0","AM03UT15","0","31","1","0","3","1","","0","1","0","null","","","<img src = 'targets/8.png' width = '100%;'>","null","","","","","","","","","",""
"","html-keyboard-response","210","431278","0.0-10.0-3.13","1zwmlmap3z","one_one","1","indirect_first","0","AM03UT15","0","31","1","0","3","1","","0","1","0","779.6049999305978","","","<img src = 'targets/mask.png' width = '100%;'>","75","neg","GS","GSnew","2","category2/GS1.png","targets/8.png","1","indirect","29",""
"","html-keyboard-response","211","432803","0.0-10.0-0.14","1zwmlmap3z","one_one","1","indirect_first","0","AM03UT15","0","31","1","0","3","1","","0","1","0","null","","","<div style=""font-size:60px;"">+</div>","null","","","","","","","","","",""
"","html-keyboard-response","212","432905","0.0-10.0-1.14","1zwmlmap3z","one_one","1","indirect_first","0","AM03UT15","0","31","1","0","3","1","","0","1","0","null","","","<img src = 'category2/GS2.png' width = '100%;'>","null","","","","","","","","","",""
"","html-keyboard-response","213","433167","0.0-10.0-2.14","1zwmlmap3z","one_one","1","indirect_first","0","AM03UT15","0","31","1","0","3","1","","0","1","0","null","","","<img src = 'targets/45.png' width = '100%;'>","null","","","","","","","","","",""
"","html-keyboard-response","214","433797","0.0-10.0-3.14","1zwmlmap3z","one_one","1","indirect_first","0","AM03UT15","0","31","1","0","3","1","","0","1","0","627.2350000217557","","","<img src = 'targets/mask.png' width = '100%;'>","68","neg","GS","GSnew","2","category2/GS2.png","targets/45.png","0","indirect","30",""
"","html-keyboard-response","215","435313","0.0-10.0-0.15","1zwmlmap3z","one_one","1","indirect_first","0","AM03UT15","0","31","1","0","3","1","","0","1","0","null","","","<div style=""font-size:60px;"">+</div>","null","","","","","","","","","",""
"","html-keyboard-response","216","435414","0.0-10.0-1.15","1zwmlmap3z","one_one","1","indirect_first","0","AM03UT15","0","31","1","0","3","1","","0","1","0","null","","","<img src = 'category3/GS1.png' width = '100%;'>","null","","","","","","","","","",""
"","html-keyboard-response","217","435681","0.0-10.0-2.15","1zwmlmap3z","one_one","1","indirect_first","0","AM03UT15","0","31","1","0","3","1","","0","1","0","null","","","<img src = 'targets/23.png' width = '100%;'>","null","","","","","","","","","",""
"","html-keyboard-response","218","437122","0.0-10.0-3.15","1zwmlmap3z","one_one","1","indirect_first","0","AM03UT15","0","31","1","0","3","1","","0","1","0","1439.075000002049","","","<img src = 'targets/mask.png' width = '100%;'>","68","neg","GS","GSnew","3","category3/GS1.png","targets/23.png","0","indirect","31",""
"","survey-html-form","219","440640","0.0-11.0","1zwmlmap3z","one_one","1","indirect_first","0","AM03UT15","0","31","1","0","3","1","","0","1","0","3009.9499999778345","","{}","","","","","","","","","","","",""
"","image-slider-response","220","448433","0.0-12.0-0.0","1zwmlmap3z","one_one","1","indirect_first","0","AM03UT15","0","31","1","0","3","1","","0","1","0","5779.314999934286","","","","","neg","GS","GSold","3","category3/CS8.png","targets/48.png","","direct","","-48"
"","image-slider-response","221","453035","0.0-12.0-0.1","1zwmlmap3z","one_one","1","indirect_first","0","AM03UT15","0","31","1","0","3","1","","0","1","0","4597.659999970347","","","","","pos","GS","GSold","1","category1/CS6.png","targets/47.png","","direct","","26"
"","image-slider-response","222","456318","0.0-12.0-0.2","1zwmlmap3z","one_one","1","indirect_first","0","AM03UT15","0","31","1","0","3","1","","0","1","0","3279.409999959171","","","","","pos","GS","GSnew","1","category1/GS1.png","targets/7.png","","direct","","-22"
"","image-slider-response","223","458991","0.0-12.0-0.3","1zwmlmap3z","one_one","1","indirect_first","0","AM03UT15","0","31","1","0","3","1","","0","1","0","2670.6350001040846","","","","","pos","GS","GSnew","4","category4/GS2.png","targets/42.png","","direct","","57"
"","image-slider-response","224","462216","0.0-12.0-0.4","1zwmlmap3z","one_one","1","indirect_first","0","AM03UT15","0","31","1","0","3","1","","0","1","0","3220.990000059828","","","","","neg","GS","GSold","2","category2/CS9.png","targets/22.png","","direct","","-33"
"","image-slider-response","225","465898","0.0-12.0-0.5","1zwmlmap3z","one_one","1","indirect_first","0","AM03UT15","0","31","1","0","3","1","","0","1","0","3678.459999966435","","","","","neg","GS","GSold","3","category3/CS1.png","targets/4.png","","direct","","-26"
"","image-slider-response","226","469933","0.0-12.0-0.6","1zwmlmap3z","one_one","1","indirect_first","0","AM03UT15","0","31","1","0","3","1","","0","1","0","4030.8949999744073","","","","","neg","GS","GSnew","3","category3/GS2.png","targets/24.png","","direct","","12"
"","image-slider-response","227","474659","0.0-12.0-0.7","1zwmlmap3z","one_one","1","indirect_first","0","AM03UT15","0","31","1","0","3","1","","0","1","0","4723.295000032522","","","","","neg","GS","GSold","2","category2/CS4.png","targets/44.png","","direct","","1"
"","image-slider-response","228","478508","0.0-12.0-0.8","1zwmlmap3z","one_one","1","indirect_first","0","AM03UT15","0","31","1","0","3","1","","0","1","0","3844.7249999735504","","","","","pos","GS","GSold","4","category4/CS7.png","targets/13.png","","direct","","38"
"","image-slider-response","229","481068","0.0-12.0-0.9","1zwmlmap3z","one_one","1","indirect_first","0","AM03UT15","0","31","1","0","3","1","","0","1","0","2555.9699999867007","","","","","pos","GS","GSold","4","category4/CS10.png","targets/15.png","","direct","","10"
"","image-slider-response","230","483930","0.0-12.0-0.10","1zwmlmap3z","one_one","1","indirect_first","0","AM03UT15","0","31","1","0","3","1","","0","1","0","2858.6900000227615","","","","","pos","GS","abstract","4","category4/lin.png","targets/3.png","","direct","","18"
"","image-slider-response","231","487024","0.0-12.0-0.11","1zwmlmap3z","one_one","1","indirect_first","0","AM03UT15","0","31","1","0","3","1","","0","1","0","3089.864999987185","","","","","neg","GS","GSnew","2","category2/GS2.png","targets/45.png","","direct","","-33"
"","image-slider-response","232","489789","0.0-12.0-0.12","1zwmlmap3z","one_one","1","indirect_first","0","AM03UT15","0","31","1","0","3","1","","0","1","0","2761.3849999615923","","","","","pos","GS","abstract","1","category1/ma.png","targets/46.png","","direct","","26"
"","image-slider-response","233","492458","0.0-12.0-0.13","1zwmlmap3z","one_one","1","indirect_first","0","AM03UT15","0","31","1","0","3","1","","0","1","0","2665.3399999486282","","","","","neg","GS","GSnew","3","category3/GS3.png","targets/9.png","","direct","","22"
"","image-slider-response","234","495400","0.0-12.0-0.14","1zwmlmap3z","one_one","1","indirect_first","0","AM03UT15","0","31","1","0","3","1","","0","1","0","2938.48499993328","","","","","pos","GS","GSnew","4","category4/GS1.png","targets/40.png","","direct","","52"
"","image-slider-response","235","498315","0.0-12.0-0.15","1zwmlmap3z","one_one","1","indirect_first","0","AM03UT15","0","31","1","0","3","1","","0","1","0","2911.354999989271","","","","","pos","GS","GSnew","1","category1/GS3.png","targets/19.png","","direct","","39"
"","image-slider-response","236","501329","0.0-12.0-0.16","1zwmlmap3z","one_one","1","indirect_first","0","AM03UT15","0","31","1","0","3","1","","0","1","0","3010.2099999785423","","","","","pos","GS","GSold","1","category1/CS9.png","targets/1.png","","direct","","-17"
"","image-slider-response","237","504975","0.0-12.0-0.17","1zwmlmap3z","one_one","1","indirect_first","0","AM03UT15","0","31","1","0","3","1","","0","1","0","3642.5900000613183","","","","","pos","GS","GSnew","4","category4/GS3.png","targets/6.png","","direct","","59"
"","image-slider-response","238","508042","0.0-12.0-0.18","1zwmlmap3z","one_one","1","indirect_first","0","AM03UT15","0","31","1","0","3","1","","0","1","0","3064.8700000019744","","","","","neg","GS","abstract","2","category2/men.png","targets/31.png","","direct","","-6"
"","image-slider-response","239","511617","0.0-12.0-0.19","1zwmlmap3z","one_one","1","indirect_first","0","AM03UT15","0","31","1","0","3","1","","0","1","0","3572.054999996908","","","","","neg","GS","abstract","3","category3/wang.png","targets/11.png","","direct","","-14"
"","image-slider-response","240","514380","0.0-12.0-0.20","1zwmlmap3z","one_one","1","indirect_first","0","AM03UT15","0","31","1","0","3","1","","0","1","0","2758.750000037253","","","","","pos","CS","CS","4","category4/CS5.png","targets/29.png","","direct","","30"
"","image-slider-response","241","517950","0.0-12.0-0.21","1zwmlmap3z","one_one","1","indirect_first","0","AM03UT15","0","31","1","0","3","1","","0","1","0","3566.4450000040233","","","","","neg","GS","GSold","3","category3/CS4.png","targets/39.png","","direct","","-25"
"","image-slider-response","242","521432","0.0-12.0-0.22","1zwmlmap3z","one_one","1","indirect_first","0","AM03UT15","0","31","1","0","3","1","","0","1","0","3478.2049999339506","","","","","pos","GS","GSnew","1","category1/GS2.png","targets/20.png","","direct","","-9"
"","image-slider-response","243","524070","0.0-12.0-0.23","1zwmlmap3z","one_one","1","indirect_first","0","AM03UT15","0","31","1","0","3","1","","0","1","0","2633.849999983795","","","","","pos","GS","GSold","1","category1/CS3.png","targets/43.png","","direct","","26"
"","image-slider-response","244","527152","0.0-12.0-0.24","1zwmlmap3z","one_one","1","indirect_first","0","AM03UT15","0","31","1","0","3","1","","0","1","0","3079.2350000701845","","","","","neg","GS","GSnew","2","category2/GS3.png","targets/27.png","","direct","","10"
"","image-slider-response","245","530094","0.0-12.0-0.25","1zwmlmap3z","one_one","1","indirect_first","0","AM03UT15","0","31","1","0","3","1","","0","1","0","2938.994999974966","","","","","neg","GS","GSold","2","category2/CS5.png","targets/16.png","","direct","","-38"
"","image-slider-response","246","532808","0.0-12.0-0.26","1zwmlmap3z","one_one","1","indirect_first","0","AM03UT15","0","31","1","0","3","1","","0","1","0","2709.5099999569356","","","","","neg","CS","CS","3","category3/CS5.png","targets/41.png","","direct","","-24"
"","image-slider-response","247","535803","0.0-12.0-0.27","1zwmlmap3z","one_one","1","indirect_first","0","AM03UT15","0","31","1","0","3","1","","0","1","0","2991.7950000381097","","","","","neg","CS","CS","2","category2/CS6.png","targets/38.png","","direct","","-25"
"","image-slider-response","248","538298","0.0-12.0-0.28","1zwmlmap3z","one_one","1","indirect_first","0","AM03UT15","0","31","1","0","3","1","","0","1","0","2491.8349999934435","","","","","neg","GS","GSnew","2","category2/GS1.png","targets/8.png","","direct","","9"
"","image-slider-response","249","541747","0.0-12.0-0.29","1zwmlmap3z","one_one","1","indirect_first","0","AM03UT15","0","31","1","0","3","1","","0","1","0","3445.7649999530986","","","","","neg","GS","GSnew","3","category3/GS1.png","targets/23.png","","direct","","7"
"","image-slider-response","250","544321","0.0-12.0-0.30","1zwmlmap3z","one_one","1","indirect_first","0","AM03UT15","0","31","1","0","3","1","","0","1","0","2570.519999950193","","","","","pos","GS","GSold","4","category4/CS4.png","targets/5.png","","direct","","19"
"","image-slider-response","251","547088","0.0-12.0-0.31","1zwmlmap3z","one_one","1","indirect_first","0","AM03UT15","0","31","1","0","3","1","","0","1","0","2763.069999986328","","","","","pos","CS","CS","1","category1/CS4.png","targets/2.png","","direct","","15"
"","survey-html-form","252","548710","0.0-13.0","1zwmlmap3z","one_one","1","indirect_first","0","AM03UT15","0","31","1","0","3","1","","0","1","0","1620.350000099279","","{}","","","","","","","","","","","",""
"","image-slider-response","253","554215","0.0-14.0-0.0","1zwmlmap3z","one_one","1","indirect_first","0","AM03UT15","0","31","1","0","3","1","","0","1","0","4489.239999908023","","","","","neg","All","all","3","category3/wang_all.png","","","all","","-36"
"","image-slider-response","254","556867","0.0-14.0-0.1","1zwmlmap3z","one_one","1","indirect_first","0","AM03UT15","0","31","1","0","3","1","","0","1","0","2648.075000033714","","","","","pos","All","all","4","category4/lin_all.png","","","all","","42"
"","image-slider-response","255","560150","0.0-14.0-0.2","1zwmlmap3z","one_one","1","indirect_first","0","AM03UT15","0","31","1","0","3","1","","0","1","0","3280.5099999532104","","","","","pos","All","all","1","category1/ma_all.png","","","all","","10"
"","image-slider-response","256","564033","0.0-14.0-0.3","1zwmlmap3z","one_one","1","indirect_first","0","AM03UT15","0","31","1","0","3","1","","0","1","0","3879.3450000230223","","","","","neg","All","all","2","category2/men_all.png","","","all","","9"
"","survey-text","257","566201","0.0-15.0","1zwmlmap3z","one_one","1","indirect_first","0","AM03UT15","0","31","1","0","3","1","","0","1","0","2138.204999966547","","{""comment"":""""}","","","","","","","","","","","",""
"","survey-html-form","258","574950","0.0-16.0","1zwmlmap3z","one_one","1","indirect_first","0","AM03UT15","0","31","1","0","3","1","","0","1","0","8744.534999947064","","{""hinschauen"":""0"",""ablenkung"":""1"",""gewissenhaft"":""0""}","","","","","","","","","","","",""
