"success","trial_type","trial_index","time_elapsed","internal_node_id","subject","condition","condition_code","measure","measure_code","codeword","gender","age","education","chinese","fach","handedness","rt","url","responses","stimulus","key_press","val","type","type_specific","category","cs_selected","response","target","task","indirect","nr_pres"
"true","fullscreen","0","2003","0.0-0.0","46od33hjwb","many_one","0","direct_first","1","er05im20","0","18","1","1","1","2","","","","","","","","","","","","","","",""
"","external-html","1","85610","0.0-1.0","46od33hjwb","many_one","0","direct_first","1","er05im20","0","18","1","1","1","2","83599","text/information.html","","","","","","","","","","","","",""
"","external-html","2","110226","0.0-2.0","46od33hjwb","many_one","0","direct_first","1","er05im20","0","18","1","1","1","2","24610","text/consent.html","","","","","","","","","","","","",""
"","survey-html-form","3","162873","0.0-3.0","46od33hjwb","many_one","0","direct_first","1","er05im20","0","18","1","1","1","2","52646","","{""codeword_enter"":""er05im20""}","","","","","","","","","","","",""
"","survey-html-form","4","180618","0.0-4.0","46od33hjwb","many_one","0","direct_first","1","er05im20","0","18","1","1","1","2","17745","","{""age"":""18"",""education"":""1"",""subject"":""1"",""gender"":""0"",""handedness"":""2"",""chinese"":""1""}","","","","","","","","","","","",""
"","survey-html-form","5","214114","0.0-5.0","46od33hjwb","many_one","0","direct_first","1","er05im20","0","18","1","1","1","2","33495","","{}","","","","","","","","","","","",""
"","html-keyboard-response","6","218141","0.0-6.0-0.0-0.0","46od33hjwb","many_one","0","direct_first","1","er05im20","0","18","1","1","1","2","null","","","<div class = 'row'><div class = 'column'><img src = 'category4/CS2.png' width = '70%;'></div><div class = 'column'><img src = 'usneg/9220.bmp' width = '100%;'></div></div>","null","neg","CS","CS","4","category4/CS2.png","","","","",""
"","html-keyboard-response","7","220680","0.0-6.0-0.0-0.1","46od33hjwb","many_one","0","direct_first","1","er05im20","0","18","1","1","1","2","null","","","<div class = 'row'><div class = 'column'><img src = 'uspos/2160.bmp' width = '100%;'></div><div class = 'column'><img src = 'category3/CS9.png' width = '70%;'></div></div>","null","pos","CS","CS","3","category3/CS9.png","","","","",""
"","html-keyboard-response","8","223211","0.0-6.0-0.0-0.2","46od33hjwb","many_one","0","direct_first","1","er05im20","0","18","1","1","1","2","null","","","<div class = 'row'><div class = 'column'><img src = 'uspos/2340.bmp' width = '100%;'></div><div class = 'column'><img src = 'category3/CS1.png' width = '70%;'></div></div>","null","pos","CS","CS","3","category3/CS1.png","","","","",""
"","html-keyboard-response","9","225750","0.0-6.0-0.0-0.3","46od33hjwb","many_one","0","direct_first","1","er05im20","0","18","1","1","1","2","null","","","<div class = 'row'><div class = 'column'><img src = 'usneg/9520.bmp' width = '100%;'></div><div class = 'column'><img src = 'category4/CS4.png' width = '70%;'></div></div>","null","neg","CS","CS","4","category4/CS4.png","","","","",""
"","html-keyboard-response","10","228290","0.0-6.0-0.0-0.4","46od33hjwb","many_one","0","direct_first","1","er05im20","0","18","1","1","1","2","null","","","<div class = 'row'><div class = 'column'><img src = 'uspos/8190.bmp' width = '100%;'></div><div class = 'column'><img src = 'category1/CS7.png' width = '70%;'></div></div>","null","pos","CS","CS","1","category1/CS7.png","","","","",""
"","html-keyboard-response","11","230830","0.0-6.0-0.0-0.5","46od33hjwb","many_one","0","direct_first","1","er05im20","0","18","1","1","1","2","null","","","<div class = 'row'><div class = 'column'><img src = 'uspos/2150.bmp' width = '100%;'></div><div class = 'column'><img src = 'category3/CS10.png' width = '70%;'></div></div>","null","pos","CS","CS","3","category3/CS10.png","","","","",""
"","html-keyboard-response","12","233370","0.0-6.0-0.0-0.6","46od33hjwb","many_one","0","direct_first","1","er05im20","0","18","1","1","1","2","null","","","<div class = 'row'><div class = 'column'><img src = 'category1/CS5.png' width = '70%;'></div><div class = 'column'><img src = 'uspos/4625.bmp' width = '100%;'></div></div>","null","pos","CS","CS","1","category1/CS5.png","","","","",""
"","html-keyboard-response","13","235911","0.0-6.0-0.0-0.7","46od33hjwb","many_one","0","direct_first","1","er05im20","0","18","1","1","1","2","null","","","<div class = 'row'><div class = 'column'><img src = 'usneg/9182.bmp' width = '100%;'></div><div class = 'column'><img src = 'category2/CS3.png' width = '70%;'></div></div>","null","neg","CS","CS","2","category2/CS3.png","","","","",""
"","html-keyboard-response","14","238450","0.0-6.0-0.0-0.8","46od33hjwb","many_one","0","direct_first","1","er05im20","0","18","1","1","1","2","null","","","<div class = 'row'><div class = 'column'><img src = 'category2/CS1.png' width = '70%;'></div><div class = 'column'><img src = 'usneg/9561.bmp' width = '100%;'></div></div>","null","neg","CS","CS","2","category2/CS1.png","","","","",""
"","html-keyboard-response","15","240990","0.0-6.0-0.0-0.9","46od33hjwb","many_one","0","direct_first","1","er05im20","0","18","1","1","1","2","null","","","<div class = 'row'><div class = 'column'><img src = 'uspos/1463.bmp' width = '100%;'></div><div class = 'column'><img src = 'category3/CS7.png' width = '70%;'></div></div>","null","pos","CS","CS","3","category3/CS7.png","","","","",""
"","html-keyboard-response","16","243530","0.0-6.0-0.0-0.10","46od33hjwb","many_one","0","direct_first","1","er05im20","0","18","1","1","1","2","null","","","<div class = 'row'><div class = 'column'><img src = 'category3/CS4.png' width = '70%;'></div><div class = 'column'><img src = 'uspos/2208.bmp' width = '100%;'></div></div>","null","pos","CS","CS","3","category3/CS4.png","","","","",""
"","html-keyboard-response","17","246068","0.0-6.0-0.0-0.11","46od33hjwb","many_one","0","direct_first","1","er05im20","0","18","1","1","1","2","null","","","<div class = 'row'><div class = 'column'><img src = 'usneg/9050.bmp' width = '100%;'></div><div class = 'column'><img src = 'category2/CS6.png' width = '70%;'></div></div>","null","neg","CS","CS","2","category2/CS6.png","","","","",""
"","html-keyboard-response","18","248570","0.0-6.0-0.0-0.12","46od33hjwb","many_one","0","direct_first","1","er05im20","0","18","1","1","1","2","null","","","<div class = 'row'><div class = 'column'><img src = 'usneg/2205.bmp' width = '100%;'></div><div class = 'column'><img src = 'category4/CS5.png' width = '70%;'></div></div>","null","neg","CS","CS","4","category4/CS5.png","","","","",""
"","html-keyboard-response","19","251110","0.0-6.0-0.0-0.13","46od33hjwb","many_one","0","direct_first","1","er05im20","0","18","1","1","1","2","null","","","<div class = 'row'><div class = 'column'><img src = 'category4/CS1.png' width = '70%;'></div><div class = 'column'><img src = 'usneg/9435.bmp' width = '100%;'></div></div>","null","neg","CS","CS","4","category4/CS1.png","","","","",""
"","html-keyboard-response","20","253642","0.0-6.0-0.0-0.14","46od33hjwb","many_one","0","direct_first","1","er05im20","0","18","1","1","1","2","null","","","<div class = 'row'><div class = 'column'><img src = 'category1/CS9.png' width = '70%;'></div><div class = 'column'><img src = 'uspos/5830.bmp' width = '100%;'></div></div>","null","pos","CS","CS","1","category1/CS9.png","","","","",""
"","html-keyboard-response","21","256170","0.0-6.0-0.0-0.15","46od33hjwb","many_one","0","direct_first","1","er05im20","0","18","1","1","1","2","null","","","<div class = 'row'><div class = 'column'><img src = 'category1/CS10.png' width = '70%;'></div><div class = 'column'><img src = 'uspos/8540.bmp' width = '100%;'></div></div>","null","pos","CS","CS","1","category1/CS10.png","","","","",""
"","html-keyboard-response","22","258710","0.0-6.0-0.0-0.16","46od33hjwb","many_one","0","direct_first","1","er05im20","0","18","1","1","1","2","null","","","<div class = 'row'><div class = 'column'><img src = 'category2/CS2.png' width = '70%;'></div><div class = 'column'><img src = 'usneg/3160.bmp' width = '100%;'></div></div>","null","neg","CS","CS","2","category2/CS2.png","","","","",""
"","html-keyboard-response","23","261250","0.0-6.0-0.0-0.17","46od33hjwb","many_one","0","direct_first","1","er05im20","0","18","1","1","1","2","null","","","<div class = 'row'><div class = 'column'><img src = 'usneg/6570.1.bmp' width = '100%;'></div><div class = 'column'><img src = 'category4/CS10.png' width = '70%;'></div></div>","null","neg","CS","CS","4","category4/CS10.png","","","","",""
"","html-keyboard-response","24","263790","0.0-6.0-0.0-0.18","46od33hjwb","many_one","0","direct_first","1","er05im20","0","18","1","1","1","2","null","","","<div class = 'row'><div class = 'column'><img src = 'category2/CS9.png' width = '70%;'></div><div class = 'column'><img src = 'usneg/9041.bmp' width = '100%;'></div></div>","null","neg","CS","CS","2","category2/CS9.png","","","","",""
"","html-keyboard-response","25","266310","0.0-6.0-0.0-0.19","46od33hjwb","many_one","0","direct_first","1","er05im20","0","18","1","1","1","2","null","","","<div class = 'row'><div class = 'column'><img src = 'category1/CS8.png' width = '70%;'></div><div class = 'column'><img src = 'uspos/1460.bmp' width = '100%;'></div></div>","null","pos","CS","CS","1","category1/CS8.png","","","","",""
"","survey-html-form","26","271673","0.0-6.0-1.0","46od33hjwb","many_one","0","direct_first","1","er05im20","0","18","1","1","1","2","4843","","{}","","","","","","","","","","","",""
"","html-keyboard-response","27","275690","0.0-6.0-2.0-0.0","46od33hjwb","many_one","0","direct_first","1","er05im20","0","18","1","1","1","2","null","","","<div class = 'row'><div class = 'column'><img src = 'category2/CS2.png' width = '70%;'></div><div class = 'column'><img src = 'usneg/3160.bmp' width = '100%;'></div></div>","null","neg","CS","CS","2","category2/CS2.png","","","","",""
"","html-keyboard-response","28","278229","0.0-6.0-2.0-0.1","46od33hjwb","many_one","0","direct_first","1","er05im20","0","18","1","1","1","2","null","","","<div class = 'row'><div class = 'column'><img src = 'usneg/9041.bmp' width = '100%;'></div><div class = 'column'><img src = 'category2/CS9.png' width = '70%;'></div></div>","null","neg","CS","CS","2","category2/CS9.png","","","","",""
"","html-keyboard-response","29","280759","0.0-6.0-2.0-0.2","46od33hjwb","many_one","0","direct_first","1","er05im20","0","18","1","1","1","2","null","","","<div class = 'row'><div class = 'column'><img src = 'uspos/2208.bmp' width = '100%;'></div><div class = 'column'><img src = 'category3/CS4.png' width = '70%;'></div></div>","null","pos","CS","CS","3","category3/CS4.png","","","","",""
"","html-keyboard-response","30","283300","0.0-6.0-2.0-0.3","46od33hjwb","many_one","0","direct_first","1","er05im20","0","18","1","1","1","2","null","","","<div class = 'row'><div class = 'column'><img src = 'category1/CS5.png' width = '70%;'></div><div class = 'column'><img src = 'uspos/4625.bmp' width = '100%;'></div></div>","null","pos","CS","CS","1","category1/CS5.png","","","","",""
"","html-keyboard-response","31","285830","0.0-6.0-2.0-0.4","46od33hjwb","many_one","0","direct_first","1","er05im20","0","18","1","1","1","2","null","","","<div class = 'row'><div class = 'column'><img src = 'usneg/9050.bmp' width = '100%;'></div><div class = 'column'><img src = 'category2/CS6.png' width = '70%;'></div></div>","null","neg","CS","CS","2","category2/CS6.png","","","","",""
"","html-keyboard-response","32","288370","0.0-6.0-2.0-0.5","46od33hjwb","many_one","0","direct_first","1","er05im20","0","18","1","1","1","2","null","","","<div class = 'row'><div class = 'column'><img src = 'uspos/8540.bmp' width = '100%;'></div><div class = 'column'><img src = 'category1/CS10.png' width = '70%;'></div></div>","null","pos","CS","CS","1","category1/CS10.png","","","","",""
"","html-keyboard-response","33","290889","0.0-6.0-2.0-0.6","46od33hjwb","many_one","0","direct_first","1","er05im20","0","18","1","1","1","2","null","","","<div class = 'row'><div class = 'column'><img src = 'usneg/9182.bmp' width = '100%;'></div><div class = 'column'><img src = 'category2/CS3.png' width = '70%;'></div></div>","null","neg","CS","CS","2","category2/CS3.png","","","","",""
"","html-keyboard-response","34","293413","0.0-6.0-2.0-0.7","46od33hjwb","many_one","0","direct_first","1","er05im20","0","18","1","1","1","2","null","","","<div class = 'row'><div class = 'column'><img src = 'category4/CS4.png' width = '70%;'></div><div class = 'column'><img src = 'usneg/9520.bmp' width = '100%;'></div></div>","null","neg","CS","CS","4","category4/CS4.png","","","","",""
"","html-keyboard-response","35","295929","0.0-6.0-2.0-0.8","46od33hjwb","many_one","0","direct_first","1","er05im20","0","18","1","1","1","2","null","","","<div class = 'row'><div class = 'column'><img src = 'uspos/5830.bmp' width = '100%;'></div><div class = 'column'><img src = 'category1/CS9.png' width = '70%;'></div></div>","null","pos","CS","CS","1","category1/CS9.png","","","","",""
"","html-keyboard-response","36","298468","0.0-6.0-2.0-0.9","46od33hjwb","many_one","0","direct_first","1","er05im20","0","18","1","1","1","2","null","","","<div class = 'row'><div class = 'column'><img src = 'category4/CS5.png' width = '70%;'></div><div class = 'column'><img src = 'usneg/2205.bmp' width = '100%;'></div></div>","null","neg","CS","CS","4","category4/CS5.png","","","","",""
"","html-keyboard-response","37","300989","0.0-6.0-2.0-0.10","46od33hjwb","many_one","0","direct_first","1","er05im20","0","18","1","1","1","2","null","","","<div class = 'row'><div class = 'column'><img src = 'uspos/1463.bmp' width = '100%;'></div><div class = 'column'><img src = 'category3/CS7.png' width = '70%;'></div></div>","null","pos","CS","CS","3","category3/CS7.png","","","","",""
"","html-keyboard-response","38","303529","0.0-6.0-2.0-0.11","46od33hjwb","many_one","0","direct_first","1","er05im20","0","18","1","1","1","2","null","","","<div class = 'row'><div class = 'column'><img src = 'category4/CS1.png' width = '70%;'></div><div class = 'column'><img src = 'usneg/9435.bmp' width = '100%;'></div></div>","null","neg","CS","CS","4","category4/CS1.png","","","","",""
"","html-keyboard-response","39","306070","0.0-6.0-2.0-0.12","46od33hjwb","many_one","0","direct_first","1","er05im20","0","18","1","1","1","2","null","","","<div class = 'row'><div class = 'column'><img src = 'category3/CS10.png' width = '70%;'></div><div class = 'column'><img src = 'uspos/2150.bmp' width = '100%;'></div></div>","null","pos","CS","CS","3","category3/CS10.png","","","","",""
"","html-keyboard-response","40","308610","0.0-6.0-2.0-0.13","46od33hjwb","many_one","0","direct_first","1","er05im20","0","18","1","1","1","2","null","","","<div class = 'row'><div class = 'column'><img src = 'usneg/9220.bmp' width = '100%;'></div><div class = 'column'><img src = 'category4/CS2.png' width = '70%;'></div></div>","null","neg","CS","CS","4","category4/CS2.png","","","","",""
"","html-keyboard-response","41","311150","0.0-6.0-2.0-0.14","46od33hjwb","many_one","0","direct_first","1","er05im20","0","18","1","1","1","2","null","","","<div class = 'row'><div class = 'column'><img src = 'category2/CS1.png' width = '70%;'></div><div class = 'column'><img src = 'usneg/9561.bmp' width = '100%;'></div></div>","null","neg","CS","CS","2","category2/CS1.png","","","","",""
"","html-keyboard-response","42","313690","0.0-6.0-2.0-0.15","46od33hjwb","many_one","0","direct_first","1","er05im20","0","18","1","1","1","2","null","","","<div class = 'row'><div class = 'column'><img src = 'uspos/2340.bmp' width = '100%;'></div><div class = 'column'><img src = 'category3/CS1.png' width = '70%;'></div></div>","null","pos","CS","CS","3","category3/CS1.png","","","","",""
"","html-keyboard-response","43","316219","0.0-6.0-2.0-0.16","46od33hjwb","many_one","0","direct_first","1","er05im20","0","18","1","1","1","2","null","","","<div class = 'row'><div class = 'column'><img src = 'category3/CS9.png' width = '70%;'></div><div class = 'column'><img src = 'uspos/2160.bmp' width = '100%;'></div></div>","null","pos","CS","CS","3","category3/CS9.png","","","","",""
"","html-keyboard-response","44","318760","0.0-6.0-2.0-0.17","46od33hjwb","many_one","0","direct_first","1","er05im20","0","18","1","1","1","2","null","","","<div class = 'row'><div class = 'column'><img src = 'category1/CS8.png' width = '70%;'></div><div class = 'column'><img src = 'uspos/1460.bmp' width = '100%;'></div></div>","null","pos","CS","CS","1","category1/CS8.png","","","","",""
"","html-keyboard-response","45","321279","0.0-6.0-2.0-0.18","46od33hjwb","many_one","0","direct_first","1","er05im20","0","18","1","1","1","2","null","","","<div class = 'row'><div class = 'column'><img src = 'usneg/6570.1.bmp' width = '100%;'></div><div class = 'column'><img src = 'category4/CS10.png' width = '70%;'></div></div>","null","neg","CS","CS","4","category4/CS10.png","","","","",""
"","html-keyboard-response","46","323809","0.0-6.0-2.0-0.19","46od33hjwb","many_one","0","direct_first","1","er05im20","0","18","1","1","1","2","null","","","<div class = 'row'><div class = 'column'><img src = 'category1/CS7.png' width = '70%;'></div><div class = 'column'><img src = 'uspos/8190.bmp' width = '100%;'></div></div>","null","pos","CS","CS","1","category1/CS7.png","","","","",""
"","survey-html-form","47","327386","0.0-6.0-3.0","46od33hjwb","many_one","0","direct_first","1","er05im20","0","18","1","1","1","2","3054","","{}","","","","","","","","","","","",""
"","html-keyboard-response","48","331419","0.0-6.0-4.0-0.0","46od33hjwb","many_one","0","direct_first","1","er05im20","0","18","1","1","1","2","null","","","<div class = 'row'><div class = 'column'><img src = 'usneg/9041.bmp' width = '100%;'></div><div class = 'column'><img src = 'category2/CS9.png' width = '70%;'></div></div>","null","neg","CS","CS","2","category2/CS9.png","","","","",""
"","html-keyboard-response","49","333959","0.0-6.0-4.0-0.1","46od33hjwb","many_one","0","direct_first","1","er05im20","0","18","1","1","1","2","null","","","<div class = 'row'><div class = 'column'><img src = 'uspos/4625.bmp' width = '100%;'></div><div class = 'column'><img src = 'category1/CS5.png' width = '70%;'></div></div>","null","pos","CS","CS","1","category1/CS5.png","","","","",""
"","html-keyboard-response","50","336499","0.0-6.0-4.0-0.2","46od33hjwb","many_one","0","direct_first","1","er05im20","0","18","1","1","1","2","null","","","<div class = 'row'><div class = 'column'><img src = 'usneg/6570.1.bmp' width = '100%;'></div><div class = 'column'><img src = 'category4/CS10.png' width = '70%;'></div></div>","null","neg","CS","CS","4","category4/CS10.png","","","","",""
"","html-keyboard-response","51","339040","0.0-6.0-4.0-0.3","46od33hjwb","many_one","0","direct_first","1","er05im20","0","18","1","1","1","2","null","","","<div class = 'row'><div class = 'column'><img src = 'category1/CS10.png' width = '70%;'></div><div class = 'column'><img src = 'uspos/8540.bmp' width = '100%;'></div></div>","null","pos","CS","CS","1","category1/CS10.png","","","","",""
"","html-keyboard-response","52","341579","0.0-6.0-4.0-0.4","46od33hjwb","many_one","0","direct_first","1","er05im20","0","18","1","1","1","2","null","","","<div class = 'row'><div class = 'column'><img src = 'usneg/9182.bmp' width = '100%;'></div><div class = 'column'><img src = 'category2/CS3.png' width = '70%;'></div></div>","null","neg","CS","CS","2","category2/CS3.png","","","","",""
"","html-keyboard-response","53","344120","0.0-6.0-4.0-0.5","46od33hjwb","many_one","0","direct_first","1","er05im20","0","18","1","1","1","2","null","","","<div class = 'row'><div class = 'column'><img src = 'usneg/9435.bmp' width = '100%;'></div><div class = 'column'><img src = 'category4/CS1.png' width = '70%;'></div></div>","null","neg","CS","CS","4","category4/CS1.png","","","","",""
"","html-keyboard-response","54","346650","0.0-6.0-4.0-0.6","46od33hjwb","many_one","0","direct_first","1","er05im20","0","18","1","1","1","2","null","","","<div class = 'row'><div class = 'column'><img src = 'category2/CS6.png' width = '70%;'></div><div class = 'column'><img src = 'usneg/9050.bmp' width = '100%;'></div></div>","null","neg","CS","CS","2","category2/CS6.png","","","","",""
"","html-keyboard-response","55","349189","0.0-6.0-4.0-0.7","46od33hjwb","many_one","0","direct_first","1","er05im20","0","18","1","1","1","2","null","","","<div class = 'row'><div class = 'column'><img src = 'category3/CS7.png' width = '70%;'></div><div class = 'column'><img src = 'uspos/1463.bmp' width = '100%;'></div></div>","null","pos","CS","CS","3","category3/CS7.png","","","","",""
"","html-keyboard-response","56","351729","0.0-6.0-4.0-0.8","46od33hjwb","many_one","0","direct_first","1","er05im20","0","18","1","1","1","2","null","","","<div class = 'row'><div class = 'column'><img src = 'usneg/9220.bmp' width = '100%;'></div><div class = 'column'><img src = 'category4/CS2.png' width = '70%;'></div></div>","null","neg","CS","CS","4","category4/CS2.png","","","","",""
"","html-keyboard-response","57","354251","0.0-6.0-4.0-0.9","46od33hjwb","many_one","0","direct_first","1","er05im20","0","18","1","1","1","2","null","","","<div class = 'row'><div class = 'column'><img src = 'category1/CS8.png' width = '70%;'></div><div class = 'column'><img src = 'uspos/1460.bmp' width = '100%;'></div></div>","null","pos","CS","CS","1","category1/CS8.png","","","","",""
"","html-keyboard-response","58","356770","0.0-6.0-4.0-0.10","46od33hjwb","many_one","0","direct_first","1","er05im20","0","18","1","1","1","2","null","","","<div class = 'row'><div class = 'column'><img src = 'uspos/2340.bmp' width = '100%;'></div><div class = 'column'><img src = 'category3/CS1.png' width = '70%;'></div></div>","null","pos","CS","CS","3","category3/CS1.png","","","","",""
"","html-keyboard-response","59","359309","0.0-6.0-4.0-0.11","46od33hjwb","many_one","0","direct_first","1","er05im20","0","18","1","1","1","2","null","","","<div class = 'row'><div class = 'column'><img src = 'category1/CS7.png' width = '70%;'></div><div class = 'column'><img src = 'uspos/8190.bmp' width = '100%;'></div></div>","null","pos","CS","CS","1","category1/CS7.png","","","","",""
"","html-keyboard-response","60","361849","0.0-6.0-4.0-0.12","46od33hjwb","many_one","0","direct_first","1","er05im20","0","18","1","1","1","2","null","","","<div class = 'row'><div class = 'column'><img src = 'usneg/9561.bmp' width = '100%;'></div><div class = 'column'><img src = 'category2/CS1.png' width = '70%;'></div></div>","null","neg","CS","CS","2","category2/CS1.png","","","","",""
"","html-keyboard-response","61","364380","0.0-6.0-4.0-0.13","46od33hjwb","many_one","0","direct_first","1","er05im20","0","18","1","1","1","2","null","","","<div class = 'row'><div class = 'column'><img src = 'usneg/9520.bmp' width = '100%;'></div><div class = 'column'><img src = 'category4/CS4.png' width = '70%;'></div></div>","null","neg","CS","CS","4","category4/CS4.png","","","","",""
"","html-keyboard-response","62","366919","0.0-6.0-4.0-0.14","46od33hjwb","many_one","0","direct_first","1","er05im20","0","18","1","1","1","2","null","","","<div class = 'row'><div class = 'column'><img src = 'category3/CS9.png' width = '70%;'></div><div class = 'column'><img src = 'uspos/2160.bmp' width = '100%;'></div></div>","null","pos","CS","CS","3","category3/CS9.png","","","","",""
"","html-keyboard-response","63","369459","0.0-6.0-4.0-0.15","46od33hjwb","many_one","0","direct_first","1","er05im20","0","18","1","1","1","2","null","","","<div class = 'row'><div class = 'column'><img src = 'category3/CS10.png' width = '70%;'></div><div class = 'column'><img src = 'uspos/2150.bmp' width = '100%;'></div></div>","null","pos","CS","CS","3","category3/CS10.png","","","","",""
"","html-keyboard-response","64","371999","0.0-6.0-4.0-0.16","46od33hjwb","many_one","0","direct_first","1","er05im20","0","18","1","1","1","2","null","","","<div class = 'row'><div class = 'column'><img src = 'category1/CS9.png' width = '70%;'></div><div class = 'column'><img src = 'uspos/5830.bmp' width = '100%;'></div></div>","null","pos","CS","CS","1","category1/CS9.png","","","","",""
"","html-keyboard-response","65","374519","0.0-6.0-4.0-0.17","46od33hjwb","many_one","0","direct_first","1","er05im20","0","18","1","1","1","2","null","","","<div class = 'row'><div class = 'column'><img src = 'category4/CS5.png' width = '70%;'></div><div class = 'column'><img src = 'usneg/2205.bmp' width = '100%;'></div></div>","null","neg","CS","CS","4","category4/CS5.png","","","","",""
"","html-keyboard-response","66","377060","0.0-6.0-4.0-0.18","46od33hjwb","many_one","0","direct_first","1","er05im20","0","18","1","1","1","2","null","","","<div class = 'row'><div class = 'column'><img src = 'category3/CS4.png' width = '70%;'></div><div class = 'column'><img src = 'uspos/2208.bmp' width = '100%;'></div></div>","null","pos","CS","CS","3","category3/CS4.png","","","","",""
"","html-keyboard-response","67","379580","0.0-6.0-4.0-0.19","46od33hjwb","many_one","0","direct_first","1","er05im20","0","18","1","1","1","2","null","","","<div class = 'row'><div class = 'column'><img src = 'category2/CS2.png' width = '70%;'></div><div class = 'column'><img src = 'usneg/3160.bmp' width = '100%;'></div></div>","null","neg","CS","CS","2","category2/CS2.png","","","","",""
"","survey-html-form","68","383569","0.0-6.0-5.0","46od33hjwb","many_one","0","direct_first","1","er05im20","0","18","1","1","1","2","3469","","{}","","","","","","","","","","","",""
"","html-keyboard-response","69","387599","0.0-6.0-6.0-0.0","46od33hjwb","many_one","0","direct_first","1","er05im20","0","18","1","1","1","2","null","","","<div class = 'row'><div class = 'column'><img src = 'category2/CS1.png' width = '70%;'></div><div class = 'column'><img src = 'usneg/9561.bmp' width = '100%;'></div></div>","null","neg","CS","CS","2","category2/CS1.png","","","","",""
"","html-keyboard-response","70","390140","0.0-6.0-6.0-0.1","46od33hjwb","many_one","0","direct_first","1","er05im20","0","18","1","1","1","2","null","","","<div class = 'row'><div class = 'column'><img src = 'uspos/8190.bmp' width = '100%;'></div><div class = 'column'><img src = 'category1/CS7.png' width = '70%;'></div></div>","null","pos","CS","CS","1","category1/CS7.png","","","","",""
"","html-keyboard-response","71","392679","0.0-6.0-6.0-0.2","46od33hjwb","many_one","0","direct_first","1","er05im20","0","18","1","1","1","2","null","","","<div class = 'row'><div class = 'column'><img src = 'category3/CS4.png' width = '70%;'></div><div class = 'column'><img src = 'uspos/2208.bmp' width = '100%;'></div></div>","null","pos","CS","CS","3","category3/CS4.png","","","","",""
"","html-keyboard-response","72","395219","0.0-6.0-6.0-0.3","46od33hjwb","many_one","0","direct_first","1","er05im20","0","18","1","1","1","2","null","","","<div class = 'row'><div class = 'column'><img src = 'uspos/1463.bmp' width = '100%;'></div><div class = 'column'><img src = 'category3/CS7.png' width = '70%;'></div></div>","null","pos","CS","CS","3","category3/CS7.png","","","","",""
"","html-keyboard-response","73","397739","0.0-6.0-6.0-0.4","46od33hjwb","many_one","0","direct_first","1","er05im20","0","18","1","1","1","2","null","","","<div class = 'row'><div class = 'column'><img src = 'uspos/5830.bmp' width = '100%;'></div><div class = 'column'><img src = 'category1/CS9.png' width = '70%;'></div></div>","null","pos","CS","CS","1","category1/CS9.png","","","","",""
"","html-keyboard-response","74","400260","0.0-6.0-6.0-0.5","46od33hjwb","many_one","0","direct_first","1","er05im20","0","18","1","1","1","2","null","","","<div class = 'row'><div class = 'column'><img src = 'category4/CS2.png' width = '70%;'></div><div class = 'column'><img src = 'usneg/9220.bmp' width = '100%;'></div></div>","null","neg","CS","CS","4","category4/CS2.png","","","","",""
"","html-keyboard-response","75","402799","0.0-6.0-6.0-0.6","46od33hjwb","many_one","0","direct_first","1","er05im20","0","18","1","1","1","2","null","","","<div class = 'row'><div class = 'column'><img src = 'category2/CS6.png' width = '70%;'></div><div class = 'column'><img src = 'usneg/9050.bmp' width = '100%;'></div></div>","null","neg","CS","CS","2","category2/CS6.png","","","","",""
"","html-keyboard-response","76","405320","0.0-6.0-6.0-0.7","46od33hjwb","many_one","0","direct_first","1","er05im20","0","18","1","1","1","2","null","","","<div class = 'row'><div class = 'column'><img src = 'category4/CS4.png' width = '70%;'></div><div class = 'column'><img src = 'usneg/9520.bmp' width = '100%;'></div></div>","null","neg","CS","CS","4","category4/CS4.png","","","","",""
"","html-keyboard-response","77","407859","0.0-6.0-6.0-0.8","46od33hjwb","many_one","0","direct_first","1","er05im20","0","18","1","1","1","2","null","","","<div class = 'row'><div class = 'column'><img src = 'category3/CS1.png' width = '70%;'></div><div class = 'column'><img src = 'uspos/2340.bmp' width = '100%;'></div></div>","null","pos","CS","CS","3","category3/CS1.png","","","","",""
"","html-keyboard-response","78","410400","0.0-6.0-6.0-0.9","46od33hjwb","many_one","0","direct_first","1","er05im20","0","18","1","1","1","2","null","","","<div class = 'row'><div class = 'column'><img src = 'category1/CS10.png' width = '70%;'></div><div class = 'column'><img src = 'uspos/8540.bmp' width = '100%;'></div></div>","null","pos","CS","CS","1","category1/CS10.png","","","","",""
"","html-keyboard-response","79","412939","0.0-6.0-6.0-0.10","46od33hjwb","many_one","0","direct_first","1","er05im20","0","18","1","1","1","2","null","","","<div class = 'row'><div class = 'column'><img src = 'category4/CS1.png' width = '70%;'></div><div class = 'column'><img src = 'usneg/9435.bmp' width = '100%;'></div></div>","null","neg","CS","CS","4","category4/CS1.png","","","","",""
"","html-keyboard-response","80","415479","0.0-6.0-6.0-0.11","46od33hjwb","many_one","0","direct_first","1","er05im20","0","18","1","1","1","2","null","","","<div class = 'row'><div class = 'column'><img src = 'uspos/2150.bmp' width = '100%;'></div><div class = 'column'><img src = 'category3/CS10.png' width = '70%;'></div></div>","null","pos","CS","CS","3","category3/CS10.png","","","","",""
"","html-keyboard-response","81","417999","0.0-6.0-6.0-0.12","46od33hjwb","many_one","0","direct_first","1","er05im20","0","18","1","1","1","2","null","","","<div class = 'row'><div class = 'column'><img src = 'category4/CS5.png' width = '70%;'></div><div class = 'column'><img src = 'usneg/2205.bmp' width = '100%;'></div></div>","null","neg","CS","CS","4","category4/CS5.png","","","","",""
"","html-keyboard-response","82","420540","0.0-6.0-6.0-0.13","46od33hjwb","many_one","0","direct_first","1","er05im20","0","18","1","1","1","2","null","","","<div class = 'row'><div class = 'column'><img src = 'category4/CS10.png' width = '70%;'></div><div class = 'column'><img src = 'usneg/6570.1.bmp' width = '100%;'></div></div>","null","neg","CS","CS","4","category4/CS10.png","","","","",""
"","html-keyboard-response","83","423070","0.0-6.0-6.0-0.14","46od33hjwb","many_one","0","direct_first","1","er05im20","0","18","1","1","1","2","null","","","<div class = 'row'><div class = 'column'><img src = 'category3/CS9.png' width = '70%;'></div><div class = 'column'><img src = 'uspos/2160.bmp' width = '100%;'></div></div>","null","pos","CS","CS","3","category3/CS9.png","","","","",""
"","html-keyboard-response","84","425579","0.0-6.0-6.0-0.15","46od33hjwb","many_one","0","direct_first","1","er05im20","0","18","1","1","1","2","null","","","<div class = 'row'><div class = 'column'><img src = 'category2/CS9.png' width = '70%;'></div><div class = 'column'><img src = 'usneg/9041.bmp' width = '100%;'></div></div>","null","neg","CS","CS","2","category2/CS9.png","","","","",""
"","html-keyboard-response","85","428119","0.0-6.0-6.0-0.16","46od33hjwb","many_one","0","direct_first","1","er05im20","0","18","1","1","1","2","null","","","<div class = 'row'><div class = 'column'><img src = 'uspos/4625.bmp' width = '100%;'></div><div class = 'column'><img src = 'category1/CS5.png' width = '70%;'></div></div>","null","pos","CS","CS","1","category1/CS5.png","","","","",""
"","html-keyboard-response","86","430639","0.0-6.0-6.0-0.17","46od33hjwb","many_one","0","direct_first","1","er05im20","0","18","1","1","1","2","null","","","<div class = 'row'><div class = 'column'><img src = 'usneg/9182.bmp' width = '100%;'></div><div class = 'column'><img src = 'category2/CS3.png' width = '70%;'></div></div>","null","neg","CS","CS","2","category2/CS3.png","","","","",""
"","html-keyboard-response","87","433179","0.0-6.0-6.0-0.18","46od33hjwb","many_one","0","direct_first","1","er05im20","0","18","1","1","1","2","null","","","<div class = 'row'><div class = 'column'><img src = 'category2/CS2.png' width = '70%;'></div><div class = 'column'><img src = 'usneg/3160.bmp' width = '100%;'></div></div>","null","neg","CS","CS","2","category2/CS2.png","","","","",""
"","html-keyboard-response","88","435709","0.0-6.0-6.0-0.19","46od33hjwb","many_one","0","direct_first","1","er05im20","0","18","1","1","1","2","null","","","<div class = 'row'><div class = 'column'><img src = 'uspos/1460.bmp' width = '100%;'></div><div class = 'column'><img src = 'category1/CS8.png' width = '70%;'></div></div>","null","pos","CS","CS","1","category1/CS8.png","","","","",""
"","survey-html-form","89","451745","0.0-7.0","46od33hjwb","many_one","0","direct_first","1","er05im20","0","18","1","1","1","2","15516","","{}","","","","","","","","","","","",""
"","image-slider-response","90","461113","0.0-8.0-0.0","46od33hjwb","many_one","0","direct_first","1","er05im20","0","18","1","1","1","2","7349","","","","","neg","CS","CS","2","category2/CS2.png","-41","targets/8.png","direct","",""
"","image-slider-response","91","464697","0.0-8.0-0.1","46od33hjwb","many_one","0","direct_first","1","er05im20","0","18","1","1","1","2","3582","","","","","neg","CS","CS","2","category2/CS9.png","-40","targets/48.png","direct","",""
"","image-slider-response","92","467568","0.0-8.0-0.2","46od33hjwb","many_one","0","direct_first","1","er05im20","0","18","1","1","1","2","2871","","","","","neg","CS","CS","2","category2/CS3.png","-52","targets/7.png","direct","",""
"","image-slider-response","93","470232","0.0-8.0-0.3","46od33hjwb","many_one","0","direct_first","1","er05im20","0","18","1","1","1","2","2662","","","","","pos","GS","GSold","1","category1/CS1.png","54","targets/24.png","direct","",""
"","image-slider-response","94","473440","0.0-8.0-0.4","46od33hjwb","many_one","0","direct_first","1","er05im20","0","18","1","1","1","2","3206","","","","","neg","GS","GSnew","2","category2/GS1.png","-41","targets/22.png","direct","",""
"","image-slider-response","95","477608","0.0-8.0-0.5","46od33hjwb","many_one","0","direct_first","1","er05im20","0","18","1","1","1","2","4167","","","","","pos","CS","CS","1","category1/CS10.png","7","targets/31.png","direct","",""
"","image-slider-response","96","480217","0.0-8.0-0.6","46od33hjwb","many_one","0","direct_first","1","er05im20","0","18","1","1","1","2","2607","","","","","pos","GS","GSnew","3","category3/GS1.png","8","targets/16.png","direct","",""
"","image-slider-response","97","482360","0.0-8.0-0.7","46od33hjwb","many_one","0","direct_first","1","er05im20","0","18","1","1","1","2","2143","","","","","neg","CS","CS","4","category4/CS5.png","21","targets/30.png","direct","",""
"","image-slider-response","98","485457","0.0-8.0-0.8","46od33hjwb","many_one","0","direct_first","1","er05im20","0","18","1","1","1","2","3095","","","","","pos","GS","GSold","3","category3/CS5.png","9","targets/40.png","direct","",""
"","image-slider-response","99","491368","0.0-8.0-0.9","46od33hjwb","many_one","0","direct_first","1","er05im20","0","18","1","1","1","2","5911","","","","","neg","GS","GSold","2","category2/CS10.png","36","targets/6.png","direct","",""
"","image-slider-response","100","494784","0.0-8.0-0.10","46od33hjwb","many_one","0","direct_first","1","er05im20","0","18","1","1","1","2","3415","","","","","pos","CS","CS","3","category3/CS9.png","46","targets/29.png","direct","",""
"","image-slider-response","101","497152","0.0-8.0-0.11","46od33hjwb","many_one","0","direct_first","1","er05im20","0","18","1","1","1","2","2366","","","","","neg","GS","GSnew","2","category2/GS3.png","-55","targets/32.png","direct","",""
"","image-slider-response","102","499144","0.0-8.0-0.12","46od33hjwb","many_one","0","direct_first","1","er05im20","0","18","1","1","1","2","1991","","","","","pos","GS","GSnew","1","category1/GS3.png","-59","targets/2.png","direct","",""
"","image-slider-response","103","501312","0.0-8.0-0.13","46od33hjwb","many_one","0","direct_first","1","er05im20","0","18","1","1","1","2","2167","","","","","pos","GS","GSold","1","category1/CS3.png","58","targets/26.png","direct","",""
"","image-slider-response","104","503688","0.0-8.0-0.14","46od33hjwb","many_one","0","direct_first","1","er05im20","0","18","1","1","1","2","2375","","","","","pos","GS","abstract","1","category1/ma.png","-65","targets/39.png","direct","",""
"","image-slider-response","105","507808","0.0-8.0-0.15","46od33hjwb","many_one","0","direct_first","1","er05im20","0","18","1","1","1","2","4118","","","","","neg","CS","CS","4","category4/CS4.png","53","targets/43.png","direct","",""
"","image-slider-response","106","510528","0.0-8.0-0.16","46od33hjwb","many_one","0","direct_first","1","er05im20","0","18","1","1","1","2","2719","","","","","pos","GS","GSold","1","category1/CS2.png","48","targets/21.png","direct","",""
"","image-slider-response","107","517568","0.0-8.0-0.17","46od33hjwb","many_one","0","direct_first","1","er05im20","0","18","1","1","1","2","7038","","","","","pos","CS","CS","1","category1/CS5.png","-32","targets/19.png","direct","",""
"","image-slider-response","108","519648","0.0-8.0-0.18","46od33hjwb","many_one","0","direct_first","1","er05im20","0","18","1","1","1","2","2079","","","","","neg","GS","GSold","4","category4/CS9.png","53","targets/37.png","direct","",""
"","image-slider-response","109","522464","0.0-8.0-0.19","46od33hjwb","many_one","0","direct_first","1","er05im20","0","18","1","1","1","2","2815","","","","","neg","CS","CS","2","category2/CS1.png","-25","targets/45.png","direct","",""
"","image-slider-response","110","525552","0.0-8.0-0.20","46od33hjwb","many_one","0","direct_first","1","er05im20","0","18","1","1","1","2","3088","","","","","pos","GS","GSold","3","category3/CS3.png","29","targets/10.png","direct","",""
"","image-slider-response","111","527400","0.0-8.0-0.21","46od33hjwb","many_one","0","direct_first","1","er05im20","0","18","1","1","1","2","1847","","","","","neg","CS","CS","4","category4/CS10.png","45","targets/44.png","direct","",""
"","image-slider-response","112","529408","0.0-8.0-0.22","46od33hjwb","many_one","0","direct_first","1","er05im20","0","18","1","1","1","2","2007","","","","","neg","GS","GSnew","4","category4/GS3.png","-51","targets/28.png","direct","",""
"","image-slider-response","113","531616","0.0-8.0-0.23","46od33hjwb","many_one","0","direct_first","1","er05im20","0","18","1","1","1","2","2207","","","","","pos","CS","CS","1","category1/CS9.png","-73","targets/38.png","direct","",""
"","image-slider-response","114","533921","0.0-8.0-0.24","46od33hjwb","many_one","0","direct_first","1","er05im20","0","18","1","1","1","2","2302","","","","","neg","GS","GSold","4","category4/CS7.png","-21","targets/13.png","direct","",""
"","image-slider-response","115","535760","0.0-8.0-0.25","46od33hjwb","many_one","0","direct_first","1","er05im20","0","18","1","1","1","2","1839","","","","","pos","CS","CS","3","category3/CS4.png","-46","targets/11.png","direct","",""
"","image-slider-response","116","537320","0.0-8.0-0.26","46od33hjwb","many_one","0","direct_first","1","er05im20","0","18","1","1","1","2","1559","","","","","neg","GS","GSold","2","category2/CS4.png","-45","targets/9.png","direct","",""
"","image-slider-response","117","539488","0.0-8.0-0.27","46od33hjwb","many_one","0","direct_first","1","er05im20","0","18","1","1","1","2","2168","","","","","pos","CS","CS","1","category1/CS8.png","31","targets/18.png","direct","",""
"","image-slider-response","118","541776","0.0-8.0-0.28","46od33hjwb","many_one","0","direct_first","1","er05im20","0","18","1","1","1","2","2287","","","","","neg","GS","GSold","2","category2/CS5.png","-33","targets/5.png","direct","",""
"","image-slider-response","119","543552","0.0-8.0-0.29","46od33hjwb","many_one","0","direct_first","1","er05im20","0","18","1","1","1","2","1775","","","","","neg","CS","CS","4","category4/CS1.png","47","targets/15.png","direct","",""
"","image-slider-response","120","545536","0.0-8.0-0.30","46od33hjwb","many_one","0","direct_first","1","er05im20","0","18","1","1","1","2","1983","","","","","pos","GS","GSnew","3","category3/GS3.png","-28","targets/33.png","direct","",""
"","image-slider-response","121","547337","0.0-8.0-0.31","46od33hjwb","many_one","0","direct_first","1","er05im20","0","18","1","1","1","2","1799","","","","","pos","CS","CS","3","category3/CS10.png","-63","targets/3.png","direct","",""
"","image-slider-response","122","550432","0.0-8.0-0.32","46od33hjwb","many_one","0","direct_first","1","er05im20","0","18","1","1","1","2","3094","","","","","neg","CS","CS","2","category2/CS6.png","-34","targets/4.png","direct","",""
"","image-slider-response","123","552624","0.0-8.0-0.33","46od33hjwb","many_one","0","direct_first","1","er05im20","0","18","1","1","1","2","2191","","","","","neg","CS","CS","4","category4/CS2.png","-44","targets/20.png","direct","",""
"","image-slider-response","124","554544","0.0-8.0-0.34","46od33hjwb","many_one","0","direct_first","1","er05im20","0","18","1","1","1","2","1919","","","","","neg","GS","GSnew","2","category2/GS2.png","-54","targets/36.png","direct","",""
"","image-slider-response","125","556312","0.0-8.0-0.35","46od33hjwb","many_one","0","direct_first","1","er05im20","0","18","1","1","1","2","1766","","","","","neg","GS","GSold","4","category4/CS8.png","-68","targets/23.png","direct","",""
"","image-slider-response","126","559089","0.0-8.0-0.36","46od33hjwb","many_one","0","direct_first","1","er05im20","0","18","1","1","1","2","2775","","","","","pos","GS","abstract","3","category3/wang.png","64","targets/34.png","direct","",""
"","image-slider-response","127","560952","0.0-8.0-0.37","46od33hjwb","many_one","0","direct_first","1","er05im20","0","18","1","1","1","2","1861","","","","","pos","GS","GSnew","1","category1/GS1.png","-44","targets/27.png","direct","",""
"","image-slider-response","128","565784","0.0-8.0-0.38","46od33hjwb","many_one","0","direct_first","1","er05im20","0","18","1","1","1","2","4831","","","","","pos","CS","CS","3","category3/CS1.png","-47","targets/25.png","direct","",""
"","image-slider-response","129","568591","0.0-8.0-0.39","46od33hjwb","many_one","0","direct_first","1","er05im20","0","18","1","1","1","2","2807","","","","","pos","GS","GSold","3","category3/CS2.png","34","targets/14.png","direct","",""
"","image-slider-response","130","572648","0.0-8.0-0.40","46od33hjwb","many_one","0","direct_first","1","er05im20","0","18","1","1","1","2","4055","","","","","pos","GS","GSnew","3","category3/GS2.png","-55","targets/42.png","direct","",""
"","image-slider-response","131","576168","0.0-8.0-0.41","46od33hjwb","many_one","0","direct_first","1","er05im20","0","18","1","1","1","2","3519","","","","","pos","GS","GSnew","1","category1/GS2.png","-30","targets/1.png","direct","",""
"","image-slider-response","132","578640","0.0-8.0-0.42","46od33hjwb","many_one","0","direct_first","1","er05im20","0","18","1","1","1","2","2471","","","","","neg","GS","abstract","4","category4/lin.png","31","targets/12.png","direct","",""
"","image-slider-response","133","580536","0.0-8.0-0.43","46od33hjwb","many_one","0","direct_first","1","er05im20","0","18","1","1","1","2","1896","","","","","pos","CS","CS","3","category3/CS7.png","-42","targets/47.png","direct","",""
"","image-slider-response","134","582072","0.0-8.0-0.44","46od33hjwb","many_one","0","direct_first","1","er05im20","0","18","1","1","1","2","1536","","","","","neg","GS","GSnew","4","category4/GS1.png","-53","targets/17.png","direct","",""
"","image-slider-response","135","584240","0.0-8.0-0.45","46od33hjwb","many_one","0","direct_first","1","er05im20","0","18","1","1","1","2","2167","","","","","neg","GS","GSnew","4","category4/GS2.png","-52","targets/35.png","direct","",""
"","image-slider-response","136","586271","0.0-8.0-0.46","46od33hjwb","many_one","0","direct_first","1","er05im20","0","18","1","1","1","2","2031","","","","","pos","CS","CS","1","category1/CS7.png","-49","targets/41.png","direct","",""
"","image-slider-response","137","588296","0.0-8.0-0.47","46od33hjwb","many_one","0","direct_first","1","er05im20","0","18","1","1","1","2","2022","","","","","neg","GS","abstract","2","category2/men.png","-41","targets/46.png","direct","",""
"","html-keyboard-response","138","633922","0.0-9.0","46od33hjwb","many_one","0","direct_first","1","er05im20","0","18","1","1","1","2","45625","","","<p>Sie sehen nun die chinesischen Zeichen nur ganz kurz. Danach sehen Sie die jeweilige Aussprache der Zeichen als Silbe auf dem Bildschrim. Ihre Aufgabe ist es, für jede Silbe anzugeben, ob diese etwas angenehmes, oder unangenehmes bedeuten könnte. Verlassen Sie sich hier vor allem auf Ihre Intuition.<br><br>Die Zeichen werden nur zur Orientierung dargestellt, beachten Sie sie deshalb nicht. Konzentrieren Sie sich vor allem auf die Silben. <br>Reagieren Sie mit folgenden zwei Tasten: <br><br><b>'D' </b> wenn die Silbe etwas <b>unangenehmes</b> bedeuten könnte. <br><b>'K'</b> wenn die Silbe etwas <b>angenehmes</b> bedeuten könnte. <br><br>Bitte legen Sie nun den Zeigefinger der linken Hand auf die Taste 'D' und den Zeigefinger der rechten Hand auf die Taste 'K'. <br>Reagieren Sie auf jede Silbe so schnell wie möglich. Uns interessiert Ihre spontane Reaktion. <br> <br> <br>Drücken Sie 'D' oder 'K', um die nächste Aufgabe zu starten. </p>","68","","","","","","","","","",""
"","html-keyboard-response","139","636943","0.0-10.0-0.0","46od33hjwb","many_one","0","direct_first","1","er05im20","0","18","1","1","1","2","null","","","<div style=""font-size:60px;"">+</div>","null","","","","","","","","","",""
"","html-keyboard-response","140","637038","0.0-10.0-1.0","46od33hjwb","many_one","0","direct_first","1","er05im20","0","18","1","1","1","2","null","","","<img src = 'category3/CS7.png' width = '100%;'>","null","","","","","","","","","",""
"","html-keyboard-response","141","637308","0.0-10.0-2.0","46od33hjwb","many_one","0","direct_first","1","er05im20","0","18","1","1","1","2","null","","","<img src = 'targets/47.png' width = '100%;'>","null","","","","","","","","","",""
"","html-keyboard-response","142","637353","0.0-10.0-3.0","46od33hjwb","many_one","0","direct_first","1","er05im20","0","18","1","1","1","2","41","","","<img src = 'targets/mask.png' width = '100%;'>","68","pos","CS","CS","3","category3/CS7.png","","targets/47.png","indirect","0","0"
"","html-keyboard-response","143","638888","0.0-10.0-0.1","46od33hjwb","many_one","0","direct_first","1","er05im20","0","18","1","1","1","2","null","","","<div style=""font-size:60px;"">+</div>","null","","","","","","","","","",""
"","html-keyboard-response","144","638988","0.0-10.0-1.1","46od33hjwb","many_one","0","direct_first","1","er05im20","0","18","1","1","1","2","null","","","<img src = 'category3/CS1.png' width = '100%;'>","null","","","","","","","","","",""
"","html-keyboard-response","145","639268","0.0-10.0-2.1","46od33hjwb","many_one","0","direct_first","1","er05im20","0","18","1","1","1","2","null","","","<img src = 'targets/25.png' width = '100%;'>","null","","","","","","","","","",""
"","html-keyboard-response","146","642960","0.0-10.0-3.1","46od33hjwb","many_one","0","direct_first","1","er05im20","0","18","1","1","1","2","3691","","","<img src = 'targets/mask.png' width = '100%;'>","68","pos","CS","CS","3","category3/CS1.png","","targets/25.png","indirect","0","1"
"","html-keyboard-response","147","644465","0.0-10.0-0.2","46od33hjwb","many_one","0","direct_first","1","er05im20","0","18","1","1","1","2","null","","","<div style=""font-size:60px;"">+</div>","null","","","","","","","","","",""
"","html-keyboard-response","148","644567","0.0-10.0-1.2","46od33hjwb","many_one","0","direct_first","1","er05im20","0","18","1","1","1","2","null","","","<img src = 'category4/CS2.png' width = '100%;'>","null","","","","","","","","","",""
"","html-keyboard-response","149","644848","0.0-10.0-2.2","46od33hjwb","many_one","0","direct_first","1","er05im20","0","18","1","1","1","2","null","","","<img src = 'targets/20.png' width = '100%;'>","null","","","","","","","","","",""
"","html-keyboard-response","150","647217","0.0-10.0-3.2","46od33hjwb","many_one","0","direct_first","1","er05im20","0","18","1","1","1","2","2368","","","<img src = 'targets/mask.png' width = '100%;'>","75","neg","CS","CS","4","category4/CS2.png","","targets/20.png","indirect","1","2"
"","html-keyboard-response","151","648747","0.0-10.0-0.3","46od33hjwb","many_one","0","direct_first","1","er05im20","0","18","1","1","1","2","null","","","<div style=""font-size:60px;"">+</div>","null","","","","","","","","","",""
"","html-keyboard-response","152","648848","0.0-10.0-1.3","46od33hjwb","many_one","0","direct_first","1","er05im20","0","18","1","1","1","2","null","","","<img src = 'category2/CS5.png' width = '100%;'>","null","","","","","","","","","",""
"","html-keyboard-response","153","649128","0.0-10.0-2.3","46od33hjwb","many_one","0","direct_first","1","er05im20","0","18","1","1","1","2","null","","","<img src = 'targets/5.png' width = '100%;'>","null","","","","","","","","","",""
"","html-keyboard-response","154","651319","0.0-10.0-3.3","46od33hjwb","many_one","0","direct_first","1","er05im20","0","18","1","1","1","2","2191","","","<img src = 'targets/mask.png' width = '100%;'>","68","neg","GS","GSold","2","category2/CS5.png","","targets/5.png","indirect","0","3"
"","html-keyboard-response","155","652848","0.0-10.0-0.4","46od33hjwb","many_one","0","direct_first","1","er05im20","0","18","1","1","1","2","null","","","<div style=""font-size:60px;"">+</div>","null","","","","","","","","","",""
"","html-keyboard-response","156","652949","0.0-10.0-1.4","46od33hjwb","many_one","0","direct_first","1","er05im20","0","18","1","1","1","2","null","","","<img src = 'category2/CS9.png' width = '100%;'>","null","","","","","","","","","",""
"","html-keyboard-response","157","653228","0.0-10.0-2.4","46od33hjwb","many_one","0","direct_first","1","er05im20","0","18","1","1","1","2","null","","","<img src = 'targets/48.png' width = '100%;'>","null","","","","","","","","","",""
"","html-keyboard-response","158","655289","0.0-10.0-3.4","46od33hjwb","many_one","0","direct_first","1","er05im20","0","18","1","1","1","2","2059","","","<img src = 'targets/mask.png' width = '100%;'>","75","neg","CS","CS","2","category2/CS9.png","","targets/48.png","indirect","1","4"
"","html-keyboard-response","159","656828","0.0-10.0-0.5","46od33hjwb","many_one","0","direct_first","1","er05im20","0","18","1","1","1","2","null","","","<div style=""font-size:60px;"">+</div>","null","","","","","","","","","",""
"","html-keyboard-response","160","656928","0.0-10.0-1.5","46od33hjwb","many_one","0","direct_first","1","er05im20","0","18","1","1","1","2","null","","","<img src = 'category4/CS5.png' width = '100%;'>","null","","","","","","","","","",""
"","html-keyboard-response","161","657208","0.0-10.0-2.5","46od33hjwb","many_one","0","direct_first","1","er05im20","0","18","1","1","1","2","null","","","<img src = 'targets/30.png' width = '100%;'>","null","","","","","","","","","",""
"","html-keyboard-response","162","659184","0.0-10.0-3.5","46od33hjwb","many_one","0","direct_first","1","er05im20","0","18","1","1","1","2","1975","","","<img src = 'targets/mask.png' width = '100%;'>","68","neg","CS","CS","4","category4/CS5.png","","targets/30.png","indirect","0","5"
"","html-keyboard-response","163","660687","0.0-10.0-0.6","46od33hjwb","many_one","0","direct_first","1","er05im20","0","18","1","1","1","2","null","","","<div style=""font-size:60px;"">+</div>","null","","","","","","","","","",""
"","html-keyboard-response","164","660788","0.0-10.0-1.6","46od33hjwb","many_one","0","direct_first","1","er05im20","0","18","1","1","1","2","null","","","<img src = 'category2/CS6.png' width = '100%;'>","null","","","","","","","","","",""
"","html-keyboard-response","165","661068","0.0-10.0-2.6","46od33hjwb","many_one","0","direct_first","1","er05im20","0","18","1","1","1","2","null","","","<img src = 'targets/4.png' width = '100%;'>","null","","","","","","","","","",""
"","html-keyboard-response","166","662463","0.0-10.0-3.6","46od33hjwb","many_one","0","direct_first","1","er05im20","0","18","1","1","1","2","1395","","","<img src = 'targets/mask.png' width = '100%;'>","68","neg","CS","CS","2","category2/CS6.png","","targets/4.png","indirect","0","6"
"","html-keyboard-response","167","663997","0.0-10.0-0.7","46od33hjwb","many_one","0","direct_first","1","er05im20","0","18","1","1","1","2","null","","","<div style=""font-size:60px;"">+</div>","null","","","","","","","","","",""
"","html-keyboard-response","168","664098","0.0-10.0-1.7","46od33hjwb","many_one","0","direct_first","1","er05im20","0","18","1","1","1","2","null","","","<img src = 'category2/CS4.png' width = '100%;'>","null","","","","","","","","","",""
"","html-keyboard-response","169","664378","0.0-10.0-2.7","46od33hjwb","many_one","0","direct_first","1","er05im20","0","18","1","1","1","2","null","","","<img src = 'targets/9.png' width = '100%;'>","null","","","","","","","","","",""
"","html-keyboard-response","170","664944","0.0-10.0-3.7","46od33hjwb","many_one","0","direct_first","1","er05im20","0","18","1","1","1","2","565","","","<img src = 'targets/mask.png' width = '100%;'>","75","neg","GS","GSold","2","category2/CS4.png","","targets/9.png","indirect","1","7"
"","html-keyboard-response","171","666477","0.0-10.0-0.8","46od33hjwb","many_one","0","direct_first","1","er05im20","0","18","1","1","1","2","null","","","<div style=""font-size:60px;"">+</div>","null","","","","","","","","","",""
"","html-keyboard-response","172","666577","0.0-10.0-1.8","46od33hjwb","many_one","0","direct_first","1","er05im20","0","18","1","1","1","2","null","","","<img src = 'category1/CS9.png' width = '100%;'>","null","","","","","","","","","",""
"","html-keyboard-response","173","666848","0.0-10.0-2.8","46od33hjwb","many_one","0","direct_first","1","er05im20","0","18","1","1","1","2","null","","","<img src = 'targets/38.png' width = '100%;'>","null","","","","","","","","","",""
"","html-keyboard-response","174","667976","0.0-10.0-3.8","46od33hjwb","many_one","0","direct_first","1","er05im20","0","18","1","1","1","2","1127","","","<img src = 'targets/mask.png' width = '100%;'>","75","pos","CS","CS","1","category1/CS9.png","","targets/38.png","indirect","1","8"
"","html-keyboard-response","175","669477","0.0-10.0-0.9","46od33hjwb","many_one","0","direct_first","1","er05im20","0","18","1","1","1","2","null","","","<div style=""font-size:60px;"">+</div>","null","","","","","","","","","",""
"","html-keyboard-response","176","669578","0.0-10.0-1.9","46od33hjwb","many_one","0","direct_first","1","er05im20","0","18","1","1","1","2","null","","","<img src = 'category4/CS4.png' width = '100%;'>","null","","","","","","","","","",""
"","html-keyboard-response","177","669858","0.0-10.0-2.9","46od33hjwb","many_one","0","direct_first","1","er05im20","0","18","1","1","1","2","null","","","<img src = 'targets/43.png' width = '100%;'>","null","","","","","","","","","",""
"","html-keyboard-response","178","670872","0.0-10.0-3.9","46od33hjwb","many_one","0","direct_first","1","er05im20","0","18","1","1","1","2","1013","","","<img src = 'targets/mask.png' width = '100%;'>","68","neg","CS","CS","4","category4/CS4.png","","targets/43.png","indirect","0","9"
"","html-keyboard-response","179","672398","0.0-10.0-0.10","46od33hjwb","many_one","0","direct_first","1","er05im20","0","18","1","1","1","2","null","","","<div style=""font-size:60px;"">+</div>","null","","","","","","","","","",""
"","html-keyboard-response","180","672497","0.0-10.0-1.10","46od33hjwb","many_one","0","direct_first","1","er05im20","0","18","1","1","1","2","null","","","<img src = 'category3/CS9.png' width = '100%;'>","null","","","","","","","","","",""
"","html-keyboard-response","181","672778","0.0-10.0-2.10","46od33hjwb","many_one","0","direct_first","1","er05im20","0","18","1","1","1","2","null","","","<img src = 'targets/29.png' width = '100%;'>","null","","","","","","","","","",""
"","html-keyboard-response","182","673736","0.0-10.0-3.10","46od33hjwb","many_one","0","direct_first","1","er05im20","0","18","1","1","1","2","957","","","<img src = 'targets/mask.png' width = '100%;'>","68","pos","CS","CS","3","category3/CS9.png","","targets/29.png","indirect","0","10"
"","html-keyboard-response","183","675257","0.0-10.0-0.11","46od33hjwb","many_one","0","direct_first","1","er05im20","0","18","1","1","1","2","null","","","<div style=""font-size:60px;"">+</div>","null","","","","","","","","","",""
"","html-keyboard-response","184","675358","0.0-10.0-1.11","46od33hjwb","many_one","0","direct_first","1","er05im20","0","18","1","1","1","2","null","","","<img src = 'category1/CS5.png' width = '100%;'>","null","","","","","","","","","",""
"","html-keyboard-response","185","675638","0.0-10.0-2.11","46od33hjwb","many_one","0","direct_first","1","er05im20","0","18","1","1","1","2","null","","","<img src = 'targets/19.png' width = '100%;'>","null","","","","","","","","","",""
"","html-keyboard-response","186","676648","0.0-10.0-3.11","46od33hjwb","many_one","0","direct_first","1","er05im20","0","18","1","1","1","2","1009","","","<img src = 'targets/mask.png' width = '100%;'>","75","pos","CS","CS","1","category1/CS5.png","","targets/19.png","indirect","1","11"
"","html-keyboard-response","187","678177","0.0-10.0-0.12","46od33hjwb","many_one","0","direct_first","1","er05im20","0","18","1","1","1","2","null","","","<div style=""font-size:60px;"">+</div>","null","","","","","","","","","",""
"","html-keyboard-response","188","678278","0.0-10.0-1.12","46od33hjwb","many_one","0","direct_first","1","er05im20","0","18","1","1","1","2","null","","","<img src = 'category1/CS8.png' width = '100%;'>","null","","","","","","","","","",""
"","html-keyboard-response","189","678557","0.0-10.0-2.12","46od33hjwb","many_one","0","direct_first","1","er05im20","0","18","1","1","1","2","null","","","<img src = 'targets/18.png' width = '100%;'>","null","","","","","","","","","",""
"","html-keyboard-response","190","679239","0.0-10.0-3.12","46od33hjwb","many_one","0","direct_first","1","er05im20","0","18","1","1","1","2","681","","","<img src = 'targets/mask.png' width = '100%;'>","68","pos","CS","CS","1","category1/CS8.png","","targets/18.png","indirect","0","12"
"","html-keyboard-response","191","680758","0.0-10.0-0.13","46od33hjwb","many_one","0","direct_first","1","er05im20","0","18","1","1","1","2","null","","","<div style=""font-size:60px;"">+</div>","null","","","","","","","","","",""
"","html-keyboard-response","192","680858","0.0-10.0-1.13","46od33hjwb","many_one","0","direct_first","1","er05im20","0","18","1","1","1","2","null","","","<img src = 'category4/CS10.png' width = '100%;'>","null","","","","","","","","","",""
"","html-keyboard-response","193","681138","0.0-10.0-2.13","46od33hjwb","many_one","0","direct_first","1","er05im20","0","18","1","1","1","2","null","","","<img src = 'targets/44.png' width = '100%;'>","null","","","","","","","","","",""
"","html-keyboard-response","194","682239","0.0-10.0-3.13","46od33hjwb","many_one","0","direct_first","1","er05im20","0","18","1","1","1","2","1100","","","<img src = 'targets/mask.png' width = '100%;'>","68","neg","CS","CS","4","category4/CS10.png","","targets/44.png","indirect","0","13"
"","html-keyboard-response","195","683768","0.0-10.0-0.14","46od33hjwb","many_one","0","direct_first","1","er05im20","0","18","1","1","1","2","null","","","<div style=""font-size:60px;"">+</div>","null","","","","","","","","","",""
"","html-keyboard-response","196","683867","0.0-10.0-1.14","46od33hjwb","many_one","0","direct_first","1","er05im20","0","18","1","1","1","2","null","","","<img src = 'category1/CS7.png' width = '100%;'>","null","","","","","","","","","",""
"","html-keyboard-response","197","684148","0.0-10.0-2.14","46od33hjwb","many_one","0","direct_first","1","er05im20","0","18","1","1","1","2","null","","","<img src = 'targets/41.png' width = '100%;'>","null","","","","","","","","","",""
"","html-keyboard-response","198","684648","0.0-10.0-3.14","46od33hjwb","many_one","0","direct_first","1","er05im20","0","18","1","1","1","2","499","","","<img src = 'targets/mask.png' width = '100%;'>","68","pos","CS","CS","1","category1/CS7.png","","targets/41.png","indirect","0","14"
"","html-keyboard-response","199","686187","0.0-10.0-0.15","46od33hjwb","many_one","0","direct_first","1","er05im20","0","18","1","1","1","2","null","","","<div style=""font-size:60px;"">+</div>","null","","","","","","","","","",""
"","html-keyboard-response","200","686287","0.0-10.0-1.15","46od33hjwb","many_one","0","direct_first","1","er05im20","0","18","1","1","1","2","null","","","<img src = 'category1/CS10.png' width = '100%;'>","null","","","","","","","","","",""
"","html-keyboard-response","201","686567","0.0-10.0-2.15","46od33hjwb","many_one","0","direct_first","1","er05im20","0","18","1","1","1","2","null","","","<img src = 'targets/31.png' width = '100%;'>","null","","","","","","","","","",""
"","html-keyboard-response","202","687815","0.0-10.0-3.15","46od33hjwb","many_one","0","direct_first","1","er05im20","0","18","1","1","1","2","1247","","","<img src = 'targets/mask.png' width = '100%;'>","75","pos","CS","CS","1","category1/CS10.png","","targets/31.png","indirect","1","15"
"","html-keyboard-response","203","689347","0.0-10.0-0.16","46od33hjwb","many_one","0","direct_first","1","er05im20","0","18","1","1","1","2","null","","","<div style=""font-size:60px;"">+</div>","null","","","","","","","","","",""
"","html-keyboard-response","204","689447","0.0-10.0-1.16","46od33hjwb","many_one","0","direct_first","1","er05im20","0","18","1","1","1","2","null","","","<img src = 'category2/CS1.png' width = '100%;'>","null","","","","","","","","","",""
"","html-keyboard-response","205","689727","0.0-10.0-2.16","46od33hjwb","many_one","0","direct_first","1","er05im20","0","18","1","1","1","2","null","","","<img src = 'targets/45.png' width = '100%;'>","null","","","","","","","","","",""
"","html-keyboard-response","206","690431","0.0-10.0-3.16","46od33hjwb","many_one","0","direct_first","1","er05im20","0","18","1","1","1","2","703","","","<img src = 'targets/mask.png' width = '100%;'>","75","neg","CS","CS","2","category2/CS1.png","","targets/45.png","indirect","1","16"
"","html-keyboard-response","207","691967","0.0-10.0-0.17","46od33hjwb","many_one","0","direct_first","1","er05im20","0","18","1","1","1","2","null","","","<div style=""font-size:60px;"">+</div>","null","","","","","","","","","",""
"","html-keyboard-response","208","692067","0.0-10.0-1.17","46od33hjwb","many_one","0","direct_first","1","er05im20","0","18","1","1","1","2","null","","","<img src = 'category2/CS10.png' width = '100%;'>","null","","","","","","","","","",""
"","html-keyboard-response","209","692347","0.0-10.0-2.17","46od33hjwb","many_one","0","direct_first","1","er05im20","0","18","1","1","1","2","null","","","<img src = 'targets/6.png' width = '100%;'>","null","","","","","","","","","",""
"","html-keyboard-response","210","693007","0.0-10.0-3.17","46od33hjwb","many_one","0","direct_first","1","er05im20","0","18","1","1","1","2","659","","","<img src = 'targets/mask.png' width = '100%;'>","68","neg","GS","GSold","2","category2/CS10.png","","targets/6.png","indirect","0","17"
"","html-keyboard-response","211","694547","0.0-10.0-0.18","46od33hjwb","many_one","0","direct_first","1","er05im20","0","18","1","1","1","2","null","","","<div style=""font-size:60px;"">+</div>","null","","","","","","","","","",""
"","html-keyboard-response","212","694647","0.0-10.0-1.18","46od33hjwb","many_one","0","direct_first","1","er05im20","0","18","1","1","1","2","null","","","<img src = 'category4/CS1.png' width = '100%;'>","null","","","","","","","","","",""
"","html-keyboard-response","213","694918","0.0-10.0-2.18","46od33hjwb","many_one","0","direct_first","1","er05im20","0","18","1","1","1","2","null","","","<img src = 'targets/15.png' width = '100%;'>","null","","","","","","","","","",""
"","html-keyboard-response","214","695544","0.0-10.0-3.18","46od33hjwb","many_one","0","direct_first","1","er05im20","0","18","1","1","1","2","624","","","<img src = 'targets/mask.png' width = '100%;'>","75","neg","CS","CS","4","category4/CS1.png","","targets/15.png","indirect","1","18"
"","html-keyboard-response","215","697067","0.0-10.0-0.19","46od33hjwb","many_one","0","direct_first","1","er05im20","0","18","1","1","1","2","null","","","<div style=""font-size:60px;"">+</div>","null","","","","","","","","","",""
"","html-keyboard-response","216","697167","0.0-10.0-1.19","46od33hjwb","many_one","0","direct_first","1","er05im20","0","18","1","1","1","2","null","","","<img src = 'category2/CS2.png' width = '100%;'>","null","","","","","","","","","",""
"","html-keyboard-response","217","697447","0.0-10.0-2.19","46od33hjwb","many_one","0","direct_first","1","er05im20","0","18","1","1","1","2","null","","","<img src = 'targets/8.png' width = '100%;'>","null","","","","","","","","","",""
"","html-keyboard-response","218","698439","0.0-10.0-3.19","46od33hjwb","many_one","0","direct_first","1","er05im20","0","18","1","1","1","2","991","","","<img src = 'targets/mask.png' width = '100%;'>","68","neg","CS","CS","2","category2/CS2.png","","targets/8.png","indirect","0","19"
"","html-keyboard-response","219","699947","0.0-10.0-0.20","46od33hjwb","many_one","0","direct_first","1","er05im20","0","18","1","1","1","2","null","","","<div style=""font-size:60px;"">+</div>","null","","","","","","","","","",""
"","html-keyboard-response","220","700048","0.0-10.0-1.20","46od33hjwb","many_one","0","direct_first","1","er05im20","0","18","1","1","1","2","null","","","<img src = 'category2/CS3.png' width = '100%;'>","null","","","","","","","","","",""
"","html-keyboard-response","221","700328","0.0-10.0-2.20","46od33hjwb","many_one","0","direct_first","1","er05im20","0","18","1","1","1","2","null","","","<img src = 'targets/7.png' width = '100%;'>","null","","","","","","","","","",""
"","html-keyboard-response","222","700856","0.0-10.0-3.20","46od33hjwb","many_one","0","direct_first","1","er05im20","0","18","1","1","1","2","527","","","<img src = 'targets/mask.png' width = '100%;'>","68","neg","CS","CS","2","category2/CS3.png","","targets/7.png","indirect","0","20"
"","html-keyboard-response","223","702387","0.0-10.0-0.21","46od33hjwb","many_one","0","direct_first","1","er05im20","0","18","1","1","1","2","null","","","<div style=""font-size:60px;"">+</div>","null","","","","","","","","","",""
"","html-keyboard-response","224","702487","0.0-10.0-1.21","46od33hjwb","many_one","0","direct_first","1","er05im20","0","18","1","1","1","2","null","","","<img src = 'category3/CS10.png' width = '100%;'>","null","","","","","","","","","",""
"","html-keyboard-response","225","702767","0.0-10.0-2.21","46od33hjwb","many_one","0","direct_first","1","er05im20","0","18","1","1","1","2","null","","","<img src = 'targets/3.png' width = '100%;'>","null","","","","","","","","","",""
"","html-keyboard-response","226","704319","0.0-10.0-3.21","46od33hjwb","many_one","0","direct_first","1","er05im20","0","18","1","1","1","2","1551","","","<img src = 'targets/mask.png' width = '100%;'>","68","pos","CS","CS","3","category3/CS10.png","","targets/3.png","indirect","0","21"
"","html-keyboard-response","227","705827","0.0-10.0-0.22","46od33hjwb","many_one","0","direct_first","1","er05im20","0","18","1","1","1","2","null","","","<div style=""font-size:60px;"">+</div>","null","","","","","","","","","",""
"","html-keyboard-response","228","705927","0.0-10.0-1.22","46od33hjwb","many_one","0","direct_first","1","er05im20","0","18","1","1","1","2","null","","","<img src = 'category3/CS3.png' width = '100%;'>","null","","","","","","","","","",""
"","html-keyboard-response","229","706207","0.0-10.0-2.22","46od33hjwb","many_one","0","direct_first","1","er05im20","0","18","1","1","1","2","null","","","<img src = 'targets/10.png' width = '100%;'>","null","","","","","","","","","",""
"","html-keyboard-response","230","708295","0.0-10.0-3.22","46od33hjwb","many_one","0","direct_first","1","er05im20","0","18","1","1","1","2","2087","","","<img src = 'targets/mask.png' width = '100%;'>","75","pos","GS","GSold","3","category3/CS3.png","","targets/10.png","indirect","1","22"
"","html-keyboard-response","231","709827","0.0-10.0-0.23","46od33hjwb","many_one","0","direct_first","1","er05im20","0","18","1","1","1","2","null","","","<div style=""font-size:60px;"">+</div>","null","","","","","","","","","",""
"","html-keyboard-response","232","709927","0.0-10.0-1.23","46od33hjwb","many_one","0","direct_first","1","er05im20","0","18","1","1","1","2","null","","","<img src = 'category3/CS4.png' width = '100%;'>","null","","","","","","","","","",""
"","html-keyboard-response","233","710207","0.0-10.0-2.23","46od33hjwb","many_one","0","direct_first","1","er05im20","0","18","1","1","1","2","null","","","<img src = 'targets/11.png' width = '100%;'>","null","","","","","","","","","",""
"","html-keyboard-response","234","710712","0.0-10.0-3.23","46od33hjwb","many_one","0","direct_first","1","er05im20","0","18","1","1","1","2","504","","","<img src = 'targets/mask.png' width = '100%;'>","68","pos","CS","CS","3","category3/CS4.png","","targets/11.png","indirect","0","23"
"","survey-html-form","235","714359","0.0-11.0","46od33hjwb","many_one","0","direct_first","1","er05im20","0","18","1","1","1","2","3131","","{}","","","","","","","","","","","",""
"","html-keyboard-response","236","717387","0.0-12.0-0.0","46od33hjwb","many_one","0","direct_first","1","er05im20","0","18","1","1","1","2","null","","","<div style=""font-size:60px;"">+</div>","null","","","","","","","","","",""
"","html-keyboard-response","237","717487","0.0-12.0-1.0","46od33hjwb","many_one","0","direct_first","1","er05im20","0","18","1","1","1","2","null","","","<img src = 'category4/CS8.png' width = '100%;'>","null","","","","","","","","","",""
"","html-keyboard-response","238","717767","0.0-12.0-2.0","46od33hjwb","many_one","0","direct_first","1","er05im20","0","18","1","1","1","2","null","","","<img src = 'targets/23.png' width = '100%;'>","null","","","","","","","","","",""
"","html-keyboard-response","239","718423","0.0-12.0-3.0","46od33hjwb","many_one","0","direct_first","1","er05im20","0","18","1","1","1","2","655","","","<img src = 'targets/mask.png' width = '100%;'>","75","neg","GS","GSold","4","category4/CS8.png","","targets/23.png","indirect","1","24"
"","html-keyboard-response","240","719947","0.0-12.0-0.1","46od33hjwb","many_one","0","direct_first","1","er05im20","0","18","1","1","1","2","null","","","<div style=""font-size:60px;"">+</div>","null","","","","","","","","","",""
"","html-keyboard-response","241","720047","0.0-12.0-1.1","46od33hjwb","many_one","0","direct_first","1","er05im20","0","18","1","1","1","2","null","","","<img src = 'category1/CS1.png' width = '100%;'>","null","","","","","","","","","",""
"","html-keyboard-response","242","720327","0.0-12.0-2.1","46od33hjwb","many_one","0","direct_first","1","er05im20","0","18","1","1","1","2","null","","","<img src = 'targets/24.png' width = '100%;'>","null","","","","","","","","","",""
"","html-keyboard-response","243","720983","0.0-12.0-3.1","46od33hjwb","many_one","0","direct_first","1","er05im20","0","18","1","1","1","2","654","","","<img src = 'targets/mask.png' width = '100%;'>","68","pos","GS","GSold","1","category1/CS1.png","","targets/24.png","indirect","0","25"
"","html-keyboard-response","244","722507","0.0-12.0-0.2","46od33hjwb","many_one","0","direct_first","1","er05im20","0","18","1","1","1","2","null","","","<div style=""font-size:60px;"">+</div>","null","","","","","","","","","",""
"","html-keyboard-response","245","722607","0.0-12.0-1.2","46od33hjwb","many_one","0","direct_first","1","er05im20","0","18","1","1","1","2","null","","","<img src = 'category2/GS3.png' width = '100%;'>","null","","","","","","","","","",""
"","html-keyboard-response","246","722887","0.0-12.0-2.2","46od33hjwb","many_one","0","direct_first","1","er05im20","0","18","1","1","1","2","null","","","<img src = 'targets/32.png' width = '100%;'>","null","","","","","","","","","",""
"","html-keyboard-response","247","723870","0.0-12.0-3.2","46od33hjwb","many_one","0","direct_first","1","er05im20","0","18","1","1","1","2","982","","","<img src = 'targets/mask.png' width = '100%;'>","68","neg","GS","GSnew","2","category2/GS3.png","","targets/32.png","indirect","0","26"
"","html-keyboard-response","248","725406","0.0-12.0-0.3","46od33hjwb","many_one","0","direct_first","1","er05im20","0","18","1","1","1","2","null","","","<div style=""font-size:60px;"">+</div>","null","","","","","","","","","",""
"","html-keyboard-response","249","725507","0.0-12.0-1.3","46od33hjwb","many_one","0","direct_first","1","er05im20","0","18","1","1","1","2","null","","","<img src = 'category2/men.png' width = '100%;'>","null","","","","","","","","","",""
"","html-keyboard-response","250","725787","0.0-12.0-2.3","46od33hjwb","many_one","0","direct_first","1","er05im20","0","18","1","1","1","2","null","","","<img src = 'targets/46.png' width = '100%;'>","null","","","","","","","","","",""
"","html-keyboard-response","251","726390","0.0-12.0-3.3","46od33hjwb","many_one","0","direct_first","1","er05im20","0","18","1","1","1","2","603","","","<img src = 'targets/mask.png' width = '100%;'>","75","neg","GS","abstract","2","category2/men.png","","targets/46.png","indirect","1","27"
"","html-keyboard-response","252","727917","0.0-12.0-0.4","46od33hjwb","many_one","0","direct_first","1","er05im20","0","18","1","1","1","2","null","","","<div style=""font-size:60px;"">+</div>","null","","","","","","","","","",""
"","html-keyboard-response","253","728016","0.0-12.0-1.4","46od33hjwb","many_one","0","direct_first","1","er05im20","0","18","1","1","1","2","null","","","<img src = 'category1/GS1.png' width = '100%;'>","null","","","","","","","","","",""
"","html-keyboard-response","254","728297","0.0-12.0-2.4","46od33hjwb","many_one","0","direct_first","1","er05im20","0","18","1","1","1","2","null","","","<img src = 'targets/27.png' width = '100%;'>","null","","","","","","","","","",""
"","html-keyboard-response","255","728935","0.0-12.0-3.4","46od33hjwb","many_one","0","direct_first","1","er05im20","0","18","1","1","1","2","636","","","<img src = 'targets/mask.png' width = '100%;'>","68","pos","GS","GSnew","1","category1/GS1.png","","targets/27.png","indirect","0","28"
"","html-keyboard-response","256","730457","0.0-12.0-0.5","46od33hjwb","many_one","0","direct_first","1","er05im20","0","18","1","1","1","2","null","","","<div style=""font-size:60px;"">+</div>","null","","","","","","","","","",""
"","html-keyboard-response","257","730557","0.0-12.0-1.5","46od33hjwb","many_one","0","direct_first","1","er05im20","0","18","1","1","1","2","null","","","<img src = 'category2/GS1.png' width = '100%;'>","null","","","","","","","","","",""
"","html-keyboard-response","258","730836","0.0-12.0-2.5","46od33hjwb","many_one","0","direct_first","1","er05im20","0","18","1","1","1","2","null","","","<img src = 'targets/22.png' width = '100%;'>","null","","","","","","","","","",""
"","html-keyboard-response","259","731215","0.0-12.0-3.5","46od33hjwb","many_one","0","direct_first","1","er05im20","0","18","1","1","1","2","377","","","<img src = 'targets/mask.png' width = '100%;'>","75","neg","GS","GSnew","2","category2/GS1.png","","targets/22.png","indirect","1","29"
"","html-keyboard-response","260","732736","0.0-12.0-0.6","46od33hjwb","many_one","0","direct_first","1","er05im20","0","18","1","1","1","2","null","","","<div style=""font-size:60px;"">+</div>","null","","","","","","","","","",""
"","html-keyboard-response","261","732837","0.0-12.0-1.6","46od33hjwb","many_one","0","direct_first","1","er05im20","0","18","1","1","1","2","null","","","<img src = 'category4/CS7.png' width = '100%;'>","null","","","","","","","","","",""
"","html-keyboard-response","262","733116","0.0-12.0-2.6","46od33hjwb","many_one","0","direct_first","1","er05im20","0","18","1","1","1","2","null","","","<img src = 'targets/13.png' width = '100%;'>","null","","","","","","","","","",""
"","html-keyboard-response","263","733647","0.0-12.0-3.6","46od33hjwb","many_one","0","direct_first","1","er05im20","0","18","1","1","1","2","529","","","<img src = 'targets/mask.png' width = '100%;'>","75","neg","GS","GSold","4","category4/CS7.png","","targets/13.png","indirect","1","30"
"","html-keyboard-response","264","735176","0.0-12.0-0.7","46od33hjwb","many_one","0","direct_first","1","er05im20","0","18","1","1","1","2","null","","","<div style=""font-size:60px;"">+</div>","null","","","","","","","","","",""
"","html-keyboard-response","265","735277","0.0-12.0-1.7","46od33hjwb","many_one","0","direct_first","1","er05im20","0","18","1","1","1","2","null","","","<img src = 'category4/GS2.png' width = '100%;'>","null","","","","","","","","","",""
"","html-keyboard-response","266","735556","0.0-12.0-2.7","46od33hjwb","many_one","0","direct_first","1","er05im20","0","18","1","1","1","2","null","","","<img src = 'targets/35.png' width = '100%;'>","null","","","","","","","","","",""
"","html-keyboard-response","267","736415","0.0-12.0-3.7","46od33hjwb","many_one","0","direct_first","1","er05im20","0","18","1","1","1","2","857","","","<img src = 'targets/mask.png' width = '100%;'>","75","neg","GS","GSnew","4","category4/GS2.png","","targets/35.png","indirect","1","31"
"","html-keyboard-response","268","737926","0.0-12.0-0.8","46od33hjwb","many_one","0","direct_first","1","er05im20","0","18","1","1","1","2","null","","","<div style=""font-size:60px;"">+</div>","null","","","","","","","","","",""
"","html-keyboard-response","269","738027","0.0-12.0-1.8","46od33hjwb","many_one","0","direct_first","1","er05im20","0","18","1","1","1","2","null","","","<img src = 'category3/wang.png' width = '100%;'>","null","","","","","","","","","",""
"","html-keyboard-response","270","738286","0.0-12.0-2.8","46od33hjwb","many_one","0","direct_first","1","er05im20","0","18","1","1","1","2","null","","","<img src = 'targets/34.png' width = '100%;'>","null","","","","","","","","","",""
"","html-keyboard-response","271","738838","0.0-12.0-3.8","46od33hjwb","many_one","0","direct_first","1","er05im20","0","18","1","1","1","2","551","","","<img src = 'targets/mask.png' width = '100%;'>","75","pos","GS","abstract","3","category3/wang.png","","targets/34.png","indirect","1","32"
"","html-keyboard-response","272","740346","0.0-12.0-0.9","46od33hjwb","many_one","0","direct_first","1","er05im20","0","18","1","1","1","2","null","","","<div style=""font-size:60px;"">+</div>","null","","","","","","","","","",""
"","html-keyboard-response","273","740447","0.0-12.0-1.9","46od33hjwb","many_one","0","direct_first","1","er05im20","0","18","1","1","1","2","null","","","<img src = 'category1/ma.png' width = '100%;'>","null","","","","","","","","","",""
"","html-keyboard-response","274","740727","0.0-12.0-2.9","46od33hjwb","many_one","0","direct_first","1","er05im20","0","18","1","1","1","2","null","","","<img src = 'targets/39.png' width = '100%;'>","null","","","","","","","","","",""
"","html-keyboard-response","275","740951","0.0-12.0-3.9","46od33hjwb","many_one","0","direct_first","1","er05im20","0","18","1","1","1","2","223","","","<img src = 'targets/mask.png' width = '100%;'>","68","pos","GS","abstract","1","category1/ma.png","","targets/39.png","indirect","0","33"
"","html-keyboard-response","276","742467","0.0-12.0-0.10","46od33hjwb","many_one","0","direct_first","1","er05im20","0","18","1","1","1","2","null","","","<div style=""font-size:60px;"">+</div>","null","","","","","","","","","",""
"","html-keyboard-response","277","742567","0.0-12.0-1.10","46od33hjwb","many_one","0","direct_first","1","er05im20","0","18","1","1","1","2","null","","","<img src = 'category4/lin.png' width = '100%;'>","null","","","","","","","","","",""
"","html-keyboard-response","278","742847","0.0-12.0-2.10","46od33hjwb","many_one","0","direct_first","1","er05im20","0","18","1","1","1","2","null","","","<img src = 'targets/12.png' width = '100%;'>","null","","","","","","","","","",""
"","html-keyboard-response","279","743030","0.0-12.0-3.10","46od33hjwb","many_one","0","direct_first","1","er05im20","0","18","1","1","1","2","183","","","<img src = 'targets/mask.png' width = '100%;'>","68","neg","GS","abstract","4","category4/lin.png","","targets/12.png","indirect","0","34"
"","html-keyboard-response","280","744566","0.0-12.0-0.11","46od33hjwb","many_one","0","direct_first","1","er05im20","0","18","1","1","1","2","null","","","<div style=""font-size:60px;"">+</div>","null","","","","","","","","","",""
"","html-keyboard-response","281","744667","0.0-12.0-1.11","46od33hjwb","many_one","0","direct_first","1","er05im20","0","18","1","1","1","2","null","","","<img src = 'category3/CS5.png' width = '100%;'>","null","","","","","","","","","",""
"","html-keyboard-response","282","744947","0.0-12.0-2.11","46od33hjwb","many_one","0","direct_first","1","er05im20","0","18","1","1","1","2","null","","","<img src = 'targets/40.png' width = '100%;'>","null","","","","","","","","","",""
"","html-keyboard-response","283","745111","0.0-12.0-3.11","46od33hjwb","many_one","0","direct_first","1","er05im20","0","18","1","1","1","2","163","","","<img src = 'targets/mask.png' width = '100%;'>","68","pos","GS","GSold","3","category3/CS5.png","","targets/40.png","indirect","0","35"
"","html-keyboard-response","284","746626","0.0-12.0-0.12","46od33hjwb","many_one","0","direct_first","1","er05im20","0","18","1","1","1","2","null","","","<div style=""font-size:60px;"">+</div>","null","","","","","","","","","",""
"","html-keyboard-response","285","746726","0.0-12.0-1.12","46od33hjwb","many_one","0","direct_first","1","er05im20","0","18","1","1","1","2","null","","","<img src = 'category1/CS3.png' width = '100%;'>","null","","","","","","","","","",""
"","html-keyboard-response","286","746996","0.0-12.0-2.12","46od33hjwb","many_one","0","direct_first","1","er05im20","0","18","1","1","1","2","null","","","<img src = 'targets/26.png' width = '100%;'>","null","","","","","","","","","",""
"","html-keyboard-response","287","747198","0.0-12.0-3.12","46od33hjwb","many_one","0","direct_first","1","er05im20","0","18","1","1","1","2","200","","","<img src = 'targets/mask.png' width = '100%;'>","75","pos","GS","GSold","1","category1/CS3.png","","targets/26.png","indirect","1","36"
"","html-keyboard-response","288","748717","0.0-12.0-0.13","46od33hjwb","many_one","0","direct_first","1","er05im20","0","18","1","1","1","2","null","","","<div style=""font-size:60px;"">+</div>","null","","","","","","","","","",""
"","html-keyboard-response","289","748817","0.0-12.0-1.13","46od33hjwb","many_one","0","direct_first","1","er05im20","0","18","1","1","1","2","null","","","<img src = 'category3/GS2.png' width = '100%;'>","null","","","","","","","","","",""
"","html-keyboard-response","290","749097","0.0-12.0-2.13","46od33hjwb","many_one","0","direct_first","1","er05im20","0","18","1","1","1","2","null","","","<img src = 'targets/42.png' width = '100%;'>","null","","","","","","","","","",""
"","html-keyboard-response","291","749262","0.0-12.0-3.13","46od33hjwb","many_one","0","direct_first","1","er05im20","0","18","1","1","1","2","165","","","<img src = 'targets/mask.png' width = '100%;'>","68","pos","GS","GSnew","3","category3/GS2.png","","targets/42.png","indirect","0","37"
"","html-keyboard-response","292","750786","0.0-12.0-0.14","46od33hjwb","many_one","0","direct_first","1","er05im20","0","18","1","1","1","2","null","","","<div style=""font-size:60px;"">+</div>","null","","","","","","","","","",""
"","html-keyboard-response","293","750886","0.0-12.0-1.14","46od33hjwb","many_one","0","direct_first","1","er05im20","0","18","1","1","1","2","null","","","<img src = 'category3/GS3.png' width = '100%;'>","null","","","","","","","","","",""
"","html-keyboard-response","294","751167","0.0-12.0-2.14","46od33hjwb","many_one","0","direct_first","1","er05im20","0","18","1","1","1","2","null","","","<img src = 'targets/33.png' width = '100%;'>","null","","","","","","","","","",""
"","html-keyboard-response","295","751383","0.0-12.0-3.14","46od33hjwb","many_one","0","direct_first","1","er05im20","0","18","1","1","1","2","215","","","<img src = 'targets/mask.png' width = '100%;'>","68","pos","GS","GSnew","3","category3/GS3.png","","targets/33.png","indirect","0","38"
"","html-keyboard-response","296","752897","0.0-12.0-0.15","46od33hjwb","many_one","0","direct_first","1","er05im20","0","18","1","1","1","2","null","","","<div style=""font-size:60px;"">+</div>","null","","","","","","","","","",""
"","html-keyboard-response","297","752997","0.0-12.0-1.15","46od33hjwb","many_one","0","direct_first","1","er05im20","0","18","1","1","1","2","null","","","<img src = 'category1/CS2.png' width = '100%;'>","null","","","","","","","","","",""
"","html-keyboard-response","298","753276","0.0-12.0-2.15","46od33hjwb","many_one","0","direct_first","1","er05im20","0","18","1","1","1","2","null","","","<img src = 'targets/21.png' width = '100%;'>","null","","","","","","","","","",""
"","html-keyboard-response","299","753350","0.0-12.0-3.15","46od33hjwb","many_one","0","direct_first","1","er05im20","0","18","1","1","1","2","73","","","<img src = 'targets/mask.png' width = '100%;'>","68","pos","GS","GSold","1","category1/CS2.png","","targets/21.png","indirect","0","39"
"","html-keyboard-response","300","754856","0.0-12.0-0.16","46od33hjwb","many_one","0","direct_first","1","er05im20","0","18","1","1","1","2","null","","","<div style=""font-size:60px;"">+</div>","null","","","","","","","","","",""
"","html-keyboard-response","301","754956","0.0-12.0-1.16","46od33hjwb","many_one","0","direct_first","1","er05im20","0","18","1","1","1","2","null","","","<img src = 'category1/GS3.png' width = '100%;'>","null","","","","","","","","","",""
"","html-keyboard-response","302","755237","0.0-12.0-2.16","46od33hjwb","many_one","0","direct_first","1","er05im20","0","18","1","1","1","2","null","","","<img src = 'targets/2.png' width = '100%;'>","null","","","","","","","","","",""
"","html-keyboard-response","303","755543","0.0-12.0-3.16","46od33hjwb","many_one","0","direct_first","1","er05im20","0","18","1","1","1","2","305","","","<img src = 'targets/mask.png' width = '100%;'>","68","pos","GS","GSnew","1","category1/GS3.png","","targets/2.png","indirect","0","40"
"","html-keyboard-response","304","757076","0.0-12.0-0.17","46od33hjwb","many_one","0","direct_first","1","er05im20","0","18","1","1","1","2","null","","","<div style=""font-size:60px;"">+</div>","null","","","","","","","","","",""
"","html-keyboard-response","305","757177","0.0-12.0-1.17","46od33hjwb","many_one","0","direct_first","1","er05im20","0","18","1","1","1","2","null","","","<img src = 'category4/GS1.png' width = '100%;'>","null","","","","","","","","","",""
"","html-keyboard-response","306","757436","0.0-12.0-2.17","46od33hjwb","many_one","0","direct_first","1","er05im20","0","18","1","1","1","2","null","","","<img src = 'targets/17.png' width = '100%;'>","null","","","","","","","","","",""
"","html-keyboard-response","307","757742","0.0-12.0-3.17","46od33hjwb","many_one","0","direct_first","1","er05im20","0","18","1","1","1","2","305","","","<img src = 'targets/mask.png' width = '100%;'>","75","neg","GS","GSnew","4","category4/GS1.png","","targets/17.png","indirect","1","41"
"","html-keyboard-response","308","759256","0.0-12.0-0.18","46od33hjwb","many_one","0","direct_first","1","er05im20","0","18","1","1","1","2","null","","","<div style=""font-size:60px;"">+</div>","null","","","","","","","","","",""
"","html-keyboard-response","309","759356","0.0-12.0-1.18","46od33hjwb","many_one","0","direct_first","1","er05im20","0","18","1","1","1","2","null","","","<img src = 'category2/GS2.png' width = '100%;'>","null","","","","","","","","","",""
"","html-keyboard-response","310","759637","0.0-12.0-2.18","46od33hjwb","many_one","0","direct_first","1","er05im20","0","18","1","1","1","2","null","","","<img src = 'targets/36.png' width = '100%;'>","null","","","","","","","","","",""
"","html-keyboard-response","311","759822","0.0-12.0-3.18","46od33hjwb","many_one","0","direct_first","1","er05im20","0","18","1","1","1","2","185","","","<img src = 'targets/mask.png' width = '100%;'>","68","neg","GS","GSnew","2","category2/GS2.png","","targets/36.png","indirect","0","42"
"","html-keyboard-response","312","761356","0.0-12.0-0.19","46od33hjwb","many_one","0","direct_first","1","er05im20","0","18","1","1","1","2","null","","","<div style=""font-size:60px;"">+</div>","null","","","","","","","","","",""
"","html-keyboard-response","313","761456","0.0-12.0-1.19","46od33hjwb","many_one","0","direct_first","1","er05im20","0","18","1","1","1","2","null","","","<img src = 'category4/GS3.png' width = '100%;'>","null","","","","","","","","","",""
"","html-keyboard-response","314","761737","0.0-12.0-2.19","46od33hjwb","many_one","0","direct_first","1","er05im20","0","18","1","1","1","2","null","","","<img src = 'targets/28.png' width = '100%;'>","null","","","","","","","","","",""
"","html-keyboard-response","315","762070","0.0-12.0-3.19","46od33hjwb","many_one","0","direct_first","1","er05im20","0","18","1","1","1","2","333","","","<img src = 'targets/mask.png' width = '100%;'>","68","neg","GS","GSnew","4","category4/GS3.png","","targets/28.png","indirect","0","43"
"","html-keyboard-response","316","763597","0.0-12.0-0.20","46od33hjwb","many_one","0","direct_first","1","er05im20","0","18","1","1","1","2","null","","","<div style=""font-size:60px;"">+</div>","null","","","","","","","","","",""
"","html-keyboard-response","317","763696","0.0-12.0-1.20","46od33hjwb","many_one","0","direct_first","1","er05im20","0","18","1","1","1","2","null","","","<img src = 'category3/CS2.png' width = '100%;'>","null","","","","","","","","","",""
"","html-keyboard-response","318","763976","0.0-12.0-2.20","46od33hjwb","many_one","0","direct_first","1","er05im20","0","18","1","1","1","2","null","","","<img src = 'targets/14.png' width = '100%;'>","null","","","","","","","","","",""
"","html-keyboard-response","319","764287","0.0-12.0-3.20","46od33hjwb","many_one","0","direct_first","1","er05im20","0","18","1","1","1","2","309","","","<img src = 'targets/mask.png' width = '100%;'>","68","pos","GS","GSold","3","category3/CS2.png","","targets/14.png","indirect","0","44"
"","html-keyboard-response","320","765812","0.0-12.0-0.21","46od33hjwb","many_one","0","direct_first","1","er05im20","0","18","1","1","1","2","null","","","<div style=""font-size:60px;"">+</div>","null","","","","","","","","","",""
"","html-keyboard-response","321","765906","0.0-12.0-1.21","46od33hjwb","many_one","0","direct_first","1","er05im20","0","18","1","1","1","2","null","","","<img src = 'category3/GS1.png' width = '100%;'>","null","","","","","","","","","",""
"","html-keyboard-response","322","766176","0.0-12.0-2.21","46od33hjwb","many_one","0","direct_first","1","er05im20","0","18","1","1","1","2","null","","","<img src = 'targets/16.png' width = '100%;'>","null","","","","","","","","","",""
"","html-keyboard-response","323","766318","0.0-12.0-3.21","46od33hjwb","many_one","0","direct_first","1","er05im20","0","18","1","1","1","2","141","","","<img src = 'targets/mask.png' width = '100%;'>","68","pos","GS","GSnew","3","category3/GS1.png","","targets/16.png","indirect","0","45"
"","html-keyboard-response","324","767836","0.0-12.0-0.22","46od33hjwb","many_one","0","direct_first","1","er05im20","0","18","1","1","1","2","null","","","<div style=""font-size:60px;"">+</div>","null","","","","","","","","","",""
"","html-keyboard-response","325","767936","0.0-12.0-1.22","46od33hjwb","many_one","0","direct_first","1","er05im20","0","18","1","1","1","2","null","","","<img src = 'category4/CS9.png' width = '100%;'>","null","","","","","","","","","",""
"","html-keyboard-response","326","768216","0.0-12.0-2.22","46od33hjwb","many_one","0","direct_first","1","er05im20","0","18","1","1","1","2","null","","","<img src = 'targets/37.png' width = '100%;'>","null","","","","","","","","","",""
"","html-keyboard-response","327","768550","0.0-12.0-3.22","46od33hjwb","many_one","0","direct_first","1","er05im20","0","18","1","1","1","2","332","","","<img src = 'targets/mask.png' width = '100%;'>","68","neg","GS","GSold","4","category4/CS9.png","","targets/37.png","indirect","0","46"
"","html-keyboard-response","328","770056","0.0-12.0-0.23","46od33hjwb","many_one","0","direct_first","1","er05im20","0","18","1","1","1","2","null","","","<div style=""font-size:60px;"">+</div>","null","","","","","","","","","",""
"","html-keyboard-response","329","770156","0.0-12.0-1.23","46od33hjwb","many_one","0","direct_first","1","er05im20","0","18","1","1","1","2","null","","","<img src = 'category1/GS2.png' width = '100%;'>","null","","","","","","","","","",""
"","html-keyboard-response","330","770436","0.0-12.0-2.23","46od33hjwb","many_one","0","direct_first","1","er05im20","0","18","1","1","1","2","null","","","<img src = 'targets/1.png' width = '100%;'>","null","","","","","","","","","",""
"","html-keyboard-response","331","770846","0.0-12.0-3.23","46od33hjwb","many_one","0","direct_first","1","er05im20","0","18","1","1","1","2","409","","","<img src = 'targets/mask.png' width = '100%;'>","68","pos","GS","GSnew","1","category1/GS2.png","","targets/1.png","indirect","0","47"
"","survey-html-form","332","779189","0.0-13.0","46od33hjwb","many_one","0","direct_first","1","er05im20","0","18","1","1","1","2","7833","","{}","","","","","","","","","","","",""
"","image-slider-response","333","783653","0.0-14.0-0.0","46od33hjwb","many_one","0","direct_first","1","er05im20","0","18","1","1","1","2","3454","","","","","pos","All","all","3","category3/wang_all.png","-58","","all","",""
"","image-slider-response","334","787021","0.0-14.0-0.1","46od33hjwb","many_one","0","direct_first","1","er05im20","0","18","1","1","1","2","3367","","","","","pos","All","all","1","category1/ma_all.png","-100","","all","",""
"","image-slider-response","335","789373","0.0-14.0-0.2","46od33hjwb","many_one","0","direct_first","1","er05im20","0","18","1","1","1","2","2350","","","","","neg","All","all","2","category2/men_all.png","-100","","all","",""
"","image-slider-response","336","792740","0.0-14.0-0.3","46od33hjwb","many_one","0","direct_first","1","er05im20","0","18","1","1","1","2","3366","","","","","neg","All","all","4","category4/lin_all.png","50","","all","",""
"","survey-text","337","796566","0.0-15.0","46od33hjwb","many_one","0","direct_first","1","er05im20","0","18","1","1","1","2","3823","","{""Q0"":""""}","","","","","","","","","","","",""
