"success","trial_type","trial_index","time_elapsed","internal_node_id","subject","condition","condition_code","measure","measure_code","codeword","gender","age","education","chinese","fach","handedness","comment","hinschauen","ablenkung","gewissenhaft","rt","url","responses","stimulus","key_press","val","type","type_specific","category","cs_selected","target","indirect","task","nr_pres","response"
"true","fullscreen","0","4836","0.0-0.0","uf2353fobs","many_one","0","indirect_first","0","Lollipop","0","18","1","1","3","1","","0","1","0","","","","","","","","","","","","","","",""
"","external-html","1","13328","0.0-1.0","uf2353fobs","many_one","0","indirect_first","0","Lollipop","0","18","1","1","3","1","","0","1","0","7509","text/information.html","","","","","","","","","","","","",""
"","external-html","2","17187","0.0-2.0","uf2353fobs","many_one","0","indirect_first","0","Lollipop","0","18","1","1","3","1","","0","1","0","3740","text/consent.html","","","","","","","","","","","","",""
"","survey-html-form","3","34130","0.0-3.0","uf2353fobs","many_one","0","indirect_first","0","Lollipop","0","18","1","1","3","1","","0","1","0","16940","","{""codeword_enter"":""Lollipop""}","","","","","","","","","","","",""
"","survey-html-form","4","51351","0.0-4.0","uf2353fobs","many_one","0","indirect_first","0","Lollipop","0","18","1","1","3","1","","0","1","0","17218","","{""age"":""18"",""education"":""1"",""subject"":""3"",""gender"":""0"",""handedness"":""1"",""chinese"":""1""}","","","","","","","","","","","",""
"","survey-html-form","5","53868","0.0-5.0","uf2353fobs","many_one","0","indirect_first","0","Lollipop","0","18","1","1","3","1","","0","1","0","2514","","{}","","","","","","","","","","","",""
"","html-keyboard-response","6","57877","0.0-6.0-0.0-0.0","uf2353fobs","many_one","0","indirect_first","0","Lollipop","0","18","1","1","3","1","","0","1","0","null","","","<div class = 'row'><div class = 'column'><img src = 'usneg/9280.bmp' width = '100%;'></div><div class = 'column'><img src = 'category3/CS1.png' width = '70%;'></div></div>","null","neg","CS","CS","3","category3/CS1.png","","","","",""
"","html-keyboard-response","7","60384","0.0-6.0-0.0-0.1","uf2353fobs","many_one","0","indirect_first","0","Lollipop","0","18","1","1","3","1","","0","1","0","null","","","<div class = 'row'><div class = 'column'><img src = 'uspos/2360.bmp' width = '100%;'></div><div class = 'column'><img src = 'category1/CS10.png' width = '70%;'></div></div>","null","pos","CS","CS","1","category1/CS10.png","","","","",""
"","html-keyboard-response","8","62889","0.0-6.0-0.0-0.2","uf2353fobs","many_one","0","indirect_first","0","Lollipop","0","18","1","1","3","1","","0","1","0","null","","","<div class = 'row'><div class = 'column'><img src = 'category3/CS5.png' width = '70%;'></div><div class = 'column'><img src = 'usneg/9342.bmp' width = '100%;'></div></div>","null","neg","CS","CS","3","category3/CS5.png","","","","",""
"","html-keyboard-response","9","65395","0.0-6.0-0.0-0.3","uf2353fobs","many_one","0","indirect_first","0","Lollipop","0","18","1","1","3","1","","0","1","0","null","","","<div class = 'row'><div class = 'column'><img src = 'uspos/2160.bmp' width = '100%;'></div><div class = 'column'><img src = 'category2/CS6.png' width = '70%;'></div></div>","null","pos","CS","CS","2","category2/CS6.png","","","","",""
"","html-keyboard-response","10","67900","0.0-6.0-0.0-0.4","uf2353fobs","many_one","0","indirect_first","0","Lollipop","0","18","1","1","3","1","","0","1","0","null","","","<div class = 'row'><div class = 'column'><img src = 'usneg/9181.bmp' width = '100%;'></div><div class = 'column'><img src = 'category4/CS8.png' width = '70%;'></div></div>","null","neg","CS","CS","4","category4/CS8.png","","","","",""
"","html-keyboard-response","11","70405","0.0-6.0-0.0-0.5","uf2353fobs","many_one","0","indirect_first","0","Lollipop","0","18","1","1","3","1","","0","1","0","null","","","<div class = 'row'><div class = 'column'><img src = 'usneg/9000.bmp' width = '100%;'></div><div class = 'column'><img src = 'category3/CS4.png' width = '70%;'></div></div>","null","neg","CS","CS","3","category3/CS4.png","","","","",""
"","html-keyboard-response","12","72911","0.0-6.0-0.0-0.6","uf2353fobs","many_one","0","indirect_first","0","Lollipop","0","18","1","1","3","1","","0","1","0","null","","","<div class = 'row'><div class = 'column'><img src = 'category4/CS5.png' width = '70%;'></div><div class = 'column'><img src = 'usneg/1280.bmp' width = '100%;'></div></div>","null","neg","CS","CS","4","category4/CS5.png","","","","",""
"","html-keyboard-response","13","75417","0.0-6.0-0.0-0.7","uf2353fobs","many_one","0","indirect_first","0","Lollipop","0","18","1","1","3","1","","0","1","0","null","","","<div class = 'row'><div class = 'column'><img src = 'uspos/2030.bmp' width = '100%;'></div><div class = 'column'><img src = 'category2/CS7.png' width = '70%;'></div></div>","null","pos","CS","CS","2","category2/CS7.png","","","","",""
"","html-keyboard-response","14","77922","0.0-6.0-0.0-0.8","uf2353fobs","many_one","0","indirect_first","0","Lollipop","0","18","1","1","3","1","","0","1","0","null","","","<div class = 'row'><div class = 'column'><img src = 'usneg/9050.bmp' width = '100%;'></div><div class = 'column'><img src = 'category3/CS10.png' width = '70%;'></div></div>","null","neg","CS","CS","3","category3/CS10.png","","","","",""
"","html-keyboard-response","15","80428","0.0-6.0-0.0-0.9","uf2353fobs","many_one","0","indirect_first","0","Lollipop","0","18","1","1","3","1","","0","1","0","null","","","<div class = 'row'><div class = 'column'><img src = 'uspos/2340.bmp' width = '100%;'></div><div class = 'column'><img src = 'category1/CS6.png' width = '70%;'></div></div>","null","pos","CS","CS","1","category1/CS6.png","","","","",""
"","html-keyboard-response","16","82933","0.0-6.0-0.0-0.10","uf2353fobs","many_one","0","indirect_first","0","Lollipop","0","18","1","1","3","1","","0","1","0","null","","","<div class = 'row'><div class = 'column'><img src = 'category2/CS9.png' width = '70%;'></div><div class = 'column'><img src = 'uspos/2900.2.bmp' width = '100%;'></div></div>","null","pos","CS","CS","2","category2/CS9.png","","","","",""
"","html-keyboard-response","17","85439","0.0-6.0-0.0-0.11","uf2353fobs","many_one","0","indirect_first","0","Lollipop","0","18","1","1","3","1","","0","1","0","null","","","<div class = 'row'><div class = 'column'><img src = 'uspos/2040.bmp' width = '100%;'></div><div class = 'column'><img src = 'category1/CS3.png' width = '70%;'></div></div>","null","pos","CS","CS","1","category1/CS3.png","","","","",""
"","html-keyboard-response","18","87945","0.0-6.0-0.0-0.12","uf2353fobs","many_one","0","indirect_first","0","Lollipop","0","18","1","1","3","1","","0","1","0","null","","","<div class = 'row'><div class = 'column'><img src = 'category2/CS8.png' width = '70%;'></div><div class = 'column'><img src = 'uspos/1710.bmp' width = '100%;'></div></div>","null","pos","CS","CS","2","category2/CS8.png","","","","",""
"","html-keyboard-response","19","90451","0.0-6.0-0.0-0.13","uf2353fobs","many_one","0","indirect_first","0","Lollipop","0","18","1","1","3","1","","0","1","0","null","","","<div class = 'row'><div class = 'column'><img src = 'usneg/9584.bmp' width = '100%;'></div><div class = 'column'><img src = 'category4/CS9.png' width = '70%;'></div></div>","null","neg","CS","CS","4","category4/CS9.png","","","","",""
"","html-keyboard-response","20","92957","0.0-6.0-0.0-0.14","uf2353fobs","many_one","0","indirect_first","0","Lollipop","0","18","1","1","3","1","","0","1","0","null","","","<div class = 'row'><div class = 'column'><img src = 'category1/CS5.png' width = '70%;'></div><div class = 'column'><img src = 'uspos/4599.bmp' width = '100%;'></div></div>","null","pos","CS","CS","1","category1/CS5.png","","","","",""
"","html-keyboard-response","21","95462","0.0-6.0-0.0-0.15","uf2353fobs","many_one","0","indirect_first","0","Lollipop","0","18","1","1","3","1","","0","1","0","null","","","<div class = 'row'><div class = 'column'><img src = 'category4/CS4.png' width = '70%;'></div><div class = 'column'><img src = 'usneg/9220.bmp' width = '100%;'></div></div>","null","neg","CS","CS","4","category4/CS4.png","","","","",""
"","html-keyboard-response","22","97967","0.0-6.0-0.0-0.16","uf2353fobs","many_one","0","indirect_first","0","Lollipop","0","18","1","1","3","1","","0","1","0","null","","","<div class = 'row'><div class = 'column'><img src = 'uspos/8080.bmp' width = '100%;'></div><div class = 'column'><img src = 'category2/CS1.png' width = '70%;'></div></div>","null","pos","CS","CS","2","category2/CS1.png","","","","",""
"","html-keyboard-response","23","100472","0.0-6.0-0.0-0.17","uf2353fobs","many_one","0","indirect_first","0","Lollipop","0","18","1","1","3","1","","0","1","0","null","","","<div class = 'row'><div class = 'column'><img src = 'category4/CS3.png' width = '70%;'></div><div class = 'column'><img src = 'usneg/9182.bmp' width = '100%;'></div></div>","null","neg","CS","CS","4","category4/CS3.png","","","","",""
"","html-keyboard-response","24","102978","0.0-6.0-0.0-0.18","uf2353fobs","many_one","0","indirect_first","0","Lollipop","0","18","1","1","3","1","","0","1","0","null","","","<div class = 'row'><div class = 'column'><img src = 'category1/CS7.png' width = '70%;'></div><div class = 'column'><img src = 'uspos/2341.bmp' width = '100%;'></div></div>","null","pos","CS","CS","1","category1/CS7.png","","","","",""
"","html-keyboard-response","25","105483","0.0-6.0-0.0-0.19","uf2353fobs","many_one","0","indirect_first","0","Lollipop","0","18","1","1","3","1","","0","1","0","null","","","<div class = 'row'><div class = 'column'><img src = 'category3/CS8.png' width = '70%;'></div><div class = 'column'><img src = 'usneg/9330.bmp' width = '100%;'></div></div>","null","neg","CS","CS","3","category3/CS8.png","","","","",""
"","survey-html-form","26","107731","0.0-6.0-1.0","uf2353fobs","many_one","0","indirect_first","0","Lollipop","0","18","1","1","3","1","","0","1","0","1745","","{}","","","","","","","","","","","",""
"","html-keyboard-response","27","111736","0.0-6.0-2.0-0.0","uf2353fobs","many_one","0","indirect_first","0","Lollipop","0","18","1","1","3","1","","0","1","0","null","","","<div class = 'row'><div class = 'column'><img src = 'usneg/9050.bmp' width = '100%;'></div><div class = 'column'><img src = 'category3/CS10.png' width = '70%;'></div></div>","null","neg","CS","CS","3","category3/CS10.png","","","","",""
"","html-keyboard-response","28","114241","0.0-6.0-2.0-0.1","uf2353fobs","many_one","0","indirect_first","0","Lollipop","0","18","1","1","3","1","","0","1","0","null","","","<div class = 'row'><div class = 'column'><img src = 'category2/CS7.png' width = '70%;'></div><div class = 'column'><img src = 'uspos/2030.bmp' width = '100%;'></div></div>","null","pos","CS","CS","2","category2/CS7.png","","","","",""
"","html-keyboard-response","29","116745","0.0-6.0-2.0-0.2","uf2353fobs","many_one","0","indirect_first","0","Lollipop","0","18","1","1","3","1","","0","1","0","null","","","<div class = 'row'><div class = 'column'><img src = 'category2/CS6.png' width = '70%;'></div><div class = 'column'><img src = 'uspos/2160.bmp' width = '100%;'></div></div>","null","pos","CS","CS","2","category2/CS6.png","","","","",""
"","html-keyboard-response","30","119250","0.0-6.0-2.0-0.3","uf2353fobs","many_one","0","indirect_first","0","Lollipop","0","18","1","1","3","1","","0","1","0","null","","","<div class = 'row'><div class = 'column'><img src = 'category3/CS4.png' width = '70%;'></div><div class = 'column'><img src = 'usneg/9000.bmp' width = '100%;'></div></div>","null","neg","CS","CS","3","category3/CS4.png","","","","",""
"","html-keyboard-response","31","121756","0.0-6.0-2.0-0.4","uf2353fobs","many_one","0","indirect_first","0","Lollipop","0","18","1","1","3","1","","0","1","0","null","","","<div class = 'row'><div class = 'column'><img src = 'usneg/9330.bmp' width = '100%;'></div><div class = 'column'><img src = 'category3/CS8.png' width = '70%;'></div></div>","null","neg","CS","CS","3","category3/CS8.png","","","","",""
"","html-keyboard-response","32","124261","0.0-6.0-2.0-0.5","uf2353fobs","many_one","0","indirect_first","0","Lollipop","0","18","1","1","3","1","","0","1","0","null","","","<div class = 'row'><div class = 'column'><img src = 'usneg/9342.bmp' width = '100%;'></div><div class = 'column'><img src = 'category3/CS5.png' width = '70%;'></div></div>","null","neg","CS","CS","3","category3/CS5.png","","","","",""
"","html-keyboard-response","33","126767","0.0-6.0-2.0-0.6","uf2353fobs","many_one","0","indirect_first","0","Lollipop","0","18","1","1","3","1","","0","1","0","null","","","<div class = 'row'><div class = 'column'><img src = 'usneg/9182.bmp' width = '100%;'></div><div class = 'column'><img src = 'category4/CS3.png' width = '70%;'></div></div>","null","neg","CS","CS","4","category4/CS3.png","","","","",""
"","html-keyboard-response","34","129272","0.0-6.0-2.0-0.7","uf2353fobs","many_one","0","indirect_first","0","Lollipop","0","18","1","1","3","1","","0","1","0","null","","","<div class = 'row'><div class = 'column'><img src = 'category4/CS4.png' width = '70%;'></div><div class = 'column'><img src = 'usneg/9220.bmp' width = '100%;'></div></div>","null","neg","CS","CS","4","category4/CS4.png","","","","",""
"","html-keyboard-response","35","131777","0.0-6.0-2.0-0.8","uf2353fobs","many_one","0","indirect_first","0","Lollipop","0","18","1","1","3","1","","0","1","0","null","","","<div class = 'row'><div class = 'column'><img src = 'uspos/1710.bmp' width = '100%;'></div><div class = 'column'><img src = 'category2/CS8.png' width = '70%;'></div></div>","null","pos","CS","CS","2","category2/CS8.png","","","","",""
"","html-keyboard-response","36","134283","0.0-6.0-2.0-0.9","uf2353fobs","many_one","0","indirect_first","0","Lollipop","0","18","1","1","3","1","","0","1","0","null","","","<div class = 'row'><div class = 'column'><img src = 'uspos/8080.bmp' width = '100%;'></div><div class = 'column'><img src = 'category2/CS1.png' width = '70%;'></div></div>","null","pos","CS","CS","2","category2/CS1.png","","","","",""
"","html-keyboard-response","37","136789","0.0-6.0-2.0-0.10","uf2353fobs","many_one","0","indirect_first","0","Lollipop","0","18","1","1","3","1","","0","1","0","null","","","<div class = 'row'><div class = 'column'><img src = 'usneg/9181.bmp' width = '100%;'></div><div class = 'column'><img src = 'category4/CS8.png' width = '70%;'></div></div>","null","neg","CS","CS","4","category4/CS8.png","","","","",""
"","html-keyboard-response","38","139294","0.0-6.0-2.0-0.11","uf2353fobs","many_one","0","indirect_first","0","Lollipop","0","18","1","1","3","1","","0","1","0","null","","","<div class = 'row'><div class = 'column'><img src = 'category2/CS9.png' width = '70%;'></div><div class = 'column'><img src = 'uspos/2900.2.bmp' width = '100%;'></div></div>","null","pos","CS","CS","2","category2/CS9.png","","","","",""
"","html-keyboard-response","39","141800","0.0-6.0-2.0-0.12","uf2353fobs","many_one","0","indirect_first","0","Lollipop","0","18","1","1","3","1","","0","1","0","null","","","<div class = 'row'><div class = 'column'><img src = 'category4/CS5.png' width = '70%;'></div><div class = 'column'><img src = 'usneg/1280.bmp' width = '100%;'></div></div>","null","neg","CS","CS","4","category4/CS5.png","","","","",""
"","html-keyboard-response","40","144307","0.0-6.0-2.0-0.13","uf2353fobs","many_one","0","indirect_first","0","Lollipop","0","18","1","1","3","1","","0","1","0","null","","","<div class = 'row'><div class = 'column'><img src = 'category1/CS10.png' width = '70%;'></div><div class = 'column'><img src = 'uspos/2360.bmp' width = '100%;'></div></div>","null","pos","CS","CS","1","category1/CS10.png","","","","",""
"","html-keyboard-response","41","146812","0.0-6.0-2.0-0.14","uf2353fobs","many_one","0","indirect_first","0","Lollipop","0","18","1","1","3","1","","0","1","0","null","","","<div class = 'row'><div class = 'column'><img src = 'category1/CS3.png' width = '70%;'></div><div class = 'column'><img src = 'uspos/2040.bmp' width = '100%;'></div></div>","null","pos","CS","CS","1","category1/CS3.png","","","","",""
"","html-keyboard-response","42","149318","0.0-6.0-2.0-0.15","uf2353fobs","many_one","0","indirect_first","0","Lollipop","0","18","1","1","3","1","","0","1","0","null","","","<div class = 'row'><div class = 'column'><img src = 'category1/CS7.png' width = '70%;'></div><div class = 'column'><img src = 'uspos/2341.bmp' width = '100%;'></div></div>","null","pos","CS","CS","1","category1/CS7.png","","","","",""
"","html-keyboard-response","43","151824","0.0-6.0-2.0-0.16","uf2353fobs","many_one","0","indirect_first","0","Lollipop","0","18","1","1","3","1","","0","1","0","null","","","<div class = 'row'><div class = 'column'><img src = 'uspos/2340.bmp' width = '100%;'></div><div class = 'column'><img src = 'category1/CS6.png' width = '70%;'></div></div>","null","pos","CS","CS","1","category1/CS6.png","","","","",""
"","html-keyboard-response","44","154330","0.0-6.0-2.0-0.17","uf2353fobs","many_one","0","indirect_first","0","Lollipop","0","18","1","1","3","1","","0","1","0","null","","","<div class = 'row'><div class = 'column'><img src = 'category3/CS1.png' width = '70%;'></div><div class = 'column'><img src = 'usneg/9280.bmp' width = '100%;'></div></div>","null","neg","CS","CS","3","category3/CS1.png","","","","",""
"","html-keyboard-response","45","156836","0.0-6.0-2.0-0.18","uf2353fobs","many_one","0","indirect_first","0","Lollipop","0","18","1","1","3","1","","0","1","0","null","","","<div class = 'row'><div class = 'column'><img src = 'category1/CS5.png' width = '70%;'></div><div class = 'column'><img src = 'uspos/4599.bmp' width = '100%;'></div></div>","null","pos","CS","CS","1","category1/CS5.png","","","","",""
"","html-keyboard-response","46","159341","0.0-6.0-2.0-0.19","uf2353fobs","many_one","0","indirect_first","0","Lollipop","0","18","1","1","3","1","","0","1","0","null","","","<div class = 'row'><div class = 'column'><img src = 'usneg/9584.bmp' width = '100%;'></div><div class = 'column'><img src = 'category4/CS9.png' width = '70%;'></div></div>","null","neg","CS","CS","4","category4/CS9.png","","","","",""
"","survey-html-form","47","212599","0.0-6.0-3.0","uf2353fobs","many_one","0","indirect_first","0","Lollipop","0","18","1","1","3","1","","0","1","0","52757","","{}","","","","","","","","","","","",""
"","html-keyboard-response","48","216605","0.0-6.0-4.0-0.0","uf2353fobs","many_one","0","indirect_first","0","Lollipop","0","18","1","1","3","1","","0","1","0","null","","","<div class = 'row'><div class = 'column'><img src = 'uspos/2341.bmp' width = '100%;'></div><div class = 'column'><img src = 'category1/CS7.png' width = '70%;'></div></div>","null","pos","CS","CS","1","category1/CS7.png","","","","",""
"","html-keyboard-response","49","219110","0.0-6.0-4.0-0.1","uf2353fobs","many_one","0","indirect_first","0","Lollipop","0","18","1","1","3","1","","0","1","0","null","","","<div class = 'row'><div class = 'column'><img src = 'category1/CS10.png' width = '70%;'></div><div class = 'column'><img src = 'uspos/2360.bmp' width = '100%;'></div></div>","null","pos","CS","CS","1","category1/CS10.png","","","","",""
"","html-keyboard-response","50","221616","0.0-6.0-4.0-0.2","uf2353fobs","many_one","0","indirect_first","0","Lollipop","0","18","1","1","3","1","","0","1","0","null","","","<div class = 'row'><div class = 'column'><img src = 'category3/CS8.png' width = '70%;'></div><div class = 'column'><img src = 'usneg/9330.bmp' width = '100%;'></div></div>","null","neg","CS","CS","3","category3/CS8.png","","","","",""
"","html-keyboard-response","51","224122","0.0-6.0-4.0-0.3","uf2353fobs","many_one","0","indirect_first","0","Lollipop","0","18","1","1","3","1","","0","1","0","null","","","<div class = 'row'><div class = 'column'><img src = 'category4/CS8.png' width = '70%;'></div><div class = 'column'><img src = 'usneg/9181.bmp' width = '100%;'></div></div>","null","neg","CS","CS","4","category4/CS8.png","","","","",""
"","html-keyboard-response","52","226628","0.0-6.0-4.0-0.4","uf2353fobs","many_one","0","indirect_first","0","Lollipop","0","18","1","1","3","1","","0","1","0","null","","","<div class = 'row'><div class = 'column'><img src = 'uspos/2900.2.bmp' width = '100%;'></div><div class = 'column'><img src = 'category2/CS9.png' width = '70%;'></div></div>","null","pos","CS","CS","2","category2/CS9.png","","","","",""
"","html-keyboard-response","53","229133","0.0-6.0-4.0-0.5","uf2353fobs","many_one","0","indirect_first","0","Lollipop","0","18","1","1","3","1","","0","1","0","null","","","<div class = 'row'><div class = 'column'><img src = 'usneg/9000.bmp' width = '100%;'></div><div class = 'column'><img src = 'category3/CS4.png' width = '70%;'></div></div>","null","neg","CS","CS","3","category3/CS4.png","","","","",""
"","html-keyboard-response","54","231639","0.0-6.0-4.0-0.6","uf2353fobs","many_one","0","indirect_first","0","Lollipop","0","18","1","1","3","1","","0","1","0","null","","","<div class = 'row'><div class = 'column'><img src = 'uspos/2030.bmp' width = '100%;'></div><div class = 'column'><img src = 'category2/CS7.png' width = '70%;'></div></div>","null","pos","CS","CS","2","category2/CS7.png","","","","",""
"","html-keyboard-response","55","234144","0.0-6.0-4.0-0.7","uf2353fobs","many_one","0","indirect_first","0","Lollipop","0","18","1","1","3","1","","0","1","0","null","","","<div class = 'row'><div class = 'column'><img src = 'category4/CS4.png' width = '70%;'></div><div class = 'column'><img src = 'usneg/9220.bmp' width = '100%;'></div></div>","null","neg","CS","CS","4","category4/CS4.png","","","","",""
"","html-keyboard-response","56","236650","0.0-6.0-4.0-0.8","uf2353fobs","many_one","0","indirect_first","0","Lollipop","0","18","1","1","3","1","","0","1","0","null","","","<div class = 'row'><div class = 'column'><img src = 'category4/CS3.png' width = '70%;'></div><div class = 'column'><img src = 'usneg/9182.bmp' width = '100%;'></div></div>","null","neg","CS","CS","4","category4/CS3.png","","","","",""
"","html-keyboard-response","57","239156","0.0-6.0-4.0-0.9","uf2353fobs","many_one","0","indirect_first","0","Lollipop","0","18","1","1","3","1","","0","1","0","null","","","<div class = 'row'><div class = 'column'><img src = 'category1/CS3.png' width = '70%;'></div><div class = 'column'><img src = 'uspos/2040.bmp' width = '100%;'></div></div>","null","pos","CS","CS","1","category1/CS3.png","","","","",""
"","html-keyboard-response","58","241661","0.0-6.0-4.0-0.10","uf2353fobs","many_one","0","indirect_first","0","Lollipop","0","18","1","1","3","1","","0","1","0","null","","","<div class = 'row'><div class = 'column'><img src = 'category4/CS5.png' width = '70%;'></div><div class = 'column'><img src = 'usneg/1280.bmp' width = '100%;'></div></div>","null","neg","CS","CS","4","category4/CS5.png","","","","",""
"","html-keyboard-response","59","244165","0.0-6.0-4.0-0.11","uf2353fobs","many_one","0","indirect_first","0","Lollipop","0","18","1","1","3","1","","0","1","0","null","","","<div class = 'row'><div class = 'column'><img src = 'uspos/2340.bmp' width = '100%;'></div><div class = 'column'><img src = 'category1/CS6.png' width = '70%;'></div></div>","null","pos","CS","CS","1","category1/CS6.png","","","","",""
"","html-keyboard-response","60","246682","0.0-6.0-4.0-0.12","uf2353fobs","many_one","0","indirect_first","0","Lollipop","0","18","1","1","3","1","","0","1","0","null","","","<div class = 'row'><div class = 'column'><img src = 'category3/CS10.png' width = '70%;'></div><div class = 'column'><img src = 'usneg/9050.bmp' width = '100%;'></div></div>","null","neg","CS","CS","3","category3/CS10.png","","","","",""
"","html-keyboard-response","61","249188","0.0-6.0-4.0-0.13","uf2353fobs","many_one","0","indirect_first","0","Lollipop","0","18","1","1","3","1","","0","1","0","null","","","<div class = 'row'><div class = 'column'><img src = 'category4/CS9.png' width = '70%;'></div><div class = 'column'><img src = 'usneg/9584.bmp' width = '100%;'></div></div>","null","neg","CS","CS","4","category4/CS9.png","","","","",""
"","html-keyboard-response","62","251694","0.0-6.0-4.0-0.14","uf2353fobs","many_one","0","indirect_first","0","Lollipop","0","18","1","1","3","1","","0","1","0","null","","","<div class = 'row'><div class = 'column'><img src = 'usneg/9280.bmp' width = '100%;'></div><div class = 'column'><img src = 'category3/CS1.png' width = '70%;'></div></div>","null","neg","CS","CS","3","category3/CS1.png","","","","",""
"","html-keyboard-response","63","254199","0.0-6.0-4.0-0.15","uf2353fobs","many_one","0","indirect_first","0","Lollipop","0","18","1","1","3","1","","0","1","0","null","","","<div class = 'row'><div class = 'column'><img src = 'category2/CS6.png' width = '70%;'></div><div class = 'column'><img src = 'uspos/2160.bmp' width = '100%;'></div></div>","null","pos","CS","CS","2","category2/CS6.png","","","","",""
"","html-keyboard-response","64","256704","0.0-6.0-4.0-0.16","uf2353fobs","many_one","0","indirect_first","0","Lollipop","0","18","1","1","3","1","","0","1","0","null","","","<div class = 'row'><div class = 'column'><img src = 'category1/CS5.png' width = '70%;'></div><div class = 'column'><img src = 'uspos/4599.bmp' width = '100%;'></div></div>","null","pos","CS","CS","1","category1/CS5.png","","","","",""
"","html-keyboard-response","65","259209","0.0-6.0-4.0-0.17","uf2353fobs","many_one","0","indirect_first","0","Lollipop","0","18","1","1","3","1","","0","1","0","null","","","<div class = 'row'><div class = 'column'><img src = 'category3/CS5.png' width = '70%;'></div><div class = 'column'><img src = 'usneg/9342.bmp' width = '100%;'></div></div>","null","neg","CS","CS","3","category3/CS5.png","","","","",""
"","html-keyboard-response","66","261714","0.0-6.0-4.0-0.18","uf2353fobs","many_one","0","indirect_first","0","Lollipop","0","18","1","1","3","1","","0","1","0","null","","","<div class = 'row'><div class = 'column'><img src = 'category2/CS1.png' width = '70%;'></div><div class = 'column'><img src = 'uspos/8080.bmp' width = '100%;'></div></div>","null","pos","CS","CS","2","category2/CS1.png","","","","",""
"","html-keyboard-response","67","264220","0.0-6.0-4.0-0.19","uf2353fobs","many_one","0","indirect_first","0","Lollipop","0","18","1","1","3","1","","0","1","0","null","","","<div class = 'row'><div class = 'column'><img src = 'category2/CS8.png' width = '70%;'></div><div class = 'column'><img src = 'uspos/1710.bmp' width = '100%;'></div></div>","null","pos","CS","CS","2","category2/CS8.png","","","","",""
"","survey-html-form","68","265964","0.0-6.0-5.0","uf2353fobs","many_one","0","indirect_first","0","Lollipop","0","18","1","1","3","1","","0","1","0","1241.0000000000582","","{}","","","","","","","","","","","",""
"","html-keyboard-response","69","269969","0.0-6.0-6.0-0.0","uf2353fobs","many_one","0","indirect_first","0","Lollipop","0","18","1","1","3","1","","0","1","0","null","","","<div class = 'row'><div class = 'column'><img src = 'category4/CS8.png' width = '70%;'></div><div class = 'column'><img src = 'usneg/9181.bmp' width = '100%;'></div></div>","null","neg","CS","CS","4","category4/CS8.png","","","","",""
"","html-keyboard-response","70","272475","0.0-6.0-6.0-0.1","uf2353fobs","many_one","0","indirect_first","0","Lollipop","0","18","1","1","3","1","","0","1","0","null","","","<div class = 'row'><div class = 'column'><img src = 'uspos/2340.bmp' width = '100%;'></div><div class = 'column'><img src = 'category1/CS6.png' width = '70%;'></div></div>","null","pos","CS","CS","1","category1/CS6.png","","","","",""
"","html-keyboard-response","71","274980","0.0-6.0-6.0-0.2","uf2353fobs","many_one","0","indirect_first","0","Lollipop","0","18","1","1","3","1","","0","1","0","null","","","<div class = 'row'><div class = 'column'><img src = 'usneg/9000.bmp' width = '100%;'></div><div class = 'column'><img src = 'category3/CS4.png' width = '70%;'></div></div>","null","neg","CS","CS","3","category3/CS4.png","","","","",""
"","html-keyboard-response","72","277485","0.0-6.0-6.0-0.3","uf2353fobs","many_one","0","indirect_first","0","Lollipop","0","18","1","1","3","1","","0","1","0","null","","","<div class = 'row'><div class = 'column'><img src = 'category3/CS10.png' width = '70%;'></div><div class = 'column'><img src = 'usneg/9050.bmp' width = '100%;'></div></div>","null","neg","CS","CS","3","category3/CS10.png","","","","",""
"","html-keyboard-response","73","279997","0.0-6.0-6.0-0.4","uf2353fobs","many_one","0","indirect_first","0","Lollipop","0","18","1","1","3","1","","0","1","0","null","","","<div class = 'row'><div class = 'column'><img src = 'category1/CS5.png' width = '70%;'></div><div class = 'column'><img src = 'uspos/4599.bmp' width = '100%;'></div></div>","null","pos","CS","CS","1","category1/CS5.png","","","","",""
"","html-keyboard-response","74","282509","0.0-6.0-6.0-0.5","uf2353fobs","many_one","0","indirect_first","0","Lollipop","0","18","1","1","3","1","","0","1","0","null","","","<div class = 'row'><div class = 'column'><img src = 'category2/CS8.png' width = '70%;'></div><div class = 'column'><img src = 'uspos/1710.bmp' width = '100%;'></div></div>","null","pos","CS","CS","2","category2/CS8.png","","","","",""
"","html-keyboard-response","75","285015","0.0-6.0-6.0-0.6","uf2353fobs","many_one","0","indirect_first","0","Lollipop","0","18","1","1","3","1","","0","1","0","null","","","<div class = 'row'><div class = 'column'><img src = 'category4/CS5.png' width = '70%;'></div><div class = 'column'><img src = 'usneg/1280.bmp' width = '100%;'></div></div>","null","neg","CS","CS","4","category4/CS5.png","","","","",""
"","html-keyboard-response","76","287520","0.0-6.0-6.0-0.7","uf2353fobs","many_one","0","indirect_first","0","Lollipop","0","18","1","1","3","1","","0","1","0","null","","","<div class = 'row'><div class = 'column'><img src = 'category2/CS6.png' width = '70%;'></div><div class = 'column'><img src = 'uspos/2160.bmp' width = '100%;'></div></div>","null","pos","CS","CS","2","category2/CS6.png","","","","",""
"","html-keyboard-response","77","290026","0.0-6.0-6.0-0.8","uf2353fobs","many_one","0","indirect_first","0","Lollipop","0","18","1","1","3","1","","0","1","0","null","","","<div class = 'row'><div class = 'column'><img src = 'uspos/2360.bmp' width = '100%;'></div><div class = 'column'><img src = 'category1/CS10.png' width = '70%;'></div></div>","null","pos","CS","CS","1","category1/CS10.png","","","","",""
"","html-keyboard-response","78","292531","0.0-6.0-6.0-0.9","uf2353fobs","many_one","0","indirect_first","0","Lollipop","0","18","1","1","3","1","","0","1","0","null","","","<div class = 'row'><div class = 'column'><img src = 'usneg/9182.bmp' width = '100%;'></div><div class = 'column'><img src = 'category4/CS3.png' width = '70%;'></div></div>","null","neg","CS","CS","4","category4/CS3.png","","","","",""
"","html-keyboard-response","79","295037","0.0-6.0-6.0-0.10","uf2353fobs","many_one","0","indirect_first","0","Lollipop","0","18","1","1","3","1","","0","1","0","null","","","<div class = 'row'><div class = 'column'><img src = 'category4/CS4.png' width = '70%;'></div><div class = 'column'><img src = 'usneg/9220.bmp' width = '100%;'></div></div>","null","neg","CS","CS","4","category4/CS4.png","","","","",""
"","html-keyboard-response","80","297542","0.0-6.0-6.0-0.11","uf2353fobs","many_one","0","indirect_first","0","Lollipop","0","18","1","1","3","1","","0","1","0","null","","","<div class = 'row'><div class = 'column'><img src = 'category2/CS1.png' width = '70%;'></div><div class = 'column'><img src = 'uspos/8080.bmp' width = '100%;'></div></div>","null","pos","CS","CS","2","category2/CS1.png","","","","",""
"","html-keyboard-response","81","300052","0.0-6.0-6.0-0.12","uf2353fobs","many_one","0","indirect_first","0","Lollipop","0","18","1","1","3","1","","0","1","0","null","","","<div class = 'row'><div class = 'column'><img src = 'usneg/9584.bmp' width = '100%;'></div><div class = 'column'><img src = 'category4/CS9.png' width = '70%;'></div></div>","null","neg","CS","CS","4","category4/CS9.png","","","","",""
"","html-keyboard-response","82","302556","0.0-6.0-6.0-0.13","uf2353fobs","many_one","0","indirect_first","0","Lollipop","0","18","1","1","3","1","","0","1","0","null","","","<div class = 'row'><div class = 'column'><img src = 'category3/CS5.png' width = '70%;'></div><div class = 'column'><img src = 'usneg/9342.bmp' width = '100%;'></div></div>","null","neg","CS","CS","3","category3/CS5.png","","","","",""
"","html-keyboard-response","83","305061","0.0-6.0-6.0-0.14","uf2353fobs","many_one","0","indirect_first","0","Lollipop","0","18","1","1","3","1","","0","1","0","null","","","<div class = 'row'><div class = 'column'><img src = 'category2/CS9.png' width = '70%;'></div><div class = 'column'><img src = 'uspos/2900.2.bmp' width = '100%;'></div></div>","null","pos","CS","CS","2","category2/CS9.png","","","","",""
"","html-keyboard-response","84","307570","0.0-6.0-6.0-0.15","uf2353fobs","many_one","0","indirect_first","0","Lollipop","0","18","1","1","3","1","","0","1","0","null","","","<div class = 'row'><div class = 'column'><img src = 'uspos/2030.bmp' width = '100%;'></div><div class = 'column'><img src = 'category2/CS7.png' width = '70%;'></div></div>","null","pos","CS","CS","2","category2/CS7.png","","","","",""
"","html-keyboard-response","85","310076","0.0-6.0-6.0-0.16","uf2353fobs","many_one","0","indirect_first","0","Lollipop","0","18","1","1","3","1","","0","1","0","null","","","<div class = 'row'><div class = 'column'><img src = 'category3/CS8.png' width = '70%;'></div><div class = 'column'><img src = 'usneg/9330.bmp' width = '100%;'></div></div>","null","neg","CS","CS","3","category3/CS8.png","","","","",""
"","html-keyboard-response","86","312581","0.0-6.0-6.0-0.17","uf2353fobs","many_one","0","indirect_first","0","Lollipop","0","18","1","1","3","1","","0","1","0","null","","","<div class = 'row'><div class = 'column'><img src = 'category1/CS3.png' width = '70%;'></div><div class = 'column'><img src = 'uspos/2040.bmp' width = '100%;'></div></div>","null","pos","CS","CS","1","category1/CS3.png","","","","",""
"","html-keyboard-response","87","315086","0.0-6.0-6.0-0.18","uf2353fobs","many_one","0","indirect_first","0","Lollipop","0","18","1","1","3","1","","0","1","0","null","","","<div class = 'row'><div class = 'column'><img src = 'category3/CS1.png' width = '70%;'></div><div class = 'column'><img src = 'usneg/9280.bmp' width = '100%;'></div></div>","null","neg","CS","CS","3","category3/CS1.png","","","","",""
"","html-keyboard-response","88","317591","0.0-6.0-6.0-0.19","uf2353fobs","many_one","0","indirect_first","0","Lollipop","0","18","1","1","3","1","","0","1","0","null","","","<div class = 'row'><div class = 'column'><img src = 'uspos/2341.bmp' width = '100%;'></div><div class = 'column'><img src = 'category1/CS7.png' width = '70%;'></div></div>","null","pos","CS","CS","1","category1/CS7.png","","","","",""
"","html-keyboard-response","89","355546","0.0-7.0","uf2353fobs","many_one","0","indirect_first","0","Lollipop","0","18","1","1","3","1","","0","1","0","37451","","","<p>Sie sehen nun die chinesischen Zeichen nur ganz kurz. Danach sehen Sie die jeweilige Aussprache der Zeichen als Silbe auf dem Bildschrim. Ihre Aufgabe ist es, für jede Silbe anzugeben, ob diese etwas angenehmes, oder unangenehmes bedeuten könnte. Verlassen Sie sich hier vor allem auf Ihre Intuition.<br><br>Die Zeichen werden nur zur Orientierung dargestellt, beachten Sie sie deshalb nicht. Konzentrieren Sie sich vor allem auf die Silben. <br>Reagieren Sie mit folgenden zwei Tasten: <br><br><b>'D' </b> wenn die Silbe etwas <b>unangenehmes</b> bedeuten könnte. <br><b>'K'</b> wenn die Silbe etwas <b>angenehmes</b> bedeuten könnte. <br><br>Bitte legen Sie nun den Zeigefinger der linken Hand auf die Taste 'D' und den Zeigefinger der rechten Hand auf die Taste 'K'. <br>Reagieren Sie auf jede Silbe so schnell wie möglich. Uns interessiert Ihre spontane Reaktion. <br> <br> <br>Drücken Sie 'D' oder 'K', um die nächste Aufgabe zu starten. </p>","68","","","","","","","","","",""
"","html-keyboard-response","90","358548","0.0-8.0-0.0","uf2353fobs","many_one","0","indirect_first","0","Lollipop","0","18","1","1","3","1","","0","1","0","null","","","<div style=""font-size:60px;"">+</div>","null","","","","","","","","","",""
"","html-keyboard-response","91","358642","0.0-8.0-1.0","uf2353fobs","many_one","0","indirect_first","0","Lollipop","0","18","1","1","3","1","","0","1","0","null","","","<img src = 'category4/CS4.png' width = '100%;'>","null","","","","","","","","","",""
"","html-keyboard-response","92","358898","0.0-8.0-2.0","uf2353fobs","many_one","0","indirect_first","0","Lollipop","0","18","1","1","3","1","","0","1","0","null","","","<img src = 'targets/47.png' width = '100%;'>","null","","","","","","","","","",""
"","html-keyboard-response","93","366781","0.0-8.0-3.0","uf2353fobs","many_one","0","indirect_first","0","Lollipop","0","18","1","1","3","1","","0","1","0","7880","","","<img src = 'targets/mask.png' width = '100%;'>","68","neg","CS","CS","4","category4/CS4.png","targets/47.png","0","indirect","0",""
"","html-keyboard-response","94","368286","0.0-8.0-0.1","uf2353fobs","many_one","0","indirect_first","0","Lollipop","0","18","1","1","3","1","","0","1","0","null","","","<div style=""font-size:60px;"">+</div>","null","","","","","","","","","",""
"","html-keyboard-response","95","368379","0.0-8.0-1.1","uf2353fobs","many_one","0","indirect_first","0","Lollipop","0","18","1","1","3","1","","0","1","0","null","","","<img src = 'category3/CS10.png' width = '100%;'>","null","","","","","","","","","",""
"","html-keyboard-response","96","368633","0.0-8.0-2.1","uf2353fobs","many_one","0","indirect_first","0","Lollipop","0","18","1","1","3","1","","0","1","0","null","","","<img src = 'targets/26.png' width = '100%;'>","null","","","","","","","","","",""
"","html-keyboard-response","97","378840","0.0-8.0-3.1","uf2353fobs","many_one","0","indirect_first","0","Lollipop","0","18","1","1","3","1","","0","1","0","10205","","","<img src = 'targets/mask.png' width = '100%;'>","75","neg","CS","CS","3","category3/CS10.png","targets/26.png","1","indirect","1",""
"","html-keyboard-response","98","380345","0.0-8.0-0.2","uf2353fobs","many_one","0","indirect_first","0","Lollipop","0","18","1","1","3","1","","0","1","0","null","","","<div style=""font-size:60px;"">+</div>","null","","","","","","","","","",""
"","html-keyboard-response","99","380439","0.0-8.0-1.2","uf2353fobs","many_one","0","indirect_first","0","Lollipop","0","18","1","1","3","1","","0","1","0","null","","","<img src = 'category3/CS8.png' width = '100%;'>","null","","","","","","","","","",""
"","html-keyboard-response","100","380694","0.0-8.0-2.2","uf2353fobs","many_one","0","indirect_first","0","Lollipop","0","18","1","1","3","1","","0","1","0","null","","","<img src = 'targets/28.png' width = '100%;'>","null","","","","","","","","","",""
"","html-keyboard-response","101","382267","0.0-8.0-3.2","uf2353fobs","many_one","0","indirect_first","0","Lollipop","0","18","1","1","3","1","","0","1","0","1567.9999999999418","","","<img src = 'targets/mask.png' width = '100%;'>","68","neg","CS","CS","3","category3/CS8.png","targets/28.png","0","indirect","2",""
"","html-keyboard-response","102","383772","0.0-8.0-0.3","uf2353fobs","many_one","0","indirect_first","0","Lollipop","0","18","1","1","3","1","","0","1","0","null","","","<div style=""font-size:60px;"">+</div>","null","","","","","","","","","",""
"","html-keyboard-response","103","383866","0.0-8.0-1.3","uf2353fobs","many_one","0","indirect_first","0","Lollipop","0","18","1","1","3","1","","0","1","0","null","","","<img src = 'category4/CS9.png' width = '100%;'>","null","","","","","","","","","",""
"","html-keyboard-response","104","384120","0.0-8.0-2.3","uf2353fobs","many_one","0","indirect_first","0","Lollipop","0","18","1","1","3","1","","0","1","0","null","","","<img src = 'targets/16.png' width = '100%;'>","null","","","","","","","","","",""
"","html-keyboard-response","105","385345","0.0-8.0-3.3","uf2353fobs","many_one","0","indirect_first","0","Lollipop","0","18","1","1","3","1","","0","1","0","1222","","","<img src = 'targets/mask.png' width = '100%;'>","75","neg","CS","CS","4","category4/CS9.png","targets/16.png","1","indirect","3",""
"","html-keyboard-response","106","386850","0.0-8.0-0.4","uf2353fobs","many_one","0","indirect_first","0","Lollipop","0","18","1","1","3","1","","0","1","0","null","","","<div style=""font-size:60px;"">+</div>","null","","","","","","","","","",""
"","html-keyboard-response","107","386944","0.0-8.0-1.4","uf2353fobs","many_one","0","indirect_first","0","Lollipop","0","18","1","1","3","1","","0","1","0","null","","","<img src = 'category1/CS4.png' width = '100%;'>","null","","","","","","","","","",""
"","html-keyboard-response","108","387198","0.0-8.0-2.4","uf2353fobs","many_one","0","indirect_first","0","Lollipop","0","18","1","1","3","1","","0","1","0","null","","","<img src = 'targets/23.png' width = '100%;'>","null","","","","","","","","","",""
"","html-keyboard-response","109","389756","0.0-8.0-3.4","uf2353fobs","many_one","0","indirect_first","0","Lollipop","0","18","1","1","3","1","","0","1","0","2556","","","<img src = 'targets/mask.png' width = '100%;'>","68","pos","GS","GSold","1","category1/CS4.png","targets/23.png","0","indirect","4",""
"","html-keyboard-response","110","391261","0.0-8.0-0.5","uf2353fobs","many_one","0","indirect_first","0","Lollipop","0","18","1","1","3","1","","0","1","0","null","","","<div style=""font-size:60px;"">+</div>","null","","","","","","","","","",""
"","html-keyboard-response","111","391355","0.0-8.0-1.5","uf2353fobs","many_one","0","indirect_first","0","Lollipop","0","18","1","1","3","1","","0","1","0","null","","","<img src = 'category2/CS6.png' width = '100%;'>","null","","","","","","","","","",""
"","html-keyboard-response","112","391608","0.0-8.0-2.5","uf2353fobs","many_one","0","indirect_first","0","Lollipop","0","18","1","1","3","1","","0","1","0","null","","","<img src = 'targets/1.png' width = '100%;'>","null","","","","","","","","","",""
"","html-keyboard-response","113","392769","0.0-8.0-3.5","uf2353fobs","many_one","0","indirect_first","0","Lollipop","0","18","1","1","3","1","","0","1","0","1159","","","<img src = 'targets/mask.png' width = '100%;'>","68","pos","CS","CS","2","category2/CS6.png","targets/1.png","0","indirect","5",""
"","html-keyboard-response","114","394274","0.0-8.0-0.6","uf2353fobs","many_one","0","indirect_first","0","Lollipop","0","18","1","1","3","1","","0","1","0","null","","","<div style=""font-size:60px;"">+</div>","null","","","","","","","","","",""
"","html-keyboard-response","115","394367","0.0-8.0-1.6","uf2353fobs","many_one","0","indirect_first","0","Lollipop","0","18","1","1","3","1","","0","1","0","null","","","<img src = 'category1/CS5.png' width = '100%;'>","null","","","","","","","","","",""
"","html-keyboard-response","116","394621","0.0-8.0-2.6","uf2353fobs","many_one","0","indirect_first","0","Lollipop","0","18","1","1","3","1","","0","1","0","null","","","<img src = 'targets/27.png' width = '100%;'>","null","","","","","","","","","",""
"","html-keyboard-response","117","395931","0.0-8.0-3.6","uf2353fobs","many_one","0","indirect_first","0","Lollipop","0","18","1","1","3","1","","0","1","0","1307","","","<img src = 'targets/mask.png' width = '100%;'>","75","pos","CS","CS","1","category1/CS5.png","targets/27.png","1","indirect","6",""
"","html-keyboard-response","118","397435","0.0-8.0-0.7","uf2353fobs","many_one","0","indirect_first","0","Lollipop","0","18","1","1","3","1","","0","1","0","null","","","<div style=""font-size:60px;"">+</div>","null","","","","","","","","","",""
"","html-keyboard-response","119","397528","0.0-8.0-1.7","uf2353fobs","many_one","0","indirect_first","0","Lollipop","0","18","1","1","3","1","","0","1","0","null","","","<img src = 'category4/CS10.png' width = '100%;'>","null","","","","","","","","","",""
"","html-keyboard-response","120","397782","0.0-8.0-2.7","uf2353fobs","many_one","0","indirect_first","0","Lollipop","0","18","1","1","3","1","","0","1","0","null","","","<img src = 'targets/36.png' width = '100%;'>","null","","","","","","","","","",""
"","html-keyboard-response","121","398707","0.0-8.0-3.7","uf2353fobs","many_one","0","indirect_first","0","Lollipop","0","18","1","1","3","1","","0","1","0","921","","","<img src = 'targets/mask.png' width = '100%;'>","68","neg","GS","GSold","4","category4/CS10.png","targets/36.png","0","indirect","7",""
"","html-keyboard-response","122","400211","0.0-8.0-0.8","uf2353fobs","many_one","0","indirect_first","0","Lollipop","0","18","1","1","3","1","","0","1","0","null","","","<div style=""font-size:60px;"">+</div>","null","","","","","","","","","",""
"","html-keyboard-response","123","400311","0.0-8.0-1.8","uf2353fobs","many_one","0","indirect_first","0","Lollipop","0","18","1","1","3","1","","0","1","0","null","","","<img src = 'category1/CS10.png' width = '100%;'>","null","","","","","","","","","",""
"","html-keyboard-response","124","400565","0.0-8.0-2.8","uf2353fobs","many_one","0","indirect_first","0","Lollipop","0","18","1","1","3","1","","0","1","0","null","","","<img src = 'targets/24.png' width = '100%;'>","null","","","","","","","","","",""
"","html-keyboard-response","125","401239","0.0-8.0-3.8","uf2353fobs","many_one","0","indirect_first","0","Lollipop","0","18","1","1","3","1","","0","1","0","670.9999999999418","","","<img src = 'targets/mask.png' width = '100%;'>","75","pos","CS","CS","1","category1/CS10.png","targets/24.png","1","indirect","8",""
"","html-keyboard-response","126","402745","0.0-8.0-0.9","uf2353fobs","many_one","0","indirect_first","0","Lollipop","0","18","1","1","3","1","","0","1","0","null","","","<div style=""font-size:60px;"">+</div>","null","","","","","","","","","",""
"","html-keyboard-response","127","402838","0.0-8.0-1.9","uf2353fobs","many_one","0","indirect_first","0","Lollipop","0","18","1","1","3","1","","0","1","0","null","","","<img src = 'category1/CS7.png' width = '100%;'>","null","","","","","","","","","",""
"","html-keyboard-response","128","403093","0.0-8.0-2.9","uf2353fobs","many_one","0","indirect_first","0","Lollipop","0","18","1","1","3","1","","0","1","0","null","","","<img src = 'targets/10.png' width = '100%;'>","null","","","","","","","","","",""
"","html-keyboard-response","129","404141","0.0-8.0-3.9","uf2353fobs","many_one","0","indirect_first","0","Lollipop","0","18","1","1","3","1","","0","1","0","1045.0000000000582","","","<img src = 'targets/mask.png' width = '100%;'>","75","pos","CS","CS","1","category1/CS7.png","targets/10.png","1","indirect","9",""
"","html-keyboard-response","130","405646","0.0-8.0-0.10","uf2353fobs","many_one","0","indirect_first","0","Lollipop","0","18","1","1","3","1","","0","1","0","null","","","<div style=""font-size:60px;"">+</div>","null","","","","","","","","","",""
"","html-keyboard-response","131","405739","0.0-8.0-1.10","uf2353fobs","many_one","0","indirect_first","0","Lollipop","0","18","1","1","3","1","","0","1","0","null","","","<img src = 'category2/CS1.png' width = '100%;'>","null","","","","","","","","","",""
"","html-keyboard-response","132","405992","0.0-8.0-2.10","uf2353fobs","many_one","0","indirect_first","0","Lollipop","0","18","1","1","3","1","","0","1","0","null","","","<img src = 'targets/45.png' width = '100%;'>","null","","","","","","","","","",""
"","html-keyboard-response","133","406725","0.0-8.0-3.10","uf2353fobs","many_one","0","indirect_first","0","Lollipop","0","18","1","1","3","1","","0","1","0","731","","","<img src = 'targets/mask.png' width = '100%;'>","75","pos","CS","CS","2","category2/CS1.png","targets/45.png","1","indirect","10",""
"","html-keyboard-response","134","408230","0.0-8.0-0.11","uf2353fobs","many_one","0","indirect_first","0","Lollipop","0","18","1","1","3","1","","0","1","0","null","","","<div style=""font-size:60px;"">+</div>","null","","","","","","","","","",""
"","html-keyboard-response","135","408324","0.0-8.0-1.11","uf2353fobs","many_one","0","indirect_first","0","Lollipop","0","18","1","1","3","1","","0","1","0","null","","","<img src = 'category3/CS1.png' width = '100%;'>","null","","","","","","","","","",""
"","html-keyboard-response","136","408577","0.0-8.0-2.11","uf2353fobs","many_one","0","indirect_first","0","Lollipop","0","18","1","1","3","1","","0","1","0","null","","","<img src = 'targets/9.png' width = '100%;'>","null","","","","","","","","","",""
"","html-keyboard-response","137","409170","0.0-8.0-3.11","uf2353fobs","many_one","0","indirect_first","0","Lollipop","0","18","1","1","3","1","","0","1","0","583.0000000000582","","","<img src = 'targets/mask.png' width = '100%;'>","68","neg","CS","CS","3","category3/CS1.png","targets/9.png","0","indirect","11",""
"","html-keyboard-response","138","410675","0.0-8.0-0.12","uf2353fobs","many_one","0","indirect_first","0","Lollipop","0","18","1","1","3","1","","0","1","0","null","","","<div style=""font-size:60px;"">+</div>","null","","","","","","","","","",""
"","html-keyboard-response","139","410770","0.0-8.0-1.12","uf2353fobs","many_one","0","indirect_first","0","Lollipop","0","18","1","1","3","1","","0","1","0","null","","","<img src = 'category3/CS5.png' width = '100%;'>","null","","","","","","","","","",""
"","html-keyboard-response","140","411023","0.0-8.0-2.12","uf2353fobs","many_one","0","indirect_first","0","Lollipop","0","18","1","1","3","1","","0","1","0","null","","","<img src = 'targets/29.png' width = '100%;'>","null","","","","","","","","","",""
"","html-keyboard-response","141","411258","0.0-8.0-3.12","uf2353fobs","many_one","0","indirect_first","0","Lollipop","0","18","1","1","3","1","","0","1","0","232.0000000000582","","","<img src = 'targets/mask.png' width = '100%;'>","68","neg","CS","CS","3","category3/CS5.png","targets/29.png","0","indirect","12",""
"","html-keyboard-response","142","412763","0.0-8.0-0.13","uf2353fobs","many_one","0","indirect_first","0","Lollipop","0","18","1","1","3","1","","0","1","0","null","","","<div style=""font-size:60px;"">+</div>","null","","","","","","","","","",""
"","html-keyboard-response","143","412856","0.0-8.0-1.13","uf2353fobs","many_one","0","indirect_first","0","Lollipop","0","18","1","1","3","1","","0","1","0","null","","","<img src = 'category4/CS3.png' width = '100%;'>","null","","","","","","","","","",""
"","html-keyboard-response","144","413110","0.0-8.0-2.13","uf2353fobs","many_one","0","indirect_first","0","Lollipop","0","18","1","1","3","1","","0","1","0","null","","","<img src = 'targets/6.png' width = '100%;'>","null","","","","","","","","","",""
"","html-keyboard-response","145","415132","0.0-8.0-3.13","uf2353fobs","many_one","0","indirect_first","0","Lollipop","0","18","1","1","3","1","","0","1","0","2020","","","<img src = 'targets/mask.png' width = '100%;'>","75","neg","CS","CS","4","category4/CS3.png","targets/6.png","1","indirect","13",""
"","html-keyboard-response","146","416636","0.0-8.0-0.14","uf2353fobs","many_one","0","indirect_first","0","Lollipop","0","18","1","1","3","1","","0","1","0","null","","","<div style=""font-size:60px;"">+</div>","null","","","","","","","","","",""
"","html-keyboard-response","147","416730","0.0-8.0-1.14","uf2353fobs","many_one","0","indirect_first","0","Lollipop","0","18","1","1","3","1","","0","1","0","null","","","<img src = 'category2/CS8.png' width = '100%;'>","null","","","","","","","","","",""
"","html-keyboard-response","148","416984","0.0-8.0-2.14","uf2353fobs","many_one","0","indirect_first","0","Lollipop","0","18","1","1","3","1","","0","1","0","null","","","<img src = 'targets/8.png' width = '100%;'>","null","","","","","","","","","",""
"","html-keyboard-response","149","417467","0.0-8.0-3.14","uf2353fobs","many_one","0","indirect_first","0","Lollipop","0","18","1","1","3","1","","0","1","0","481.0000000000582","","","<img src = 'targets/mask.png' width = '100%;'>","68","pos","CS","CS","2","category2/CS8.png","targets/8.png","0","indirect","14",""
"","html-keyboard-response","150","418971","0.0-8.0-0.15","uf2353fobs","many_one","0","indirect_first","0","Lollipop","0","18","1","1","3","1","","0","1","0","null","","","<div style=""font-size:60px;"">+</div>","null","","","","","","","","","",""
"","html-keyboard-response","151","419064","0.0-8.0-1.15","uf2353fobs","many_one","0","indirect_first","0","Lollipop","0","18","1","1","3","1","","0","1","0","null","","","<img src = 'category4/CS7.png' width = '100%;'>","null","","","","","","","","","",""
"","html-keyboard-response","152","419318","0.0-8.0-2.15","uf2353fobs","many_one","0","indirect_first","0","Lollipop","0","18","1","1","3","1","","0","1","0","null","","","<img src = 'targets/30.png' width = '100%;'>","null","","","","","","","","","",""
"","html-keyboard-response","153","420414","0.0-8.0-3.15","uf2353fobs","many_one","0","indirect_first","0","Lollipop","0","18","1","1","3","1","","0","1","0","1094","","","<img src = 'targets/mask.png' width = '100%;'>","68","neg","GS","GSold","4","category4/CS7.png","targets/30.png","0","indirect","15",""
"","html-keyboard-response","154","421919","0.0-8.0-0.16","uf2353fobs","many_one","0","indirect_first","0","Lollipop","0","18","1","1","3","1","","0","1","0","null","","","<div style=""font-size:60px;"">+</div>","null","","","","","","","","","",""
"","html-keyboard-response","155","422013","0.0-8.0-1.16","uf2353fobs","many_one","0","indirect_first","0","Lollipop","0","18","1","1","3","1","","0","1","0","null","","","<img src = 'category4/CS8.png' width = '100%;'>","null","","","","","","","","","",""
"","html-keyboard-response","156","422267","0.0-8.0-2.16","uf2353fobs","many_one","0","indirect_first","0","Lollipop","0","18","1","1","3","1","","0","1","0","null","","","<img src = 'targets/25.png' width = '100%;'>","null","","","","","","","","","",""
"","html-keyboard-response","157","422874","0.0-8.0-3.16","uf2353fobs","many_one","0","indirect_first","0","Lollipop","0","18","1","1","3","1","","0","1","0","605","","","<img src = 'targets/mask.png' width = '100%;'>","75","neg","CS","CS","4","category4/CS8.png","targets/25.png","1","indirect","16",""
"","html-keyboard-response","158","424379","0.0-8.0-0.17","uf2353fobs","many_one","0","indirect_first","0","Lollipop","0","18","1","1","3","1","","0","1","0","null","","","<div style=""font-size:60px;"">+</div>","null","","","","","","","","","",""
"","html-keyboard-response","159","424472","0.0-8.0-1.17","uf2353fobs","many_one","0","indirect_first","0","Lollipop","0","18","1","1","3","1","","0","1","0","null","","","<img src = 'category1/CS3.png' width = '100%;'>","null","","","","","","","","","",""
"","html-keyboard-response","160","424727","0.0-8.0-2.17","uf2353fobs","many_one","0","indirect_first","0","Lollipop","0","18","1","1","3","1","","0","1","0","null","","","<img src = 'targets/11.png' width = '100%;'>","null","","","","","","","","","",""
"","html-keyboard-response","161","424850","0.0-8.0-3.17","uf2353fobs","many_one","0","indirect_first","0","Lollipop","0","18","1","1","3","1","","0","1","0","121","","","<img src = 'targets/mask.png' width = '100%;'>","75","pos","CS","CS","1","category1/CS3.png","targets/11.png","1","indirect","17",""
"","html-keyboard-response","162","426354","0.0-8.0-0.18","uf2353fobs","many_one","0","indirect_first","0","Lollipop","0","18","1","1","3","1","","0","1","0","null","","","<div style=""font-size:60px;"">+</div>","null","","","","","","","","","",""
"","html-keyboard-response","163","426447","0.0-8.0-1.18","uf2353fobs","many_one","0","indirect_first","0","Lollipop","0","18","1","1","3","1","","0","1","0","null","","","<img src = 'category2/CS7.png' width = '100%;'>","null","","","","","","","","","",""
"","html-keyboard-response","164","426701","0.0-8.0-2.18","uf2353fobs","many_one","0","indirect_first","0","Lollipop","0","18","1","1","3","1","","0","1","0","null","","","<img src = 'targets/20.png' width = '100%;'>","null","","","","","","","","","",""
"","html-keyboard-response","165","427273","0.0-8.0-3.18","uf2353fobs","many_one","0","indirect_first","0","Lollipop","0","18","1","1","3","1","","0","1","0","570","","","<img src = 'targets/mask.png' width = '100%;'>","75","pos","CS","CS","2","category2/CS7.png","targets/20.png","1","indirect","18",""
"","html-keyboard-response","166","428779","0.0-8.0-0.19","uf2353fobs","many_one","0","indirect_first","0","Lollipop","0","18","1","1","3","1","","0","1","0","null","","","<div style=""font-size:60px;"">+</div>","null","","","","","","","","","",""
"","html-keyboard-response","167","428878","0.0-8.0-1.19","uf2353fobs","many_one","0","indirect_first","0","Lollipop","0","18","1","1","3","1","","0","1","0","null","","","<img src = 'category3/CS4.png' width = '100%;'>","null","","","","","","","","","",""
"","html-keyboard-response","168","429132","0.0-8.0-2.19","uf2353fobs","many_one","0","indirect_first","0","Lollipop","0","18","1","1","3","1","","0","1","0","null","","","<img src = 'targets/41.png' width = '100%;'>","null","","","","","","","","","",""
"","html-keyboard-response","169","429719","0.0-8.0-3.19","uf2353fobs","many_one","0","indirect_first","0","Lollipop","0","18","1","1","3","1","","0","1","0","584","","","<img src = 'targets/mask.png' width = '100%;'>","68","neg","CS","CS","3","category3/CS4.png","targets/41.png","0","indirect","19",""
"","html-keyboard-response","170","431223","0.0-8.0-0.20","uf2353fobs","many_one","0","indirect_first","0","Lollipop","0","18","1","1","3","1","","0","1","0","null","","","<div style=""font-size:60px;"">+</div>","null","","","","","","","","","",""
"","html-keyboard-response","171","431317","0.0-8.0-1.20","uf2353fobs","many_one","0","indirect_first","0","Lollipop","0","18","1","1","3","1","","0","1","0","null","","","<img src = 'category2/CS9.png' width = '100%;'>","null","","","","","","","","","",""
"","html-keyboard-response","172","431571","0.0-8.0-2.20","uf2353fobs","many_one","0","indirect_first","0","Lollipop","0","18","1","1","3","1","","0","1","0","null","","","<img src = 'targets/3.png' width = '100%;'>","null","","","","","","","","","",""
"","html-keyboard-response","173","432170","0.0-8.0-3.20","uf2353fobs","many_one","0","indirect_first","0","Lollipop","0","18","1","1","3","1","","0","1","0","596.9999999999418","","","<img src = 'targets/mask.png' width = '100%;'>","75","pos","CS","CS","2","category2/CS9.png","targets/3.png","1","indirect","20",""
"","html-keyboard-response","174","433675","0.0-8.0-0.21","uf2353fobs","many_one","0","indirect_first","0","Lollipop","0","18","1","1","3","1","","0","1","0","null","","","<div style=""font-size:60px;"">+</div>","null","","","","","","","","","",""
"","html-keyboard-response","175","433768","0.0-8.0-1.21","uf2353fobs","many_one","0","indirect_first","0","Lollipop","0","18","1","1","3","1","","0","1","0","null","","","<img src = 'category4/CS2.png' width = '100%;'>","null","","","","","","","","","",""
"","html-keyboard-response","176","434022","0.0-8.0-2.21","uf2353fobs","many_one","0","indirect_first","0","Lollipop","0","18","1","1","3","1","","0","1","0","null","","","<img src = 'targets/21.png' width = '100%;'>","null","","","","","","","","","",""
"","html-keyboard-response","177","435091","0.0-8.0-3.21","uf2353fobs","many_one","0","indirect_first","0","Lollipop","0","18","1","1","3","1","","0","1","0","1067.0000000000582","","","<img src = 'targets/mask.png' width = '100%;'>","68","neg","GS","GSold","4","category4/CS2.png","targets/21.png","0","indirect","21",""
"","html-keyboard-response","178","436596","0.0-8.0-0.22","uf2353fobs","many_one","0","indirect_first","0","Lollipop","0","18","1","1","3","1","","0","1","0","null","","","<div style=""font-size:60px;"">+</div>","null","","","","","","","","","",""
"","html-keyboard-response","179","436689","0.0-8.0-1.22","uf2353fobs","many_one","0","indirect_first","0","Lollipop","0","18","1","1","3","1","","0","1","0","null","","","<img src = 'category4/CS5.png' width = '100%;'>","null","","","","","","","","","",""
"","html-keyboard-response","180","436943","0.0-8.0-2.22","uf2353fobs","many_one","0","indirect_first","0","Lollipop","0","18","1","1","3","1","","0","1","0","null","","","<img src = 'targets/44.png' width = '100%;'>","null","","","","","","","","","",""
"","html-keyboard-response","181","437418","0.0-8.0-3.22","uf2353fobs","many_one","0","indirect_first","0","Lollipop","0","18","1","1","3","1","","0","1","0","473.0000000000582","","","<img src = 'targets/mask.png' width = '100%;'>","75","neg","CS","CS","4","category4/CS5.png","targets/44.png","1","indirect","22",""
"","html-keyboard-response","182","438923","0.0-8.0-0.23","uf2353fobs","many_one","0","indirect_first","0","Lollipop","0","18","1","1","3","1","","0","1","0","null","","","<div style=""font-size:60px;"">+</div>","null","","","","","","","","","",""
"","html-keyboard-response","183","439016","0.0-8.0-1.23","uf2353fobs","many_one","0","indirect_first","0","Lollipop","0","18","1","1","3","1","","0","1","0","null","","","<img src = 'category1/CS6.png' width = '100%;'>","null","","","","","","","","","",""
"","html-keyboard-response","184","439269","0.0-8.0-2.23","uf2353fobs","many_one","0","indirect_first","0","Lollipop","0","18","1","1","3","1","","0","1","0","null","","","<img src = 'targets/43.png' width = '100%;'>","null","","","","","","","","","",""
"","html-keyboard-response","185","440218","0.0-8.0-3.23","uf2353fobs","many_one","0","indirect_first","0","Lollipop","0","18","1","1","3","1","","0","1","0","947","","","<img src = 'targets/mask.png' width = '100%;'>","75","pos","CS","CS","1","category1/CS6.png","targets/43.png","1","indirect","23",""
"","survey-html-form","186","442573","0.0-9.0","uf2353fobs","many_one","0","indirect_first","0","Lollipop","0","18","1","1","3","1","","0","1","0","1851","","{}","","","","","","","","","","","",""
"","html-keyboard-response","187","445577","0.0-10.0-0.0","uf2353fobs","many_one","0","indirect_first","0","Lollipop","0","18","1","1","3","1","","0","1","0","null","","","<div style=""font-size:60px;"">+</div>","null","","","","","","","","","",""
"","html-keyboard-response","188","445671","0.0-10.0-1.0","uf2353fobs","many_one","0","indirect_first","0","Lollipop","0","18","1","1","3","1","","0","1","0","null","","","<img src = 'category2/CS4.png' width = '100%;'>","null","","","","","","","","","",""
"","html-keyboard-response","189","445924","0.0-10.0-2.0","uf2353fobs","many_one","0","indirect_first","0","Lollipop","0","18","1","1","3","1","","0","1","0","null","","","<img src = 'targets/34.png' width = '100%;'>","null","","","","","","","","","",""
"","html-keyboard-response","190","446442","0.0-10.0-3.0","uf2353fobs","many_one","0","indirect_first","0","Lollipop","0","18","1","1","3","1","","0","1","0","515.0000000000582","","","<img src = 'targets/mask.png' width = '100%;'>","68","pos","GS","GSold","2","category2/CS4.png","targets/34.png","0","indirect","24",""
"","html-keyboard-response","191","447947","0.0-10.0-0.1","uf2353fobs","many_one","0","indirect_first","0","Lollipop","0","18","1","1","3","1","","0","1","0","null","","","<div style=""font-size:60px;"">+</div>","null","","","","","","","","","",""
"","html-keyboard-response","192","448040","0.0-10.0-1.1","uf2353fobs","many_one","0","indirect_first","0","Lollipop","0","18","1","1","3","1","","0","1","0","null","","","<img src = 'category2/GS2.png' width = '100%;'>","null","","","","","","","","","",""
"","html-keyboard-response","193","448294","0.0-10.0-2.1","uf2353fobs","many_one","0","indirect_first","0","Lollipop","0","18","1","1","3","1","","0","1","0","null","","","<img src = 'targets/17.png' width = '100%;'>","null","","","","","","","","","",""
"","html-keyboard-response","194","450687","0.0-10.0-3.1","uf2353fobs","many_one","0","indirect_first","0","Lollipop","0","18","1","1","3","1","","0","1","0","2390","","","<img src = 'targets/mask.png' width = '100%;'>","68","pos","GS","GSnew","2","category2/GS2.png","targets/17.png","0","indirect","25",""
"","html-keyboard-response","195","452191","0.0-10.0-0.2","uf2353fobs","many_one","0","indirect_first","0","Lollipop","0","18","1","1","3","1","","0","1","0","null","","","<div style=""font-size:60px;"">+</div>","null","","","","","","","","","",""
"","html-keyboard-response","196","452285","0.0-10.0-1.2","uf2353fobs","many_one","0","indirect_first","0","Lollipop","0","18","1","1","3","1","","0","1","0","null","","","<img src = 'category2/men.png' width = '100%;'>","null","","","","","","","","","",""
"","html-keyboard-response","197","452539","0.0-10.0-2.2","uf2353fobs","many_one","0","indirect_first","0","Lollipop","0","18","1","1","3","1","","0","1","0","null","","","<img src = 'targets/37.png' width = '100%;'>","null","","","","","","","","","",""
"","html-keyboard-response","198","453989","0.0-10.0-3.2","uf2353fobs","many_one","0","indirect_first","0","Lollipop","0","18","1","1","3","1","","0","1","0","1448","","","<img src = 'targets/mask.png' width = '100%;'>","75","pos","GS","abstract","2","category2/men.png","targets/37.png","1","indirect","26",""
"","html-keyboard-response","199","455493","0.0-10.0-0.3","uf2353fobs","many_one","0","indirect_first","0","Lollipop","0","18","1","1","3","1","","0","1","0","null","","","<div style=""font-size:60px;"">+</div>","null","","","","","","","","","",""
"","html-keyboard-response","200","455586","0.0-10.0-1.3","uf2353fobs","many_one","0","indirect_first","0","Lollipop","0","18","1","1","3","1","","0","1","0","null","","","<img src = 'category3/CS7.png' width = '100%;'>","null","","","","","","","","","",""
"","html-keyboard-response","201","455840","0.0-10.0-2.3","uf2353fobs","many_one","0","indirect_first","0","Lollipop","0","18","1","1","3","1","","0","1","0","null","","","<img src = 'targets/4.png' width = '100%;'>","null","","","","","","","","","",""
"","html-keyboard-response","202","456444","0.0-10.0-3.3","uf2353fobs","many_one","0","indirect_first","0","Lollipop","0","18","1","1","3","1","","0","1","0","602","","","<img src = 'targets/mask.png' width = '100%;'>","68","neg","GS","GSold","3","category3/CS7.png","targets/4.png","0","indirect","27",""
"","html-keyboard-response","203","457948","0.0-10.0-0.4","uf2353fobs","many_one","0","indirect_first","0","Lollipop","0","18","1","1","3","1","","0","1","0","null","","","<div style=""font-size:60px;"">+</div>","null","","","","","","","","","",""
"","html-keyboard-response","204","458043","0.0-10.0-1.4","uf2353fobs","many_one","0","indirect_first","0","Lollipop","0","18","1","1","3","1","","0","1","0","null","","","<img src = 'category3/wang.png' width = '100%;'>","null","","","","","","","","","",""
"","html-keyboard-response","205","458297","0.0-10.0-2.4","uf2353fobs","many_one","0","indirect_first","0","Lollipop","0","18","1","1","3","1","","0","1","0","null","","","<img src = 'targets/19.png' width = '100%;'>","null","","","","","","","","","",""
"","html-keyboard-response","206","458462","0.0-10.0-3.4","uf2353fobs","many_one","0","indirect_first","0","Lollipop","0","18","1","1","3","1","","0","1","0","163","","","<img src = 'targets/mask.png' width = '100%;'>","68","neg","GS","abstract","3","category3/wang.png","targets/19.png","0","indirect","28",""
"","html-keyboard-response","207","459967","0.0-10.0-0.5","uf2353fobs","many_one","0","indirect_first","0","Lollipop","0","18","1","1","3","1","","0","1","0","null","","","<div style=""font-size:60px;"">+</div>","null","","","","","","","","","",""
"","html-keyboard-response","208","460060","0.0-10.0-1.5","uf2353fobs","many_one","0","indirect_first","0","Lollipop","0","18","1","1","3","1","","0","1","0","null","","","<img src = 'category1/GS2.png' width = '100%;'>","null","","","","","","","","","",""
"","html-keyboard-response","209","460317","0.0-10.0-2.5","uf2353fobs","many_one","0","indirect_first","0","Lollipop","0","18","1","1","3","1","","0","1","0","null","","","<img src = 'targets/5.png' width = '100%;'>","null","","","","","","","","","",""
"","html-keyboard-response","210","461122","0.0-10.0-3.5","uf2353fobs","many_one","0","indirect_first","0","Lollipop","0","18","1","1","3","1","","0","1","0","802.9999999999418","","","<img src = 'targets/mask.png' width = '100%;'>","75","pos","GS","GSnew","1","category1/GS2.png","targets/5.png","1","indirect","29",""
"","html-keyboard-response","211","462628","0.0-10.0-0.6","uf2353fobs","many_one","0","indirect_first","0","Lollipop","0","18","1","1","3","1","","0","1","0","null","","","<div style=""font-size:60px;"">+</div>","null","","","","","","","","","",""
"","html-keyboard-response","212","462722","0.0-10.0-1.6","uf2353fobs","many_one","0","indirect_first","0","Lollipop","0","18","1","1","3","1","","0","1","0","null","","","<img src = 'category4/GS1.png' width = '100%;'>","null","","","","","","","","","",""
"","html-keyboard-response","213","462976","0.0-10.0-2.6","uf2353fobs","many_one","0","indirect_first","0","Lollipop","0","18","1","1","3","1","","0","1","0","null","","","<img src = 'targets/12.png' width = '100%;'>","null","","","","","","","","","",""
"","html-keyboard-response","214","463955","0.0-10.0-3.6","uf2353fobs","many_one","0","indirect_first","0","Lollipop","0","18","1","1","3","1","","0","1","0","974.9999999998836","","","<img src = 'targets/mask.png' width = '100%;'>","75","neg","GS","GSnew","4","category4/GS1.png","targets/12.png","1","indirect","30",""
"","html-keyboard-response","215","465460","0.0-10.0-0.7","uf2353fobs","many_one","0","indirect_first","0","Lollipop","0","18","1","1","3","1","","0","1","0","null","","","<div style=""font-size:60px;"">+</div>","null","","","","","","","","","",""
"","html-keyboard-response","216","465552","0.0-10.0-1.7","uf2353fobs","many_one","0","indirect_first","0","Lollipop","0","18","1","1","3","1","","0","1","0","null","","","<img src = 'category4/GS3.png' width = '100%;'>","null","","","","","","","","","",""
"","html-keyboard-response","217","465806","0.0-10.0-2.7","uf2353fobs","many_one","0","indirect_first","0","Lollipop","0","18","1","1","3","1","","0","1","0","null","","","<img src = 'targets/33.png' width = '100%;'>","null","","","","","","","","","",""
"","html-keyboard-response","218","466651","0.0-10.0-3.7","uf2353fobs","many_one","0","indirect_first","0","Lollipop","0","18","1","1","3","1","","0","1","0","842","","","<img src = 'targets/mask.png' width = '100%;'>","75","neg","GS","GSnew","4","category4/GS3.png","targets/33.png","1","indirect","31",""
"","html-keyboard-response","219","468156","0.0-10.0-0.8","uf2353fobs","many_one","0","indirect_first","0","Lollipop","0","18","1","1","3","1","","0","1","0","null","","","<div style=""font-size:60px;"">+</div>","null","","","","","","","","","",""
"","html-keyboard-response","220","468250","0.0-10.0-1.8","uf2353fobs","many_one","0","indirect_first","0","Lollipop","0","18","1","1","3","1","","0","1","0","null","","","<img src = 'category3/CS6.png' width = '100%;'>","null","","","","","","","","","",""
"","html-keyboard-response","221","468504","0.0-10.0-2.8","uf2353fobs","many_one","0","indirect_first","0","Lollipop","0","18","1","1","3","1","","0","1","0","null","","","<img src = 'targets/2.png' width = '100%;'>","null","","","","","","","","","",""
"","html-keyboard-response","222","468767","0.0-10.0-3.8","uf2353fobs","many_one","0","indirect_first","0","Lollipop","0","18","1","1","3","1","","0","1","0","261.0000000000582","","","<img src = 'targets/mask.png' width = '100%;'>","68","neg","GS","GSold","3","category3/CS6.png","targets/2.png","0","indirect","32",""
"","html-keyboard-response","223","470271","0.0-10.0-0.9","uf2353fobs","many_one","0","indirect_first","0","Lollipop","0","18","1","1","3","1","","0","1","0","null","","","<div style=""font-size:60px;"">+</div>","null","","","","","","","","","",""
"","html-keyboard-response","224","470364","0.0-10.0-1.9","uf2353fobs","many_one","0","indirect_first","0","Lollipop","0","18","1","1","3","1","","0","1","0","null","","","<img src = 'category4/lin.png' width = '100%;'>","null","","","","","","","","","",""
"","html-keyboard-response","225","470622","0.0-10.0-2.9","uf2353fobs","many_one","0","indirect_first","0","Lollipop","0","18","1","1","3","1","","0","1","0","null","","","<img src = 'targets/38.png' width = '100%;'>","null","","","","","","","","","",""
"","html-keyboard-response","226","472351","0.0-10.0-3.9","uf2353fobs","many_one","0","indirect_first","0","Lollipop","0","18","1","1","3","1","","0","1","0","1727","","","<img src = 'targets/mask.png' width = '100%;'>","68","neg","GS","abstract","4","category4/lin.png","targets/38.png","0","indirect","33",""
"","html-keyboard-response","227","473856","0.0-10.0-0.10","uf2353fobs","many_one","0","indirect_first","0","Lollipop","0","18","1","1","3","1","","0","1","0","null","","","<div style=""font-size:60px;"">+</div>","null","","","","","","","","","",""
"","html-keyboard-response","228","473950","0.0-10.0-1.10","uf2353fobs","many_one","0","indirect_first","0","Lollipop","0","18","1","1","3","1","","0","1","0","null","","","<img src = 'category3/GS2.png' width = '100%;'>","null","","","","","","","","","",""
"","html-keyboard-response","229","474203","0.0-10.0-2.10","uf2353fobs","many_one","0","indirect_first","0","Lollipop","0","18","1","1","3","1","","0","1","0","null","","","<img src = 'targets/7.png' width = '100%;'>","null","","","","","","","","","",""
"","html-keyboard-response","230","475195","0.0-10.0-3.10","uf2353fobs","many_one","0","indirect_first","0","Lollipop","0","18","1","1","3","1","","0","1","0","987","","","<img src = 'targets/mask.png' width = '100%;'>","75","neg","GS","GSnew","3","category3/GS2.png","targets/7.png","1","indirect","34",""
"","html-keyboard-response","231","476700","0.0-10.0-0.11","uf2353fobs","many_one","0","indirect_first","0","Lollipop","0","18","1","1","3","1","","0","1","0","null","","","<div style=""font-size:60px;"">+</div>","null","","","","","","","","","",""
"","html-keyboard-response","232","476794","0.0-10.0-1.11","uf2353fobs","many_one","0","indirect_first","0","Lollipop","0","18","1","1","3","1","","0","1","0","null","","","<img src = 'category1/ma.png' width = '100%;'>","null","","","","","","","","","",""
"","html-keyboard-response","233","477048","0.0-10.0-2.11","uf2353fobs","many_one","0","indirect_first","0","Lollipop","0","18","1","1","3","1","","0","1","0","null","","","<img src = 'targets/39.png' width = '100%;'>","null","","","","","","","","","",""
"","html-keyboard-response","234","477917","0.0-10.0-3.11","uf2353fobs","many_one","0","indirect_first","0","Lollipop","0","18","1","1","3","1","","0","1","0","868","","","<img src = 'targets/mask.png' width = '100%;'>","68","pos","GS","abstract","1","category1/ma.png","targets/39.png","0","indirect","35",""
"","html-keyboard-response","235","479422","0.0-10.0-0.12","uf2353fobs","many_one","0","indirect_first","0","Lollipop","0","18","1","1","3","1","","0","1","0","null","","","<div style=""font-size:60px;"">+</div>","null","","","","","","","","","",""
"","html-keyboard-response","236","479516","0.0-10.0-1.12","uf2353fobs","many_one","0","indirect_first","0","Lollipop","0","18","1","1","3","1","","0","1","0","null","","","<img src = 'category1/GS1.png' width = '100%;'>","null","","","","","","","","","",""
"","html-keyboard-response","237","479770","0.0-10.0-2.12","uf2353fobs","many_one","0","indirect_first","0","Lollipop","0","18","1","1","3","1","","0","1","0","null","","","<img src = 'targets/35.png' width = '100%;'>","null","","","","","","","","","",""
"","html-keyboard-response","238","480288","0.0-10.0-3.12","uf2353fobs","many_one","0","indirect_first","0","Lollipop","0","18","1","1","3","1","","0","1","0","516","","","<img src = 'targets/mask.png' width = '100%;'>","68","pos","GS","GSnew","1","category1/GS1.png","targets/35.png","0","indirect","36",""
"","html-keyboard-response","239","481792","0.0-10.0-0.13","uf2353fobs","many_one","0","indirect_first","0","Lollipop","0","18","1","1","3","1","","0","1","0","null","","","<div style=""font-size:60px;"">+</div>","null","","","","","","","","","",""
"","html-keyboard-response","240","481886","0.0-10.0-1.13","uf2353fobs","many_one","0","indirect_first","0","Lollipop","0","18","1","1","3","1","","0","1","0","null","","","<img src = 'category2/GS1.png' width = '100%;'>","null","","","","","","","","","",""
"","html-keyboard-response","241","482139","0.0-10.0-2.13","uf2353fobs","many_one","0","indirect_first","0","Lollipop","0","18","1","1","3","1","","0","1","0","null","","","<img src = 'targets/48.png' width = '100%;'>","null","","","","","","","","","",""
"","html-keyboard-response","242","482658","0.0-10.0-3.13","uf2353fobs","many_one","0","indirect_first","0","Lollipop","0","18","1","1","3","1","","0","1","0","517","","","<img src = 'targets/mask.png' width = '100%;'>","75","pos","GS","GSnew","2","category2/GS1.png","targets/48.png","1","indirect","37",""
"","html-keyboard-response","243","484163","0.0-10.0-0.14","uf2353fobs","many_one","0","indirect_first","0","Lollipop","0","18","1","1","3","1","","0","1","0","null","","","<div style=""font-size:60px;"">+</div>","null","","","","","","","","","",""
"","html-keyboard-response","244","484256","0.0-10.0-1.14","uf2353fobs","many_one","0","indirect_first","0","Lollipop","0","18","1","1","3","1","","0","1","0","null","","","<img src = 'category2/CS2.png' width = '100%;'>","null","","","","","","","","","",""
"","html-keyboard-response","245","484509","0.0-10.0-2.14","uf2353fobs","many_one","0","indirect_first","0","Lollipop","0","18","1","1","3","1","","0","1","0","null","","","<img src = 'targets/22.png' width = '100%;'>","null","","","","","","","","","",""
"","html-keyboard-response","246","485123","0.0-10.0-3.14","uf2353fobs","many_one","0","indirect_first","0","Lollipop","0","18","1","1","3","1","","0","1","0","612","","","<img src = 'targets/mask.png' width = '100%;'>","68","pos","GS","GSold","2","category2/CS2.png","targets/22.png","0","indirect","38",""
"","html-keyboard-response","247","486627","0.0-10.0-0.15","uf2353fobs","many_one","0","indirect_first","0","Lollipop","0","18","1","1","3","1","","0","1","0","null","","","<div style=""font-size:60px;"">+</div>","null","","","","","","","","","",""
"","html-keyboard-response","248","486726","0.0-10.0-1.15","uf2353fobs","many_one","0","indirect_first","0","Lollipop","0","18","1","1","3","1","","0","1","0","null","","","<img src = 'category3/GS1.png' width = '100%;'>","null","","","","","","","","","",""
"","html-keyboard-response","249","486980","0.0-10.0-2.15","uf2353fobs","many_one","0","indirect_first","0","Lollipop","0","18","1","1","3","1","","0","1","0","null","","","<img src = 'targets/14.png' width = '100%;'>","null","","","","","","","","","",""
"","html-keyboard-response","250","487345","0.0-10.0-3.15","uf2353fobs","many_one","0","indirect_first","0","Lollipop","0","18","1","1","3","1","","0","1","0","361.9999999998836","","","<img src = 'targets/mask.png' width = '100%;'>","68","neg","GS","GSnew","3","category3/GS1.png","targets/14.png","0","indirect","39",""
"","html-keyboard-response","251","488850","0.0-10.0-0.16","uf2353fobs","many_one","0","indirect_first","0","Lollipop","0","18","1","1","3","1","","0","1","0","null","","","<div style=""font-size:60px;"">+</div>","null","","","","","","","","","",""
"","html-keyboard-response","252","488944","0.0-10.0-1.16","uf2353fobs","many_one","0","indirect_first","0","Lollipop","0","18","1","1","3","1","","0","1","0","null","","","<img src = 'category1/GS3.png' width = '100%;'>","null","","","","","","","","","",""
"","html-keyboard-response","253","489198","0.0-10.0-2.16","uf2353fobs","many_one","0","indirect_first","0","Lollipop","0","18","1","1","3","1","","0","1","0","null","","","<img src = 'targets/46.png' width = '100%;'>","null","","","","","","","","","",""
"","html-keyboard-response","254","489622","0.0-10.0-3.16","uf2353fobs","many_one","0","indirect_first","0","Lollipop","0","18","1","1","3","1","","0","1","0","422","","","<img src = 'targets/mask.png' width = '100%;'>","75","pos","GS","GSnew","1","category1/GS3.png","targets/46.png","1","indirect","40",""
"","html-keyboard-response","255","491127","0.0-10.0-0.17","uf2353fobs","many_one","0","indirect_first","0","Lollipop","0","18","1","1","3","1","","0","1","0","null","","","<div style=""font-size:60px;"">+</div>","null","","","","","","","","","",""
"","html-keyboard-response","256","491221","0.0-10.0-1.17","uf2353fobs","many_one","0","indirect_first","0","Lollipop","0","18","1","1","3","1","","0","1","0","null","","","<img src = 'category2/CS5.png' width = '100%;'>","null","","","","","","","","","",""
"","html-keyboard-response","257","491475","0.0-10.0-2.17","uf2353fobs","many_one","0","indirect_first","0","Lollipop","0","18","1","1","3","1","","0","1","0","null","","","<img src = 'targets/40.png' width = '100%;'>","null","","","","","","","","","",""
"","html-keyboard-response","258","491728","0.0-10.0-3.17","uf2353fobs","many_one","0","indirect_first","0","Lollipop","0","18","1","1","3","1","","0","1","0","252","","","<img src = 'targets/mask.png' width = '100%;'>","75","pos","GS","GSold","2","category2/CS5.png","targets/40.png","1","indirect","41",""
"","html-keyboard-response","259","493233","0.0-10.0-0.18","uf2353fobs","many_one","0","indirect_first","0","Lollipop","0","18","1","1","3","1","","0","1","0","null","","","<div style=""font-size:60px;"">+</div>","null","","","","","","","","","",""
"","html-keyboard-response","260","493326","0.0-10.0-1.18","uf2353fobs","many_one","0","indirect_first","0","Lollipop","0","18","1","1","3","1","","0","1","0","null","","","<img src = 'category1/CS8.png' width = '100%;'>","null","","","","","","","","","",""
"","html-keyboard-response","261","493580","0.0-10.0-2.18","uf2353fobs","many_one","0","indirect_first","0","Lollipop","0","18","1","1","3","1","","0","1","0","null","","","<img src = 'targets/31.png' width = '100%;'>","null","","","","","","","","","",""
"","html-keyboard-response","262","494116","0.0-10.0-3.18","uf2353fobs","many_one","0","indirect_first","0","Lollipop","0","18","1","1","3","1","","0","1","0","534","","","<img src = 'targets/mask.png' width = '100%;'>","75","pos","GS","GSold","1","category1/CS8.png","targets/31.png","1","indirect","42",""
"","html-keyboard-response","263","495621","0.0-10.0-0.19","uf2353fobs","many_one","0","indirect_first","0","Lollipop","0","18","1","1","3","1","","0","1","0","null","","","<div style=""font-size:60px;"">+</div>","null","","","","","","","","","",""
"","html-keyboard-response","264","495714","0.0-10.0-1.19","uf2353fobs","many_one","0","indirect_first","0","Lollipop","0","18","1","1","3","1","","0","1","0","null","","","<img src = 'category3/CS3.png' width = '100%;'>","null","","","","","","","","","",""
"","html-keyboard-response","265","495969","0.0-10.0-2.19","uf2353fobs","many_one","0","indirect_first","0","Lollipop","0","18","1","1","3","1","","0","1","0","null","","","<img src = 'targets/13.png' width = '100%;'>","null","","","","","","","","","",""
"","html-keyboard-response","266","496481","0.0-10.0-3.19","uf2353fobs","many_one","0","indirect_first","0","Lollipop","0","18","1","1","3","1","","0","1","0","510","","","<img src = 'targets/mask.png' width = '100%;'>","68","neg","GS","GSold","3","category3/CS3.png","targets/13.png","0","indirect","43",""
"","html-keyboard-response","267","497986","0.0-10.0-0.20","uf2353fobs","many_one","0","indirect_first","0","Lollipop","0","18","1","1","3","1","","0","1","0","null","","","<div style=""font-size:60px;"">+</div>","null","","","","","","","","","",""
"","html-keyboard-response","268","498078","0.0-10.0-1.20","uf2353fobs","many_one","0","indirect_first","0","Lollipop","0","18","1","1","3","1","","0","1","0","null","","","<img src = 'category4/GS2.png' width = '100%;'>","null","","","","","","","","","",""
"","html-keyboard-response","269","498332","0.0-10.0-2.20","uf2353fobs","many_one","0","indirect_first","0","Lollipop","0","18","1","1","3","1","","0","1","0","null","","","<img src = 'targets/18.png' width = '100%;'>","null","","","","","","","","","",""
"","html-keyboard-response","270","498777","0.0-10.0-3.20","uf2353fobs","many_one","0","indirect_first","0","Lollipop","0","18","1","1","3","1","","0","1","0","443","","","<img src = 'targets/mask.png' width = '100%;'>","75","neg","GS","GSnew","4","category4/GS2.png","targets/18.png","1","indirect","44",""
"","html-keyboard-response","271","500282","0.0-10.0-0.21","uf2353fobs","many_one","0","indirect_first","0","Lollipop","0","18","1","1","3","1","","0","1","0","null","","","<div style=""font-size:60px;"">+</div>","null","","","","","","","","","",""
"","html-keyboard-response","272","500382","0.0-10.0-1.21","uf2353fobs","many_one","0","indirect_first","0","Lollipop","0","18","1","1","3","1","","0","1","0","null","","","<img src = 'category3/GS3.png' width = '100%;'>","null","","","","","","","","","",""
"","html-keyboard-response","273","500637","0.0-10.0-2.21","uf2353fobs","many_one","0","indirect_first","0","Lollipop","0","18","1","1","3","1","","0","1","0","null","","","<img src = 'targets/32.png' width = '100%;'>","null","","","","","","","","","",""
"","html-keyboard-response","274","501170","0.0-10.0-3.21","uf2353fobs","many_one","0","indirect_first","0","Lollipop","0","18","1","1","3","1","","0","1","0","531","","","<img src = 'targets/mask.png' width = '100%;'>","68","neg","GS","GSnew","3","category3/GS3.png","targets/32.png","0","indirect","45",""
"","html-keyboard-response","275","502675","0.0-10.0-0.22","uf2353fobs","many_one","0","indirect_first","0","Lollipop","0","18","1","1","3","1","","0","1","0","null","","","<div style=""font-size:60px;"">+</div>","null","","","","","","","","","",""
"","html-keyboard-response","276","502768","0.0-10.0-1.22","uf2353fobs","many_one","0","indirect_first","0","Lollipop","0","18","1","1","3","1","","0","1","0","null","","","<img src = 'category2/GS3.png' width = '100%;'>","null","","","","","","","","","",""
"","html-keyboard-response","277","503022","0.0-10.0-2.22","uf2353fobs","many_one","0","indirect_first","0","Lollipop","0","18","1","1","3","1","","0","1","0","null","","","<img src = 'targets/42.png' width = '100%;'>","null","","","","","","","","","",""
"","html-keyboard-response","278","503318","0.0-10.0-3.22","uf2353fobs","many_one","0","indirect_first","0","Lollipop","0","18","1","1","3","1","","0","1","0","293","","","<img src = 'targets/mask.png' width = '100%;'>","75","pos","GS","GSnew","2","category2/GS3.png","targets/42.png","1","indirect","46",""
"","html-keyboard-response","279","504823","0.0-10.0-0.23","uf2353fobs","many_one","0","indirect_first","0","Lollipop","0","18","1","1","3","1","","0","1","0","null","","","<div style=""font-size:60px;"">+</div>","null","","","","","","","","","",""
"","html-keyboard-response","280","504916","0.0-10.0-1.23","uf2353fobs","many_one","0","indirect_first","0","Lollipop","0","18","1","1","3","1","","0","1","0","null","","","<img src = 'category1/CS9.png' width = '100%;'>","null","","","","","","","","","",""
"","html-keyboard-response","281","505169","0.0-10.0-2.23","uf2353fobs","many_one","0","indirect_first","0","Lollipop","0","18","1","1","3","1","","0","1","0","null","","","<img src = 'targets/15.png' width = '100%;'>","null","","","","","","","","","",""
"","html-keyboard-response","282","505632","0.0-10.0-3.23","uf2353fobs","many_one","0","indirect_first","0","Lollipop","0","18","1","1","3","1","","0","1","0","461","","","<img src = 'targets/mask.png' width = '100%;'>","75","pos","GS","GSold","1","category1/CS9.png","targets/15.png","1","indirect","47",""
"","survey-html-form","283","510792","0.0-11.0","uf2353fobs","many_one","0","indirect_first","0","Lollipop","0","18","1","1","3","1","","0","1","0","4655.999999999884","","{}","","","","","","","","","","","",""
"","image-slider-response","284","517682","0.0-12.0-0.0","uf2353fobs","many_one","0","indirect_first","0","Lollipop","0","18","1","1","3","1","","0","1","0","4884","","","","","neg","GS","abstract","4","category4/lin.png","targets/38.png","","direct","","83"
"","image-slider-response","285","520846","0.0-12.0-0.1","uf2353fobs","many_one","0","indirect_first","0","Lollipop","0","18","1","1","3","1","","0","1","0","3163","","","","","pos","GS","GSnew","1","category1/GS3.png","targets/46.png","","direct","","44"
"","image-slider-response","286","524428","0.0-12.0-0.2","uf2353fobs","many_one","0","indirect_first","0","Lollipop","0","18","1","1","3","1","","0","1","0","3575","","","","","pos","GS","GSnew","1","category1/GS1.png","targets/35.png","","direct","","28"
"","image-slider-response","287","527738","0.0-12.0-0.3","uf2353fobs","many_one","0","indirect_first","0","Lollipop","0","18","1","1","3","1","","0","1","0","3306","","","","","pos","GS","GSold","2","category2/CS5.png","targets/40.png","","direct","","20"
"","image-slider-response","288","530037","0.0-12.0-0.4","uf2353fobs","many_one","0","indirect_first","0","Lollipop","0","18","1","1","3","1","","0","1","0","2298","","","","","neg","GS","GSold","3","category3/CS7.png","targets/4.png","","direct","","25"
"","image-slider-response","289","532637","0.0-12.0-0.5","uf2353fobs","many_one","0","indirect_first","0","Lollipop","0","18","1","1","3","1","","0","1","0","2596","","","","","pos","CS","CS","2","category2/CS1.png","targets/45.png","","direct","","-49"
"","image-slider-response","290","538444","0.0-12.0-0.6","uf2353fobs","many_one","0","indirect_first","0","Lollipop","0","18","1","1","3","1","","0","1","0","5805","","","","","pos","CS","CS","1","category1/CS6.png","targets/43.png","","direct","","100"
"","image-slider-response","291","542313","0.0-12.0-0.7","uf2353fobs","many_one","0","indirect_first","0","Lollipop","0","18","1","1","3","1","","0","1","0","3866","","","","","neg","GS","GSold","4","category4/CS7.png","targets/30.png","","direct","","-36"
"","image-slider-response","292","545064","0.0-12.0-0.8","uf2353fobs","many_one","0","indirect_first","0","Lollipop","0","18","1","1","3","1","","0","1","0","2748","","","","","pos","GS","GSold","2","category2/CS4.png","targets/34.png","","direct","","16"
"","image-slider-response","293","548114","0.0-12.0-0.9","uf2353fobs","many_one","0","indirect_first","0","Lollipop","0","18","1","1","3","1","","0","1","0","3046","","","","","neg","GS","GSold","4","category4/CS2.png","targets/21.png","","direct","","-35"
"","image-slider-response","294","551134","0.0-12.0-0.10","uf2353fobs","many_one","0","indirect_first","0","Lollipop","0","18","1","1","3","1","","0","1","0","3015","","","","","pos","GS","abstract","1","category1/ma.png","targets/39.png","","direct","","-88"
"","image-slider-response","295","553587","0.0-12.0-0.11","uf2353fobs","many_one","0","indirect_first","0","Lollipop","0","18","1","1","3","1","","0","1","0","2450.0000000001164","","","","","neg","GS","GSold","3","category3/CS6.png","targets/2.png","","direct","","53"
"","image-slider-response","296","556089","0.0-12.0-0.12","uf2353fobs","many_one","0","indirect_first","0","Lollipop","0","18","1","1","3","1","","0","1","0","2499","","","","","neg","GS","GSnew","3","category3/GS3.png","targets/32.png","","direct","","9"
"","image-slider-response","297","559249","0.0-12.0-0.13","uf2353fobs","many_one","0","indirect_first","0","Lollipop","0","18","1","1","3","1","","0","1","0","3152","","","","","pos","GS","GSnew","1","category1/GS2.png","targets/5.png","","direct","","-29"
"","image-slider-response","298","562492","0.0-12.0-0.14","uf2353fobs","many_one","0","indirect_first","0","Lollipop","0","18","1","1","3","1","","0","1","0","3240","","","","","neg","GS","GSnew","3","category3/GS1.png","targets/14.png","","direct","","35"
"","image-slider-response","299","565387","0.0-12.0-0.15","uf2353fobs","many_one","0","indirect_first","0","Lollipop","0","18","1","1","3","1","","0","1","0","2888","","","","","pos","CS","CS","2","category2/CS9.png","targets/3.png","","direct","","-42"
"","image-slider-response","300","567308","0.0-12.0-0.16","uf2353fobs","many_one","0","indirect_first","0","Lollipop","0","18","1","1","3","1","","0","1","0","1919","","","","","pos","GS","GSold","1","category1/CS8.png","targets/31.png","","direct","","30"
"","image-slider-response","301","569910","0.0-12.0-0.17","uf2353fobs","many_one","0","indirect_first","0","Lollipop","0","18","1","1","3","1","","0","1","0","2600","","","","","pos","GS","GSnew","2","category2/GS2.png","targets/17.png","","direct","","-27"
"","image-slider-response","302","572033","0.0-12.0-0.18","uf2353fobs","many_one","0","indirect_first","0","Lollipop","0","18","1","1","3","1","","0","1","0","2121.0000000001164","","","","","neg","CS","CS","4","category4/CS4.png","targets/47.png","","direct","","20"
"","image-slider-response","303","574439","0.0-12.0-0.19","uf2353fobs","many_one","0","indirect_first","0","Lollipop","0","18","1","1","3","1","","0","1","0","2404","","","","","pos","GS","GSnew","2","category2/GS3.png","targets/42.png","","direct","","19"
"","image-slider-response","304","577234","0.0-12.0-0.20","uf2353fobs","many_one","0","indirect_first","0","Lollipop","0","18","1","1","3","1","","0","1","0","2791","","","","","neg","CS","CS","3","category3/CS1.png","targets/9.png","","direct","","31"
"","image-slider-response","305","581464","0.0-12.0-0.21","uf2353fobs","many_one","0","indirect_first","0","Lollipop","0","18","1","1","3","1","","0","1","0","4227","","","","","neg","GS","GSold","4","category4/CS10.png","targets/36.png","","direct","","48"
"","image-slider-response","306","586947","0.0-12.0-0.22","uf2353fobs","many_one","0","indirect_first","0","Lollipop","0","18","1","1","3","1","","0","1","0","5482","","","","","pos","GS","GSold","1","category1/CS4.png","targets/23.png","","direct","","50"
"","image-slider-response","307","590081","0.0-12.0-0.23","uf2353fobs","many_one","0","indirect_first","0","Lollipop","0","18","1","1","3","1","","0","1","0","3129.0000000001164","","","","","neg","CS","CS","3","category3/CS8.png","targets/28.png","","direct","","-73"
"","image-slider-response","308","592550","0.0-12.0-0.24","uf2353fobs","many_one","0","indirect_first","0","Lollipop","0","18","1","1","3","1","","0","1","0","2466","","","","","neg","CS","CS","3","category3/CS5.png","targets/29.png","","direct","","-61"
"","image-slider-response","309","596247","0.0-12.0-0.25","uf2353fobs","many_one","0","indirect_first","0","Lollipop","0","18","1","1","3","1","","0","1","0","3696","","","","","neg","CS","CS","4","category4/CS3.png","targets/6.png","","direct","","48"
"","image-slider-response","310","599189","0.0-12.0-0.26","uf2353fobs","many_one","0","indirect_first","0","Lollipop","0","18","1","1","3","1","","0","1","0","2939.9999999998836","","","","","pos","GS","GSold","2","category2/CS2.png","targets/22.png","","direct","","49"
"","image-slider-response","311","602083","0.0-12.0-0.27","uf2353fobs","many_one","0","indirect_first","0","Lollipop","0","18","1","1","3","1","","0","1","0","2893","","","","","pos","CS","CS","1","category1/CS5.png","targets/27.png","","direct","","38"
"","image-slider-response","312","604843","0.0-12.0-0.28","uf2353fobs","many_one","0","indirect_first","0","Lollipop","0","18","1","1","3","1","","0","1","0","2756","","","","","neg","CS","CS","4","category4/CS8.png","targets/25.png","","direct","","43"
"","image-slider-response","313","608038","0.0-12.0-0.29","uf2353fobs","many_one","0","indirect_first","0","Lollipop","0","18","1","1","3","1","","0","1","0","3190","","","","","neg","CS","CS","3","category3/CS10.png","targets/26.png","","direct","","-69"
"","image-slider-response","314","610341","0.0-12.0-0.30","uf2353fobs","many_one","0","indirect_first","0","Lollipop","0","18","1","1","3","1","","0","1","0","2297","","","","","neg","GS","abstract","3","category3/wang.png","targets/19.png","","direct","","-60"
"","image-slider-response","315","614330","0.0-12.0-0.31","uf2353fobs","many_one","0","indirect_first","0","Lollipop","0","18","1","1","3","1","","0","1","0","3986","","","","","neg","CS","CS","4","category4/CS9.png","targets/16.png","","direct","","-75"
"","image-slider-response","316","616586","0.0-12.0-0.32","uf2353fobs","many_one","0","indirect_first","0","Lollipop","0","18","1","1","3","1","","0","1","0","2252","","","","","pos","GS","GSnew","2","category2/GS1.png","targets/48.png","","direct","","31"
"","image-slider-response","317","619122","0.0-12.0-0.33","uf2353fobs","many_one","0","indirect_first","0","Lollipop","0","18","1","1","3","1","","0","1","0","2533","","","","","neg","GS","GSnew","3","category3/GS2.png","targets/7.png","","direct","","-27"
"","image-slider-response","318","622577","0.0-12.0-0.34","uf2353fobs","many_one","0","indirect_first","0","Lollipop","0","18","1","1","3","1","","0","1","0","3453","","","","","neg","CS","CS","4","category4/CS5.png","targets/44.png","","direct","","-55"
"","image-slider-response","319","625243","0.0-12.0-0.35","uf2353fobs","many_one","0","indirect_first","0","Lollipop","0","18","1","1","3","1","","0","1","0","2662","","","","","neg","GS","GSnew","4","category4/GS1.png","targets/12.png","","direct","","43"
"","image-slider-response","320","627261","0.0-12.0-0.36","uf2353fobs","many_one","0","indirect_first","0","Lollipop","0","18","1","1","3","1","","0","1","0","2014","","","","","neg","GS","GSold","3","category3/CS3.png","targets/13.png","","direct","","46"
"","image-slider-response","321","629586","0.0-12.0-0.37","uf2353fobs","many_one","0","indirect_first","0","Lollipop","0","18","1","1","3","1","","0","1","0","2322","","","","","neg","GS","GSnew","4","category4/GS3.png","targets/33.png","","direct","","-65"
"","image-slider-response","322","633409","0.0-12.0-0.38","uf2353fobs","many_one","0","indirect_first","0","Lollipop","0","18","1","1","3","1","","0","1","0","3820","","","","","pos","GS","GSold","1","category1/CS9.png","targets/15.png","","direct","","60"
"","image-slider-response","323","636910","0.0-12.0-0.39","uf2353fobs","many_one","0","indirect_first","0","Lollipop","0","18","1","1","3","1","","0","1","0","3498","","","","","pos","CS","CS","2","category2/CS8.png","targets/8.png","","direct","","-52"
"","image-slider-response","324","639721","0.0-12.0-0.40","uf2353fobs","many_one","0","indirect_first","0","Lollipop","0","18","1","1","3","1","","0","1","0","2807","","","","","pos","GS","abstract","2","category2/men.png","targets/37.png","","direct","","100"
"","image-slider-response","325","642370","0.0-12.0-0.41","uf2353fobs","many_one","0","indirect_first","0","Lollipop","0","18","1","1","3","1","","0","1","0","2645","","","","","neg","CS","CS","3","category3/CS4.png","targets/41.png","","direct","","19"
"","image-slider-response","326","644788","0.0-12.0-0.42","uf2353fobs","many_one","0","indirect_first","0","Lollipop","0","18","1","1","3","1","","0","1","0","2414.9999999998836","","","","","pos","CS","CS","2","category2/CS6.png","targets/1.png","","direct","","9"
"","image-slider-response","327","646478","0.0-12.0-0.43","uf2353fobs","many_one","0","indirect_first","0","Lollipop","0","18","1","1","3","1","","0","1","0","1685.0000000001164","","","","","pos","CS","CS","1","category1/CS7.png","targets/10.png","","direct","","-26"
"","image-slider-response","328","649292","0.0-12.0-0.44","uf2353fobs","many_one","0","indirect_first","0","Lollipop","0","18","1","1","3","1","","0","1","0","2810","","","","","pos","CS","CS","1","category1/CS10.png","targets/24.png","","direct","","-31"
