"success","trial_type","trial_index","time_elapsed","internal_node_id","subject","condition","condition_code","measure","measure_code","codeword","gender","age","education","chinese","fach","handedness","comment","hinschauen","ablenkung","gewissenhaft","rt","url","responses","stimulus","key_press","val","type","type_specific","category","cs_selected","target","indirect","task","nr_pres","response"
"true","fullscreen","0","2995","0.0-0.0","kmxcv54qdj","one_one","1","indirect_first","0","ür06el03","0","19","1","0","3","1","","0","1","0","","","","","","","","","","","","","","",""
"","external-html","1","92028","0.0-1.0","kmxcv54qdj","one_one","1","indirect_first","0","ür06el03","0","19","1","0","3","1","","0","1","0","88982.84000001149","text/information.html","","","","","","","","","","","","",""
"","external-html","2","99316","0.0-2.0","kmxcv54qdj","one_one","1","indirect_first","0","ür06el03","0","19","1","0","3","1","","0","1","0","7201.9900000304915","text/consent.html","","","","","","","","","","","","",""
"","survey-html-form","3","164450","0.0-3.0","kmxcv54qdj","one_one","1","indirect_first","0","ür06el03","0","19","1","0","3","1","","0","1","0","65125.32499997178","","{""codeword_enter"":""ür06el03""}","","","","","","","","","","","",""
"","survey-html-form","4","192933","0.0-4.0","kmxcv54qdj","one_one","1","indirect_first","0","ür06el03","0","19","1","0","3","1","","0","1","0","28473.329999949783","","{""age"":""19"",""education"":""1"",""subject"":""3"",""gender"":""0"",""handedness"":""1"",""chinese"":""0""}","","","","","","","","","","","",""
"","survey-html-form","5","195111","0.0-5.0","kmxcv54qdj","one_one","1","indirect_first","0","ür06el03","0","19","1","0","3","1","","0","1","0","2170.845000015106","","{}","","","","","","","","","","","",""
"","html-keyboard-response","6","199131","0.0-6.0-0.0-0.0","kmxcv54qdj","one_one","1","indirect_first","0","ür06el03","0","19","1","0","3","1","","0","1","0","null","","","<div class = 'row'><div class = 'column'><img src = 'category1/CS3.png' width = '70%;'></div><div class = 'column'><img src = 'uspos/4599.bmp' width = '100%;'></div></div>","null","pos","CS","CS","1","category1/CS3.png","","","","",""
"","html-keyboard-response","7","201653","0.0-6.0-0.0-0.1","kmxcv54qdj","one_one","1","indirect_first","0","ür06el03","0","19","1","0","3","1","","0","1","0","null","","","<div class = 'row'><div class = 'column'><img src = 'usneg/9421.bmp' width = '100%;'></div><div class = 'column'><img src = 'category3/CS2.png' width = '70%;'></div></div>","null","neg","CS","CS","3","category3/CS2.png","","","","",""
"","html-keyboard-response","8","204168","0.0-6.0-0.0-0.2","kmxcv54qdj","one_one","1","indirect_first","0","ür06el03","0","19","1","0","3","1","","0","1","0","null","","","<div class = 'row'><div class = 'column'><img src = 'category2/CS7.png' width = '70%;'></div><div class = 'column'><img src = 'uspos/5831.bmp' width = '100%;'></div></div>","null","pos","CS","CS","2","category2/CS7.png","","","","",""
"","html-keyboard-response","9","206693","0.0-6.0-0.0-0.3","kmxcv54qdj","one_one","1","indirect_first","0","ür06el03","0","19","1","0","3","1","","0","1","0","null","","","<div class = 'row'><div class = 'column'><img src = 'usneg/9050.bmp' width = '100%;'></div><div class = 'column'><img src = 'category4/CS3.png' width = '70%;'></div></div>","null","neg","CS","CS","4","category4/CS3.png","","","","",""
"","html-keyboard-response","10","209219","0.0-6.0-0.0-0.4","kmxcv54qdj","one_one","1","indirect_first","0","ür06el03","0","19","1","0","3","1","","0","1","0","null","","","<div class = 'row'><div class = 'column'><img src = 'category3/CS2.png' width = '70%;'></div><div class = 'column'><img src = 'usneg/9421.bmp' width = '100%;'></div></div>","null","neg","CS","CS","3","category3/CS2.png","","","","",""
"","html-keyboard-response","11","211746","0.0-6.0-0.0-0.5","kmxcv54qdj","one_one","1","indirect_first","0","ür06el03","0","19","1","0","3","1","","0","1","0","null","","","<div class = 'row'><div class = 'column'><img src = 'uspos/5831.bmp' width = '100%;'></div><div class = 'column'><img src = 'category2/CS7.png' width = '70%;'></div></div>","null","pos","CS","CS","2","category2/CS7.png","","","","",""
"","html-keyboard-response","12","214253","0.0-6.0-0.0-0.6","kmxcv54qdj","one_one","1","indirect_first","0","ür06el03","0","19","1","0","3","1","","0","1","0","null","","","<div class = 'row'><div class = 'column'><img src = 'usneg/9050.bmp' width = '100%;'></div><div class = 'column'><img src = 'category4/CS3.png' width = '70%;'></div></div>","null","neg","CS","CS","4","category4/CS3.png","","","","",""
"","html-keyboard-response","13","216761","0.0-6.0-0.0-0.7","kmxcv54qdj","one_one","1","indirect_first","0","ür06el03","0","19","1","0","3","1","","0","1","0","null","","","<div class = 'row'><div class = 'column'><img src = 'category1/CS3.png' width = '70%;'></div><div class = 'column'><img src = 'uspos/4599.bmp' width = '100%;'></div></div>","null","pos","CS","CS","1","category1/CS3.png","","","","",""
"","html-keyboard-response","14","219290","0.0-6.0-0.0-0.8","kmxcv54qdj","one_one","1","indirect_first","0","ür06el03","0","19","1","0","3","1","","0","1","0","null","","","<div class = 'row'><div class = 'column'><img src = 'uspos/5831.bmp' width = '100%;'></div><div class = 'column'><img src = 'category2/CS7.png' width = '70%;'></div></div>","null","pos","CS","CS","2","category2/CS7.png","","","","",""
"","html-keyboard-response","15","221810","0.0-6.0-0.0-0.9","kmxcv54qdj","one_one","1","indirect_first","0","ür06el03","0","19","1","0","3","1","","0","1","0","null","","","<div class = 'row'><div class = 'column'><img src = 'category4/CS3.png' width = '70%;'></div><div class = 'column'><img src = 'usneg/9050.bmp' width = '100%;'></div></div>","null","neg","CS","CS","4","category4/CS3.png","","","","",""
"","html-keyboard-response","16","224331","0.0-6.0-0.0-0.10","kmxcv54qdj","one_one","1","indirect_first","0","ür06el03","0","19","1","0","3","1","","0","1","0","null","","","<div class = 'row'><div class = 'column'><img src = 'uspos/4599.bmp' width = '100%;'></div><div class = 'column'><img src = 'category1/CS3.png' width = '70%;'></div></div>","null","pos","CS","CS","1","category1/CS3.png","","","","",""
"","html-keyboard-response","17","226858","0.0-6.0-0.0-0.11","kmxcv54qdj","one_one","1","indirect_first","0","ür06el03","0","19","1","0","3","1","","0","1","0","null","","","<div class = 'row'><div class = 'column'><img src = 'usneg/9421.bmp' width = '100%;'></div><div class = 'column'><img src = 'category3/CS2.png' width = '70%;'></div></div>","null","neg","CS","CS","3","category3/CS2.png","","","","",""
"","html-keyboard-response","18","229371","0.0-6.0-0.0-0.12","kmxcv54qdj","one_one","1","indirect_first","0","ür06el03","0","19","1","0","3","1","","0","1","0","null","","","<div class = 'row'><div class = 'column'><img src = 'category1/CS3.png' width = '70%;'></div><div class = 'column'><img src = 'uspos/4599.bmp' width = '100%;'></div></div>","null","pos","CS","CS","1","category1/CS3.png","","","","",""
"","html-keyboard-response","19","231887","0.0-6.0-0.0-0.13","kmxcv54qdj","one_one","1","indirect_first","0","ür06el03","0","19","1","0","3","1","","0","1","0","null","","","<div class = 'row'><div class = 'column'><img src = 'category2/CS7.png' width = '70%;'></div><div class = 'column'><img src = 'uspos/5831.bmp' width = '100%;'></div></div>","null","pos","CS","CS","2","category2/CS7.png","","","","",""
"","html-keyboard-response","20","234407","0.0-6.0-0.0-0.14","kmxcv54qdj","one_one","1","indirect_first","0","ür06el03","0","19","1","0","3","1","","0","1","0","null","","","<div class = 'row'><div class = 'column'><img src = 'usneg/9421.bmp' width = '100%;'></div><div class = 'column'><img src = 'category3/CS2.png' width = '70%;'></div></div>","null","neg","CS","CS","3","category3/CS2.png","","","","",""
"","html-keyboard-response","21","236927","0.0-6.0-0.0-0.15","kmxcv54qdj","one_one","1","indirect_first","0","ür06el03","0","19","1","0","3","1","","0","1","0","null","","","<div class = 'row'><div class = 'column'><img src = 'category2/CS7.png' width = '70%;'></div><div class = 'column'><img src = 'uspos/5831.bmp' width = '100%;'></div></div>","null","pos","CS","CS","2","category2/CS7.png","","","","",""
"","html-keyboard-response","22","239450","0.0-6.0-0.0-0.16","kmxcv54qdj","one_one","1","indirect_first","0","ür06el03","0","19","1","0","3","1","","0","1","0","null","","","<div class = 'row'><div class = 'column'><img src = 'usneg/9050.bmp' width = '100%;'></div><div class = 'column'><img src = 'category4/CS3.png' width = '70%;'></div></div>","null","neg","CS","CS","4","category4/CS3.png","","","","",""
"","html-keyboard-response","23","241966","0.0-6.0-0.0-0.17","kmxcv54qdj","one_one","1","indirect_first","0","ür06el03","0","19","1","0","3","1","","0","1","0","null","","","<div class = 'row'><div class = 'column'><img src = 'usneg/9421.bmp' width = '100%;'></div><div class = 'column'><img src = 'category3/CS2.png' width = '70%;'></div></div>","null","neg","CS","CS","3","category3/CS2.png","","","","",""
"","html-keyboard-response","24","244484","0.0-6.0-0.0-0.18","kmxcv54qdj","one_one","1","indirect_first","0","ür06el03","0","19","1","0","3","1","","0","1","0","null","","","<div class = 'row'><div class = 'column'><img src = 'uspos/4599.bmp' width = '100%;'></div><div class = 'column'><img src = 'category1/CS3.png' width = '70%;'></div></div>","null","pos","CS","CS","1","category1/CS3.png","","","","",""
"","html-keyboard-response","25","246991","0.0-6.0-0.0-0.19","kmxcv54qdj","one_one","1","indirect_first","0","ür06el03","0","19","1","0","3","1","","0","1","0","null","","","<div class = 'row'><div class = 'column'><img src = 'category4/CS3.png' width = '70%;'></div><div class = 'column'><img src = 'usneg/9050.bmp' width = '100%;'></div></div>","null","neg","CS","CS","4","category4/CS3.png","","","","",""
"","survey-html-form","26","249133","0.0-6.0-1.0","kmxcv54qdj","one_one","1","indirect_first","0","ür06el03","0","19","1","0","3","1","","0","1","0","1631.6100000403821","","{}","","","","","","","","","","","",""
"","html-keyboard-response","27","253146","0.0-6.0-2.0-0.0","kmxcv54qdj","one_one","1","indirect_first","0","ür06el03","0","19","1","0","3","1","","0","1","0","null","","","<div class = 'row'><div class = 'column'><img src = 'usneg/9421.bmp' width = '100%;'></div><div class = 'column'><img src = 'category3/CS2.png' width = '70%;'></div></div>","null","neg","CS","CS","3","category3/CS2.png","","","","",""
"","html-keyboard-response","28","255656","0.0-6.0-2.0-0.1","kmxcv54qdj","one_one","1","indirect_first","0","ür06el03","0","19","1","0","3","1","","0","1","0","null","","","<div class = 'row'><div class = 'column'><img src = 'uspos/4599.bmp' width = '100%;'></div><div class = 'column'><img src = 'category1/CS3.png' width = '70%;'></div></div>","null","pos","CS","CS","1","category1/CS3.png","","","","",""
"","html-keyboard-response","29","258177","0.0-6.0-2.0-0.2","kmxcv54qdj","one_one","1","indirect_first","0","ür06el03","0","19","1","0","3","1","","0","1","0","null","","","<div class = 'row'><div class = 'column'><img src = 'usneg/9050.bmp' width = '100%;'></div><div class = 'column'><img src = 'category4/CS3.png' width = '70%;'></div></div>","null","neg","CS","CS","4","category4/CS3.png","","","","",""
"","html-keyboard-response","30","260704","0.0-6.0-2.0-0.3","kmxcv54qdj","one_one","1","indirect_first","0","ür06el03","0","19","1","0","3","1","","0","1","0","null","","","<div class = 'row'><div class = 'column'><img src = 'uspos/4599.bmp' width = '100%;'></div><div class = 'column'><img src = 'category1/CS3.png' width = '70%;'></div></div>","null","pos","CS","CS","1","category1/CS3.png","","","","",""
"","html-keyboard-response","31","263238","0.0-6.0-2.0-0.4","kmxcv54qdj","one_one","1","indirect_first","0","ür06el03","0","19","1","0","3","1","","0","1","0","null","","","<div class = 'row'><div class = 'column'><img src = 'category3/CS2.png' width = '70%;'></div><div class = 'column'><img src = 'usneg/9421.bmp' width = '100%;'></div></div>","null","neg","CS","CS","3","category3/CS2.png","","","","",""
"","html-keyboard-response","32","265770","0.0-6.0-2.0-0.5","kmxcv54qdj","one_one","1","indirect_first","0","ür06el03","0","19","1","0","3","1","","0","1","0","null","","","<div class = 'row'><div class = 'column'><img src = 'category4/CS3.png' width = '70%;'></div><div class = 'column'><img src = 'usneg/9050.bmp' width = '100%;'></div></div>","null","neg","CS","CS","4","category4/CS3.png","","","","",""
"","html-keyboard-response","33","268292","0.0-6.0-2.0-0.6","kmxcv54qdj","one_one","1","indirect_first","0","ür06el03","0","19","1","0","3","1","","0","1","0","null","","","<div class = 'row'><div class = 'column'><img src = 'usneg/9421.bmp' width = '100%;'></div><div class = 'column'><img src = 'category3/CS2.png' width = '70%;'></div></div>","null","neg","CS","CS","3","category3/CS2.png","","","","",""
"","html-keyboard-response","34","270826","0.0-6.0-2.0-0.7","kmxcv54qdj","one_one","1","indirect_first","0","ür06el03","0","19","1","0","3","1","","0","1","0","null","","","<div class = 'row'><div class = 'column'><img src = 'uspos/4599.bmp' width = '100%;'></div><div class = 'column'><img src = 'category1/CS3.png' width = '70%;'></div></div>","null","pos","CS","CS","1","category1/CS3.png","","","","",""
"","html-keyboard-response","35","273361","0.0-6.0-2.0-0.8","kmxcv54qdj","one_one","1","indirect_first","0","ür06el03","0","19","1","0","3","1","","0","1","0","null","","","<div class = 'row'><div class = 'column'><img src = 'usneg/9421.bmp' width = '100%;'></div><div class = 'column'><img src = 'category3/CS2.png' width = '70%;'></div></div>","null","neg","CS","CS","3","category3/CS2.png","","","","",""
"","html-keyboard-response","36","275884","0.0-6.0-2.0-0.9","kmxcv54qdj","one_one","1","indirect_first","0","ür06el03","0","19","1","0","3","1","","0","1","0","null","","","<div class = 'row'><div class = 'column'><img src = 'uspos/5831.bmp' width = '100%;'></div><div class = 'column'><img src = 'category2/CS7.png' width = '70%;'></div></div>","null","pos","CS","CS","2","category2/CS7.png","","","","",""
"","html-keyboard-response","37","278418","0.0-6.0-2.0-0.10","kmxcv54qdj","one_one","1","indirect_first","0","ür06el03","0","19","1","0","3","1","","0","1","0","null","","","<div class = 'row'><div class = 'column'><img src = 'usneg/9050.bmp' width = '100%;'></div><div class = 'column'><img src = 'category4/CS3.png' width = '70%;'></div></div>","null","neg","CS","CS","4","category4/CS3.png","","","","",""
"","html-keyboard-response","38","280940","0.0-6.0-2.0-0.11","kmxcv54qdj","one_one","1","indirect_first","0","ür06el03","0","19","1","0","3","1","","0","1","0","null","","","<div class = 'row'><div class = 'column'><img src = 'uspos/5831.bmp' width = '100%;'></div><div class = 'column'><img src = 'category2/CS7.png' width = '70%;'></div></div>","null","pos","CS","CS","2","category2/CS7.png","","","","",""
"","html-keyboard-response","39","283466","0.0-6.0-2.0-0.12","kmxcv54qdj","one_one","1","indirect_first","0","ür06el03","0","19","1","0","3","1","","0","1","0","null","","","<div class = 'row'><div class = 'column'><img src = 'usneg/9050.bmp' width = '100%;'></div><div class = 'column'><img src = 'category4/CS3.png' width = '70%;'></div></div>","null","neg","CS","CS","4","category4/CS3.png","","","","",""
"","html-keyboard-response","40","285982","0.0-6.0-2.0-0.13","kmxcv54qdj","one_one","1","indirect_first","0","ür06el03","0","19","1","0","3","1","","0","1","0","null","","","<div class = 'row'><div class = 'column'><img src = 'category2/CS7.png' width = '70%;'></div><div class = 'column'><img src = 'uspos/5831.bmp' width = '100%;'></div></div>","null","pos","CS","CS","2","category2/CS7.png","","","","",""
"","html-keyboard-response","41","288499","0.0-6.0-2.0-0.14","kmxcv54qdj","one_one","1","indirect_first","0","ür06el03","0","19","1","0","3","1","","0","1","0","null","","","<div class = 'row'><div class = 'column'><img src = 'uspos/4599.bmp' width = '100%;'></div><div class = 'column'><img src = 'category1/CS3.png' width = '70%;'></div></div>","null","pos","CS","CS","1","category1/CS3.png","","","","",""
"","html-keyboard-response","42","291031","0.0-6.0-2.0-0.15","kmxcv54qdj","one_one","1","indirect_first","0","ür06el03","0","19","1","0","3","1","","0","1","0","null","","","<div class = 'row'><div class = 'column'><img src = 'uspos/5831.bmp' width = '100%;'></div><div class = 'column'><img src = 'category2/CS7.png' width = '70%;'></div></div>","null","pos","CS","CS","2","category2/CS7.png","","","","",""
"","html-keyboard-response","43","293548","0.0-6.0-2.0-0.16","kmxcv54qdj","one_one","1","indirect_first","0","ür06el03","0","19","1","0","3","1","","0","1","0","null","","","<div class = 'row'><div class = 'column'><img src = 'category1/CS3.png' width = '70%;'></div><div class = 'column'><img src = 'uspos/4599.bmp' width = '100%;'></div></div>","null","pos","CS","CS","1","category1/CS3.png","","","","",""
"","html-keyboard-response","44","296063","0.0-6.0-2.0-0.17","kmxcv54qdj","one_one","1","indirect_first","0","ür06el03","0","19","1","0","3","1","","0","1","0","null","","","<div class = 'row'><div class = 'column'><img src = 'usneg/9421.bmp' width = '100%;'></div><div class = 'column'><img src = 'category3/CS2.png' width = '70%;'></div></div>","null","neg","CS","CS","3","category3/CS2.png","","","","",""
"","html-keyboard-response","45","298588","0.0-6.0-2.0-0.18","kmxcv54qdj","one_one","1","indirect_first","0","ür06el03","0","19","1","0","3","1","","0","1","0","null","","","<div class = 'row'><div class = 'column'><img src = 'usneg/9050.bmp' width = '100%;'></div><div class = 'column'><img src = 'category4/CS3.png' width = '70%;'></div></div>","null","neg","CS","CS","4","category4/CS3.png","","","","",""
"","html-keyboard-response","46","301102","0.0-6.0-2.0-0.19","kmxcv54qdj","one_one","1","indirect_first","0","ür06el03","0","19","1","0","3","1","","0","1","0","null","","","<div class = 'row'><div class = 'column'><img src = 'uspos/5831.bmp' width = '100%;'></div><div class = 'column'><img src = 'category2/CS7.png' width = '70%;'></div></div>","null","pos","CS","CS","2","category2/CS7.png","","","","",""
"","survey-html-form","47","303314","0.0-6.0-3.0","kmxcv54qdj","one_one","1","indirect_first","0","ür06el03","0","19","1","0","3","1","","0","1","0","1700.940000009723","","{}","","","","","","","","","","","",""
"","html-keyboard-response","48","307343","0.0-6.0-4.0-0.0","kmxcv54qdj","one_one","1","indirect_first","0","ür06el03","0","19","1","0","3","1","","0","1","0","null","","","<div class = 'row'><div class = 'column'><img src = 'usneg/9050.bmp' width = '100%;'></div><div class = 'column'><img src = 'category4/CS3.png' width = '70%;'></div></div>","null","neg","CS","CS","4","category4/CS3.png","","","","",""
"","html-keyboard-response","49","309860","0.0-6.0-4.0-0.1","kmxcv54qdj","one_one","1","indirect_first","0","ür06el03","0","19","1","0","3","1","","0","1","0","null","","","<div class = 'row'><div class = 'column'><img src = 'usneg/9421.bmp' width = '100%;'></div><div class = 'column'><img src = 'category3/CS2.png' width = '70%;'></div></div>","null","neg","CS","CS","3","category3/CS2.png","","","","",""
"","html-keyboard-response","50","312384","0.0-6.0-4.0-0.2","kmxcv54qdj","one_one","1","indirect_first","0","ür06el03","0","19","1","0","3","1","","0","1","0","null","","","<div class = 'row'><div class = 'column'><img src = 'category4/CS3.png' width = '70%;'></div><div class = 'column'><img src = 'usneg/9050.bmp' width = '100%;'></div></div>","null","neg","CS","CS","4","category4/CS3.png","","","","",""
"","html-keyboard-response","51","314909","0.0-6.0-4.0-0.3","kmxcv54qdj","one_one","1","indirect_first","0","ür06el03","0","19","1","0","3","1","","0","1","0","null","","","<div class = 'row'><div class = 'column'><img src = 'uspos/5831.bmp' width = '100%;'></div><div class = 'column'><img src = 'category2/CS7.png' width = '70%;'></div></div>","null","pos","CS","CS","2","category2/CS7.png","","","","",""
"","html-keyboard-response","52","317426","0.0-6.0-4.0-0.4","kmxcv54qdj","one_one","1","indirect_first","0","ür06el03","0","19","1","0","3","1","","0","1","0","null","","","<div class = 'row'><div class = 'column'><img src = 'usneg/9050.bmp' width = '100%;'></div><div class = 'column'><img src = 'category4/CS3.png' width = '70%;'></div></div>","null","neg","CS","CS","4","category4/CS3.png","","","","",""
"","html-keyboard-response","53","319949","0.0-6.0-4.0-0.5","kmxcv54qdj","one_one","1","indirect_first","0","ür06el03","0","19","1","0","3","1","","0","1","0","null","","","<div class = 'row'><div class = 'column'><img src = 'uspos/4599.bmp' width = '100%;'></div><div class = 'column'><img src = 'category1/CS3.png' width = '70%;'></div></div>","null","pos","CS","CS","1","category1/CS3.png","","","","",""
"","html-keyboard-response","54","322464","0.0-6.0-4.0-0.6","kmxcv54qdj","one_one","1","indirect_first","0","ür06el03","0","19","1","0","3","1","","0","1","0","null","","","<div class = 'row'><div class = 'column'><img src = 'category3/CS2.png' width = '70%;'></div><div class = 'column'><img src = 'usneg/9421.bmp' width = '100%;'></div></div>","null","neg","CS","CS","3","category3/CS2.png","","","","",""
"","html-keyboard-response","55","324990","0.0-6.0-4.0-0.7","kmxcv54qdj","one_one","1","indirect_first","0","ür06el03","0","19","1","0","3","1","","0","1","0","null","","","<div class = 'row'><div class = 'column'><img src = 'uspos/4599.bmp' width = '100%;'></div><div class = 'column'><img src = 'category1/CS3.png' width = '70%;'></div></div>","null","pos","CS","CS","1","category1/CS3.png","","","","",""
"","html-keyboard-response","56","327513","0.0-6.0-4.0-0.8","kmxcv54qdj","one_one","1","indirect_first","0","ür06el03","0","19","1","0","3","1","","0","1","0","null","","","<div class = 'row'><div class = 'column'><img src = 'usneg/9421.bmp' width = '100%;'></div><div class = 'column'><img src = 'category3/CS2.png' width = '70%;'></div></div>","null","neg","CS","CS","3","category3/CS2.png","","","","",""
"","html-keyboard-response","57","330028","0.0-6.0-4.0-0.9","kmxcv54qdj","one_one","1","indirect_first","0","ür06el03","0","19","1","0","3","1","","0","1","0","null","","","<div class = 'row'><div class = 'column'><img src = 'uspos/5831.bmp' width = '100%;'></div><div class = 'column'><img src = 'category2/CS7.png' width = '70%;'></div></div>","null","pos","CS","CS","2","category2/CS7.png","","","","",""
"","html-keyboard-response","58","332539","0.0-6.0-4.0-0.10","kmxcv54qdj","one_one","1","indirect_first","0","ür06el03","0","19","1","0","3","1","","0","1","0","null","","","<div class = 'row'><div class = 'column'><img src = 'usneg/9050.bmp' width = '100%;'></div><div class = 'column'><img src = 'category4/CS3.png' width = '70%;'></div></div>","null","neg","CS","CS","4","category4/CS3.png","","","","",""
"","html-keyboard-response","59","335055","0.0-6.0-4.0-0.11","kmxcv54qdj","one_one","1","indirect_first","0","ür06el03","0","19","1","0","3","1","","0","1","0","null","","","<div class = 'row'><div class = 'column'><img src = 'uspos/4599.bmp' width = '100%;'></div><div class = 'column'><img src = 'category1/CS3.png' width = '70%;'></div></div>","null","pos","CS","CS","1","category1/CS3.png","","","","",""
"","html-keyboard-response","60","337588","0.0-6.0-4.0-0.12","kmxcv54qdj","one_one","1","indirect_first","0","ür06el03","0","19","1","0","3","1","","0","1","0","null","","","<div class = 'row'><div class = 'column'><img src = 'uspos/5831.bmp' width = '100%;'></div><div class = 'column'><img src = 'category2/CS7.png' width = '70%;'></div></div>","null","pos","CS","CS","2","category2/CS7.png","","","","",""
"","html-keyboard-response","61","340112","0.0-6.0-4.0-0.13","kmxcv54qdj","one_one","1","indirect_first","0","ür06el03","0","19","1","0","3","1","","0","1","0","null","","","<div class = 'row'><div class = 'column'><img src = 'usneg/9421.bmp' width = '100%;'></div><div class = 'column'><img src = 'category3/CS2.png' width = '70%;'></div></div>","null","neg","CS","CS","3","category3/CS2.png","","","","",""
"","html-keyboard-response","62","342636","0.0-6.0-4.0-0.14","kmxcv54qdj","one_one","1","indirect_first","0","ür06el03","0","19","1","0","3","1","","0","1","0","null","","","<div class = 'row'><div class = 'column'><img src = 'category1/CS3.png' width = '70%;'></div><div class = 'column'><img src = 'uspos/4599.bmp' width = '100%;'></div></div>","null","pos","CS","CS","1","category1/CS3.png","","","","",""
"","html-keyboard-response","63","345143","0.0-6.0-4.0-0.15","kmxcv54qdj","one_one","1","indirect_first","0","ür06el03","0","19","1","0","3","1","","0","1","0","null","","","<div class = 'row'><div class = 'column'><img src = 'usneg/9421.bmp' width = '100%;'></div><div class = 'column'><img src = 'category3/CS2.png' width = '70%;'></div></div>","null","neg","CS","CS","3","category3/CS2.png","","","","",""
"","html-keyboard-response","64","347669","0.0-6.0-4.0-0.16","kmxcv54qdj","one_one","1","indirect_first","0","ür06el03","0","19","1","0","3","1","","0","1","0","null","","","<div class = 'row'><div class = 'column'><img src = 'uspos/5831.bmp' width = '100%;'></div><div class = 'column'><img src = 'category2/CS7.png' width = '70%;'></div></div>","null","pos","CS","CS","2","category2/CS7.png","","","","",""
"","html-keyboard-response","65","350194","0.0-6.0-4.0-0.17","kmxcv54qdj","one_one","1","indirect_first","0","ür06el03","0","19","1","0","3","1","","0","1","0","null","","","<div class = 'row'><div class = 'column'><img src = 'category4/CS3.png' width = '70%;'></div><div class = 'column'><img src = 'usneg/9050.bmp' width = '100%;'></div></div>","null","neg","CS","CS","4","category4/CS3.png","","","","",""
"","html-keyboard-response","66","352714","0.0-6.0-4.0-0.18","kmxcv54qdj","one_one","1","indirect_first","0","ür06el03","0","19","1","0","3","1","","0","1","0","null","","","<div class = 'row'><div class = 'column'><img src = 'uspos/4599.bmp' width = '100%;'></div><div class = 'column'><img src = 'category1/CS3.png' width = '70%;'></div></div>","null","pos","CS","CS","1","category1/CS3.png","","","","",""
"","html-keyboard-response","67","355240","0.0-6.0-4.0-0.19","kmxcv54qdj","one_one","1","indirect_first","0","ür06el03","0","19","1","0","3","1","","0","1","0","null","","","<div class = 'row'><div class = 'column'><img src = 'category2/CS7.png' width = '70%;'></div><div class = 'column'><img src = 'uspos/5831.bmp' width = '100%;'></div></div>","null","pos","CS","CS","2","category2/CS7.png","","","","",""
"","survey-html-form","68","357525","0.0-6.0-5.0","kmxcv54qdj","one_one","1","indirect_first","0","ür06el03","0","19","1","0","3","1","","0","1","0","1774.0650000050664","","{}","","","","","","","","","","","",""
"","html-keyboard-response","69","361550","0.0-6.0-6.0-0.0","kmxcv54qdj","one_one","1","indirect_first","0","ür06el03","0","19","1","0","3","1","","0","1","0","null","","","<div class = 'row'><div class = 'column'><img src = 'usneg/9050.bmp' width = '100%;'></div><div class = 'column'><img src = 'category4/CS3.png' width = '70%;'></div></div>","null","neg","CS","CS","4","category4/CS3.png","","","","",""
"","html-keyboard-response","70","364075","0.0-6.0-6.0-0.1","kmxcv54qdj","one_one","1","indirect_first","0","ür06el03","0","19","1","0","3","1","","0","1","0","null","","","<div class = 'row'><div class = 'column'><img src = 'usneg/9421.bmp' width = '100%;'></div><div class = 'column'><img src = 'category3/CS2.png' width = '70%;'></div></div>","null","neg","CS","CS","3","category3/CS2.png","","","","",""
"","html-keyboard-response","71","366607","0.0-6.0-6.0-0.2","kmxcv54qdj","one_one","1","indirect_first","0","ür06el03","0","19","1","0","3","1","","0","1","0","null","","","<div class = 'row'><div class = 'column'><img src = 'category2/CS7.png' width = '70%;'></div><div class = 'column'><img src = 'uspos/5831.bmp' width = '100%;'></div></div>","null","pos","CS","CS","2","category2/CS7.png","","","","",""
"","html-keyboard-response","72","369131","0.0-6.0-6.0-0.3","kmxcv54qdj","one_one","1","indirect_first","0","ür06el03","0","19","1","0","3","1","","0","1","0","null","","","<div class = 'row'><div class = 'column'><img src = 'usneg/9421.bmp' width = '100%;'></div><div class = 'column'><img src = 'category3/CS2.png' width = '70%;'></div></div>","null","neg","CS","CS","3","category3/CS2.png","","","","",""
"","html-keyboard-response","73","371652","0.0-6.0-6.0-0.4","kmxcv54qdj","one_one","1","indirect_first","0","ür06el03","0","19","1","0","3","1","","0","1","0","null","","","<div class = 'row'><div class = 'column'><img src = 'category4/CS3.png' width = '70%;'></div><div class = 'column'><img src = 'usneg/9050.bmp' width = '100%;'></div></div>","null","neg","CS","CS","4","category4/CS3.png","","","","",""
"","html-keyboard-response","74","374179","0.0-6.0-6.0-0.5","kmxcv54qdj","one_one","1","indirect_first","0","ür06el03","0","19","1","0","3","1","","0","1","0","null","","","<div class = 'row'><div class = 'column'><img src = 'uspos/4599.bmp' width = '100%;'></div><div class = 'column'><img src = 'category1/CS3.png' width = '70%;'></div></div>","null","pos","CS","CS","1","category1/CS3.png","","","","",""
"","html-keyboard-response","75","376706","0.0-6.0-6.0-0.6","kmxcv54qdj","one_one","1","indirect_first","0","ür06el03","0","19","1","0","3","1","","0","1","0","null","","","<div class = 'row'><div class = 'column'><img src = 'usneg/9050.bmp' width = '100%;'></div><div class = 'column'><img src = 'category4/CS3.png' width = '70%;'></div></div>","null","neg","CS","CS","4","category4/CS3.png","","","","",""
"","html-keyboard-response","76","379229","0.0-6.0-6.0-0.7","kmxcv54qdj","one_one","1","indirect_first","0","ür06el03","0","19","1","0","3","1","","0","1","0","null","","","<div class = 'row'><div class = 'column'><img src = 'uspos/5831.bmp' width = '100%;'></div><div class = 'column'><img src = 'category2/CS7.png' width = '70%;'></div></div>","null","pos","CS","CS","2","category2/CS7.png","","","","",""
"","html-keyboard-response","77","381755","0.0-6.0-6.0-0.8","kmxcv54qdj","one_one","1","indirect_first","0","ür06el03","0","19","1","0","3","1","","0","1","0","null","","","<div class = 'row'><div class = 'column'><img src = 'uspos/4599.bmp' width = '100%;'></div><div class = 'column'><img src = 'category1/CS3.png' width = '70%;'></div></div>","null","pos","CS","CS","1","category1/CS3.png","","","","",""
"","html-keyboard-response","78","384279","0.0-6.0-6.0-0.9","kmxcv54qdj","one_one","1","indirect_first","0","ür06el03","0","19","1","0","3","1","","0","1","0","null","","","<div class = 'row'><div class = 'column'><img src = 'uspos/5831.bmp' width = '100%;'></div><div class = 'column'><img src = 'category2/CS7.png' width = '70%;'></div></div>","null","pos","CS","CS","2","category2/CS7.png","","","","",""
"","html-keyboard-response","79","386800","0.0-6.0-6.0-0.10","kmxcv54qdj","one_one","1","indirect_first","0","ür06el03","0","19","1","0","3","1","","0","1","0","null","","","<div class = 'row'><div class = 'column'><img src = 'category1/CS3.png' width = '70%;'></div><div class = 'column'><img src = 'uspos/4599.bmp' width = '100%;'></div></div>","null","pos","CS","CS","1","category1/CS3.png","","","","",""
"","html-keyboard-response","80","389316","0.0-6.0-6.0-0.11","kmxcv54qdj","one_one","1","indirect_first","0","ür06el03","0","19","1","0","3","1","","0","1","0","null","","","<div class = 'row'><div class = 'column'><img src = 'uspos/5831.bmp' width = '100%;'></div><div class = 'column'><img src = 'category2/CS7.png' width = '70%;'></div></div>","null","pos","CS","CS","2","category2/CS7.png","","","","",""
"","html-keyboard-response","81","391844","0.0-6.0-6.0-0.12","kmxcv54qdj","one_one","1","indirect_first","0","ür06el03","0","19","1","0","3","1","","0","1","0","null","","","<div class = 'row'><div class = 'column'><img src = 'category3/CS2.png' width = '70%;'></div><div class = 'column'><img src = 'usneg/9421.bmp' width = '100%;'></div></div>","null","neg","CS","CS","3","category3/CS2.png","","","","",""
"","html-keyboard-response","82","394359","0.0-6.0-6.0-0.13","kmxcv54qdj","one_one","1","indirect_first","0","ür06el03","0","19","1","0","3","1","","0","1","0","null","","","<div class = 'row'><div class = 'column'><img src = 'usneg/9050.bmp' width = '100%;'></div><div class = 'column'><img src = 'category4/CS3.png' width = '70%;'></div></div>","null","neg","CS","CS","4","category4/CS3.png","","","","",""
"","html-keyboard-response","83","396882","0.0-6.0-6.0-0.14","kmxcv54qdj","one_one","1","indirect_first","0","ür06el03","0","19","1","0","3","1","","0","1","0","null","","","<div class = 'row'><div class = 'column'><img src = 'uspos/4599.bmp' width = '100%;'></div><div class = 'column'><img src = 'category1/CS3.png' width = '70%;'></div></div>","null","pos","CS","CS","1","category1/CS3.png","","","","",""
"","html-keyboard-response","84","399408","0.0-6.0-6.0-0.15","kmxcv54qdj","one_one","1","indirect_first","0","ür06el03","0","19","1","0","3","1","","0","1","0","null","","","<div class = 'row'><div class = 'column'><img src = 'usneg/9421.bmp' width = '100%;'></div><div class = 'column'><img src = 'category3/CS2.png' width = '70%;'></div></div>","null","neg","CS","CS","3","category3/CS2.png","","","","",""
"","html-keyboard-response","85","401923","0.0-6.0-6.0-0.16","kmxcv54qdj","one_one","1","indirect_first","0","ür06el03","0","19","1","0","3","1","","0","1","0","null","","","<div class = 'row'><div class = 'column'><img src = 'uspos/5831.bmp' width = '100%;'></div><div class = 'column'><img src = 'category2/CS7.png' width = '70%;'></div></div>","null","pos","CS","CS","2","category2/CS7.png","","","","",""
"","html-keyboard-response","86","404460","0.0-6.0-6.0-0.17","kmxcv54qdj","one_one","1","indirect_first","0","ür06el03","0","19","1","0","3","1","","0","1","0","null","","","<div class = 'row'><div class = 'column'><img src = 'usneg/9050.bmp' width = '100%;'></div><div class = 'column'><img src = 'category4/CS3.png' width = '70%;'></div></div>","null","neg","CS","CS","4","category4/CS3.png","","","","",""
"","html-keyboard-response","87","406982","0.0-6.0-6.0-0.18","kmxcv54qdj","one_one","1","indirect_first","0","ür06el03","0","19","1","0","3","1","","0","1","0","null","","","<div class = 'row'><div class = 'column'><img src = 'category1/CS3.png' width = '70%;'></div><div class = 'column'><img src = 'uspos/4599.bmp' width = '100%;'></div></div>","null","pos","CS","CS","1","category1/CS3.png","","","","",""
"","html-keyboard-response","88","409499","0.0-6.0-6.0-0.19","kmxcv54qdj","one_one","1","indirect_first","0","ür06el03","0","19","1","0","3","1","","0","1","0","null","","","<div class = 'row'><div class = 'column'><img src = 'usneg/9421.bmp' width = '100%;'></div><div class = 'column'><img src = 'category3/CS2.png' width = '70%;'></div></div>","null","neg","CS","CS","3","category3/CS2.png","","","","",""
"","html-keyboard-response","89","451593","0.0-7.0","kmxcv54qdj","one_one","1","indirect_first","0","ür06el03","0","19","1","0","3","1","","0","1","0","41585.72499995353","","","<p>Sie sehen nun die chinesischen Zeichen nur ganz kurz. Danach sehen Sie die jeweilige Aussprache der Zeichen als Silbe auf dem Bildschrim. Ihre Aufgabe ist es, für jede Silbe anzugeben, ob diese etwas angenehmes, oder unangenehmes bedeuten könnte. Verlassen Sie sich hier vor allem auf Ihre Intuition.<br><br>Die Zeichen werden nur zur Orientierung dargestellt, beachten Sie sie deshalb nicht. Konzentrieren Sie sich vor allem auf die Silben. <br>Reagieren Sie mit folgenden zwei Tasten: <br><br><b>'D' </b> wenn die Silbe etwas <b>unangenehmes</b> bedeuten könnte. <br><b>'K'</b> wenn die Silbe etwas <b>angenehmes</b> bedeuten könnte. <br><br>Bitte legen Sie nun den Zeigefinger der linken Hand auf die Taste 'D' und den Zeigefinger der rechten Hand auf die Taste 'K'. <br>Reagieren Sie auf jede Silbe so schnell wie möglich. Uns interessiert Ihre spontane Reaktion. <br> <br> <br>Drücken Sie 'D' oder 'K', um die nächste Aufgabe zu starten. </p>","68","","","","","","","","","",""
"","html-keyboard-response","90","454612","0.0-8.0-0.0","kmxcv54qdj","one_one","1","indirect_first","0","ür06el03","0","19","1","0","3","1","","0","1","0","null","","","<div style=""font-size:60px;"">+</div>","null","","","","","","","","","",""
"","html-keyboard-response","91","454704","0.0-8.0-1.0","kmxcv54qdj","one_one","1","indirect_first","0","ür06el03","0","19","1","0","3","1","","0","1","0","null","","","<img src = 'category2/CS1.png' width = '100%;'>","null","","","","","","","","","",""
"","html-keyboard-response","92","454967","0.0-8.0-2.0","kmxcv54qdj","one_one","1","indirect_first","0","ür06el03","0","19","1","0","3","1","","0","1","0","null","","","<img src = 'targets/18.png' width = '100%;'>","null","","","","","","","","","",""
"","html-keyboard-response","93","463229","0.0-8.0-3.0","kmxcv54qdj","one_one","1","indirect_first","0","ür06el03","0","19","1","0","3","1","","0","1","0","8259.075000009034","","","<img src = 'targets/mask.png' width = '100%;'>","75","pos","GS","GSold","2","category2/CS1.png","targets/18.png","1","indirect","0",""
"","html-keyboard-response","94","464760","0.0-8.0-0.1","kmxcv54qdj","one_one","1","indirect_first","0","ür06el03","0","19","1","0","3","1","","0","1","0","null","","","<div style=""font-size:60px;"">+</div>","null","","","","","","","","","",""
"","html-keyboard-response","95","464854","0.0-8.0-1.1","kmxcv54qdj","one_one","1","indirect_first","0","ür06el03","0","19","1","0","3","1","","0","1","0","null","","","<img src = 'category1/CS8.png' width = '100%;'>","null","","","","","","","","","",""
"","html-keyboard-response","96","465110","0.0-8.0-2.1","kmxcv54qdj","one_one","1","indirect_first","0","ür06el03","0","19","1","0","3","1","","0","1","0","null","","","<img src = 'targets/1.png' width = '100%;'>","null","","","","","","","","","",""
"","html-keyboard-response","97","469489","0.0-8.0-3.1","kmxcv54qdj","one_one","1","indirect_first","0","ür06el03","0","19","1","0","3","1","","0","1","0","4375.884999986738","","","<img src = 'targets/mask.png' width = '100%;'>","68","pos","GS","GSold","1","category1/CS8.png","targets/1.png","0","indirect","1",""
"","html-keyboard-response","98","471010","0.0-8.0-0.2","kmxcv54qdj","one_one","1","indirect_first","0","ür06el03","0","19","1","0","3","1","","0","1","0","null","","","<div style=""font-size:60px;"">+</div>","null","","","","","","","","","",""
"","html-keyboard-response","99","471108","0.0-8.0-1.2","kmxcv54qdj","one_one","1","indirect_first","0","ür06el03","0","19","1","0","3","1","","0","1","0","null","","","<img src = 'category3/CS10.png' width = '100%;'>","null","","","","","","","","","",""
"","html-keyboard-response","100","471375","0.0-8.0-2.2","kmxcv54qdj","one_one","1","indirect_first","0","ür06el03","0","19","1","0","3","1","","0","1","0","null","","","<img src = 'targets/38.png' width = '100%;'>","null","","","","","","","","","",""
"","html-keyboard-response","101","473002","0.0-8.0-3.2","kmxcv54qdj","one_one","1","indirect_first","0","ür06el03","0","19","1","0","3","1","","0","1","0","1622.1299999742769","","","<img src = 'targets/mask.png' width = '100%;'>","68","neg","GS","GSold","3","category3/CS10.png","targets/38.png","0","indirect","2",""
"","html-keyboard-response","102","474529","0.0-8.0-0.3","kmxcv54qdj","one_one","1","indirect_first","0","ür06el03","0","19","1","0","3","1","","0","1","0","null","","","<div style=""font-size:60px;"">+</div>","null","","","","","","","","","",""
"","html-keyboard-response","103","474625","0.0-8.0-1.3","kmxcv54qdj","one_one","1","indirect_first","0","ür06el03","0","19","1","0","3","1","","0","1","0","null","","","<img src = 'category1/CS9.png' width = '100%;'>","null","","","","","","","","","",""
"","html-keyboard-response","104","474889","0.0-8.0-2.3","kmxcv54qdj","one_one","1","indirect_first","0","ür06el03","0","19","1","0","3","1","","0","1","0","null","","","<img src = 'targets/3.png' width = '100%;'>","null","","","","","","","","","",""
"","html-keyboard-response","105","476791","0.0-8.0-3.3","kmxcv54qdj","one_one","1","indirect_first","0","ür06el03","0","19","1","0","3","1","","0","1","0","1899.0800000028685","","","<img src = 'targets/mask.png' width = '100%;'>","75","pos","GS","GSold","1","category1/CS9.png","targets/3.png","1","indirect","3",""
"","html-keyboard-response","106","478308","0.0-8.0-0.4","kmxcv54qdj","one_one","1","indirect_first","0","ür06el03","0","19","1","0","3","1","","0","1","0","null","","","<div style=""font-size:60px;"">+</div>","null","","","","","","","","","",""
"","html-keyboard-response","107","478406","0.0-8.0-1.4","kmxcv54qdj","one_one","1","indirect_first","0","ür06el03","0","19","1","0","3","1","","0","1","0","null","","","<img src = 'category4/CS3.png' width = '100%;'>","null","","","","","","","","","",""
"","html-keyboard-response","108","478673","0.0-8.0-2.4","kmxcv54qdj","one_one","1","indirect_first","0","ür06el03","0","19","1","0","3","1","","0","1","0","null","","","<img src = 'targets/5.png' width = '100%;'>","null","","","","","","","","","",""
"","html-keyboard-response","109","481494","0.0-8.0-3.4","kmxcv54qdj","one_one","1","indirect_first","0","ür06el03","0","19","1","0","3","1","","0","1","0","2817.185000050813","","","<img src = 'targets/mask.png' width = '100%;'>","68","neg","CS","CS","4","category4/CS3.png","targets/5.png","0","indirect","4",""
"","html-keyboard-response","110","483013","0.0-8.0-0.5","kmxcv54qdj","one_one","1","indirect_first","0","ür06el03","0","19","1","0","3","1","","0","1","0","null","","","<div style=""font-size:60px;"">+</div>","null","","","","","","","","","",""
"","html-keyboard-response","111","483115","0.0-8.0-1.5","kmxcv54qdj","one_one","1","indirect_first","0","ür06el03","0","19","1","0","3","1","","0","1","0","null","","","<img src = 'category4/CS9.png' width = '100%;'>","null","","","","","","","","","",""
"","html-keyboard-response","112","483373","0.0-8.0-2.5","kmxcv54qdj","one_one","1","indirect_first","0","ür06el03","0","19","1","0","3","1","","0","1","0","null","","","<img src = 'targets/46.png' width = '100%;'>","null","","","","","","","","","",""
"","html-keyboard-response","113","486406","0.0-8.0-3.5","kmxcv54qdj","one_one","1","indirect_first","0","ür06el03","0","19","1","0","3","1","","0","1","0","3029.045000032056","","","<img src = 'targets/mask.png' width = '100%;'>","68","neg","GS","GSold","4","category4/CS9.png","targets/46.png","0","indirect","5",""
"","html-keyboard-response","114","487922","0.0-8.0-0.6","kmxcv54qdj","one_one","1","indirect_first","0","ür06el03","0","19","1","0","3","1","","0","1","0","null","","","<div style=""font-size:60px;"">+</div>","null","","","","","","","","","",""
"","html-keyboard-response","115","488014","0.0-8.0-1.6","kmxcv54qdj","one_one","1","indirect_first","0","ür06el03","0","19","1","0","3","1","","0","1","0","null","","","<img src = 'category4/CS6.png' width = '100%;'>","null","","","","","","","","","",""
"","html-keyboard-response","116","488277","0.0-8.0-2.6","kmxcv54qdj","one_one","1","indirect_first","0","ür06el03","0","19","1","0","3","1","","0","1","0","null","","","<img src = 'targets/26.png' width = '100%;'>","null","","","","","","","","","",""
"","html-keyboard-response","117","491928","0.0-8.0-3.6","kmxcv54qdj","one_one","1","indirect_first","0","ür06el03","0","19","1","0","3","1","","0","1","0","3647.2150000045076","","","<img src = 'targets/mask.png' width = '100%;'>","68","neg","GS","GSold","4","category4/CS6.png","targets/26.png","0","indirect","6",""
"","html-keyboard-response","118","493443","0.0-8.0-0.7","kmxcv54qdj","one_one","1","indirect_first","0","ür06el03","0","19","1","0","3","1","","0","1","0","null","","","<div style=""font-size:60px;"">+</div>","null","","","","","","","","","",""
"","html-keyboard-response","119","493542","0.0-8.0-1.7","kmxcv54qdj","one_one","1","indirect_first","0","ür06el03","0","19","1","0","3","1","","0","1","0","null","","","<img src = 'category2/CS6.png' width = '100%;'>","null","","","","","","","","","",""
"","html-keyboard-response","120","493803","0.0-8.0-2.7","kmxcv54qdj","one_one","1","indirect_first","0","ür06el03","0","19","1","0","3","1","","0","1","0","null","","","<img src = 'targets/16.png' width = '100%;'>","null","","","","","","","","","",""
"","html-keyboard-response","121","495317","0.0-8.0-3.7","kmxcv54qdj","one_one","1","indirect_first","0","ür06el03","0","19","1","0","3","1","","0","1","0","1511.0599999898113","","","<img src = 'targets/mask.png' width = '100%;'>","75","pos","GS","GSold","2","category2/CS6.png","targets/16.png","1","indirect","7",""
"","html-keyboard-response","122","496834","0.0-8.0-0.8","kmxcv54qdj","one_one","1","indirect_first","0","ür06el03","0","19","1","0","3","1","","0","1","0","null","","","<div style=""font-size:60px;"">+</div>","null","","","","","","","","","",""
"","html-keyboard-response","123","496929","0.0-8.0-1.8","kmxcv54qdj","one_one","1","indirect_first","0","ür06el03","0","19","1","0","3","1","","0","1","0","null","","","<img src = 'category2/CS7.png' width = '100%;'>","null","","","","","","","","","",""
"","html-keyboard-response","124","497188","0.0-8.0-2.8","kmxcv54qdj","one_one","1","indirect_first","0","ür06el03","0","19","1","0","3","1","","0","1","0","null","","","<img src = 'targets/23.png' width = '100%;'>","null","","","","","","","","","",""
"","html-keyboard-response","125","497979","0.0-8.0-3.8","kmxcv54qdj","one_one","1","indirect_first","0","ür06el03","0","19","1","0","3","1","","0","1","0","787.9850000026636","","","<img src = 'targets/mask.png' width = '100%;'>","75","pos","CS","CS","2","category2/CS7.png","targets/23.png","1","indirect","8",""
"","html-keyboard-response","126","499503","0.0-8.0-0.9","kmxcv54qdj","one_one","1","indirect_first","0","ür06el03","0","19","1","0","3","1","","0","1","0","null","","","<div style=""font-size:60px;"">+</div>","null","","","","","","","","","",""
"","html-keyboard-response","127","499596","0.0-8.0-1.9","kmxcv54qdj","one_one","1","indirect_first","0","ür06el03","0","19","1","0","3","1","","0","1","0","null","","","<img src = 'category3/CS7.png' width = '100%;'>","null","","","","","","","","","",""
"","html-keyboard-response","128","499864","0.0-8.0-2.9","kmxcv54qdj","one_one","1","indirect_first","0","ür06el03","0","19","1","0","3","1","","0","1","0","null","","","<img src = 'targets/17.png' width = '100%;'>","null","","","","","","","","","",""
"","html-keyboard-response","129","501324","0.0-8.0-3.9","kmxcv54qdj","one_one","1","indirect_first","0","ür06el03","0","19","1","0","3","1","","0","1","0","1457.025000010617","","","<img src = 'targets/mask.png' width = '100%;'>","68","neg","GS","GSold","3","category3/CS7.png","targets/17.png","0","indirect","9",""
"","html-keyboard-response","130","502833","0.0-8.0-0.10","kmxcv54qdj","one_one","1","indirect_first","0","ür06el03","0","19","1","0","3","1","","0","1","0","null","","","<div style=""font-size:60px;"">+</div>","null","","","","","","","","","",""
"","html-keyboard-response","131","502927","0.0-8.0-1.10","kmxcv54qdj","one_one","1","indirect_first","0","ür06el03","0","19","1","0","3","1","","0","1","0","null","","","<img src = 'category1/CS3.png' width = '100%;'>","null","","","","","","","","","",""
"","html-keyboard-response","132","503185","0.0-8.0-2.10","kmxcv54qdj","one_one","1","indirect_first","0","ür06el03","0","19","1","0","3","1","","0","1","0","null","","","<img src = 'targets/30.png' width = '100%;'>","null","","","","","","","","","",""
"","html-keyboard-response","133","512163","0.0-8.0-3.10","kmxcv54qdj","one_one","1","indirect_first","0","ür06el03","0","19","1","0","3","1","","0","1","0","8975.414999993518","","","<img src = 'targets/mask.png' width = '100%;'>","75","pos","CS","CS","1","category1/CS3.png","targets/30.png","1","indirect","10",""
"","html-keyboard-response","134","513671","0.0-8.0-0.11","kmxcv54qdj","one_one","1","indirect_first","0","ür06el03","0","19","1","0","3","1","","0","1","0","null","","","<div style=""font-size:60px;"">+</div>","null","","","","","","","","","",""
"","html-keyboard-response","135","513766","0.0-8.0-1.11","kmxcv54qdj","one_one","1","indirect_first","0","ür06el03","0","19","1","0","3","1","","0","1","0","null","","","<img src = 'category3/CS3.png' width = '100%;'>","null","","","","","","","","","",""
"","html-keyboard-response","136","514025","0.0-8.0-2.11","kmxcv54qdj","one_one","1","indirect_first","0","ür06el03","0","19","1","0","3","1","","0","1","0","null","","","<img src = 'targets/15.png' width = '100%;'>","null","","","","","","","","","",""
"","html-keyboard-response","137","516062","0.0-8.0-3.11","kmxcv54qdj","one_one","1","indirect_first","0","ür06el03","0","19","1","0","3","1","","0","1","0","2033.289999992121","","","<img src = 'targets/mask.png' width = '100%;'>","68","neg","GS","GSold","3","category3/CS3.png","targets/15.png","0","indirect","11",""
"","html-keyboard-response","138","517589","0.0-8.0-0.12","kmxcv54qdj","one_one","1","indirect_first","0","ür06el03","0","19","1","0","3","1","","0","1","0","null","","","<div style=""font-size:60px;"">+</div>","null","","","","","","","","","",""
"","html-keyboard-response","139","517682","0.0-8.0-1.12","kmxcv54qdj","one_one","1","indirect_first","0","ür06el03","0","19","1","0","3","1","","0","1","0","null","","","<img src = 'category4/CS10.png' width = '100%;'>","null","","","","","","","","","",""
"","html-keyboard-response","140","517941","0.0-8.0-2.12","kmxcv54qdj","one_one","1","indirect_first","0","ür06el03","0","19","1","0","3","1","","0","1","0","null","","","<img src = 'targets/39.png' width = '100%;'>","null","","","","","","","","","",""
"","html-keyboard-response","141","523955","0.0-8.0-3.12","kmxcv54qdj","one_one","1","indirect_first","0","ür06el03","0","19","1","0","3","1","","0","1","0","6011.509999982081","","","<img src = 'targets/mask.png' width = '100%;'>","68","neg","GS","GSold","4","category4/CS10.png","targets/39.png","0","indirect","12",""
"","html-keyboard-response","142","525480","0.0-8.0-0.13","kmxcv54qdj","one_one","1","indirect_first","0","ür06el03","0","19","1","0","3","1","","0","1","0","null","","","<div style=""font-size:60px;"">+</div>","null","","","","","","","","","",""
"","html-keyboard-response","143","525579","0.0-8.0-1.13","kmxcv54qdj","one_one","1","indirect_first","0","ür06el03","0","19","1","0","3","1","","0","1","0","null","","","<img src = 'category1/CS1.png' width = '100%;'>","null","","","","","","","","","",""
"","html-keyboard-response","144","525848","0.0-8.0-2.13","kmxcv54qdj","one_one","1","indirect_first","0","ür06el03","0","19","1","0","3","1","","0","1","0","null","","","<img src = 'targets/8.png' width = '100%;'>","null","","","","","","","","","",""
"","html-keyboard-response","145","527497","0.0-8.0-3.13","kmxcv54qdj","one_one","1","indirect_first","0","ür06el03","0","19","1","0","3","1","","0","1","0","1644.205000018701","","","<img src = 'targets/mask.png' width = '100%;'>","75","pos","GS","GSold","1","category1/CS1.png","targets/8.png","1","indirect","13",""
"","html-keyboard-response","146","529022","0.0-8.0-0.14","kmxcv54qdj","one_one","1","indirect_first","0","ür06el03","0","19","1","0","3","1","","0","1","0","null","","","<div style=""font-size:60px;"">+</div>","null","","","","","","","","","",""
"","html-keyboard-response","147","529118","0.0-8.0-1.14","kmxcv54qdj","one_one","1","indirect_first","0","ür06el03","0","19","1","0","3","1","","0","1","0","null","","","<img src = 'category3/CS2.png' width = '100%;'>","null","","","","","","","","","",""
"","html-keyboard-response","148","529378","0.0-8.0-2.14","kmxcv54qdj","one_one","1","indirect_first","0","ür06el03","0","19","1","0","3","1","","0","1","0","null","","","<img src = 'targets/33.png' width = '100%;'>","null","","","","","","","","","",""
"","html-keyboard-response","149","530450","0.0-8.0-3.14","kmxcv54qdj","one_one","1","indirect_first","0","ür06el03","0","19","1","0","3","1","","0","1","0","1068.805000046268","","","<img src = 'targets/mask.png' width = '100%;'>","68","neg","CS","CS","3","category3/CS2.png","targets/33.png","0","indirect","14",""
"","html-keyboard-response","150","531962","0.0-8.0-0.15","kmxcv54qdj","one_one","1","indirect_first","0","ür06el03","0","19","1","0","3","1","","0","1","0","null","","","<div style=""font-size:60px;"">+</div>","null","","","","","","","","","",""
"","html-keyboard-response","151","532058","0.0-8.0-1.15","kmxcv54qdj","one_one","1","indirect_first","0","ür06el03","0","19","1","0","3","1","","0","1","0","null","","","<img src = 'category2/CS3.png' width = '100%;'>","null","","","","","","","","","",""
"","html-keyboard-response","152","532316","0.0-8.0-2.15","kmxcv54qdj","one_one","1","indirect_first","0","ür06el03","0","19","1","0","3","1","","0","1","0","null","","","<img src = 'targets/24.png' width = '100%;'>","null","","","","","","","","","",""
"","html-keyboard-response","153","533336","0.0-8.0-3.15","kmxcv54qdj","one_one","1","indirect_first","0","ür06el03","0","19","1","0","3","1","","0","1","0","1017.0250000082888","","","<img src = 'targets/mask.png' width = '100%;'>","75","pos","GS","GSold","2","category2/CS3.png","targets/24.png","1","indirect","15",""
"","survey-html-form","154","535671","0.0-9.0","kmxcv54qdj","one_one","1","indirect_first","0","ür06el03","0","19","1","0","3","1","","0","1","0","1825.3050000057556","","{}","","","","","","","","","","","",""
"","html-keyboard-response","155","538693","0.0-10.0-0.0","kmxcv54qdj","one_one","1","indirect_first","0","ür06el03","0","19","1","0","3","1","","0","1","0","null","","","<div style=""font-size:60px;"">+</div>","null","","","","","","","","","",""
"","html-keyboard-response","156","538790","0.0-10.0-1.0","kmxcv54qdj","one_one","1","indirect_first","0","ür06el03","0","19","1","0","3","1","","0","1","0","null","","","<img src = 'category4/GS3.png' width = '100%;'>","null","","","","","","","","","",""
"","html-keyboard-response","157","539059","0.0-10.0-2.0","kmxcv54qdj","one_one","1","indirect_first","0","ür06el03","0","19","1","0","3","1","","0","1","0","null","","","<img src = 'targets/43.png' width = '100%;'>","null","","","","","","","","","",""
"","html-keyboard-response","158","540224","0.0-10.0-3.0","kmxcv54qdj","one_one","1","indirect_first","0","ür06el03","0","19","1","0","3","1","","0","1","0","1161.4149999804795","","","<img src = 'targets/mask.png' width = '100%;'>","75","neg","GS","GSnew","4","category4/GS3.png","targets/43.png","1","indirect","16",""
"","html-keyboard-response","159","541733","0.0-10.0-0.1","kmxcv54qdj","one_one","1","indirect_first","0","ür06el03","0","19","1","0","3","1","","0","1","0","null","","","<div style=""font-size:60px;"">+</div>","null","","","","","","","","","",""
"","html-keyboard-response","160","541829","0.0-10.0-1.1","kmxcv54qdj","one_one","1","indirect_first","0","ür06el03","0","19","1","0","3","1","","0","1","0","null","","","<img src = 'category3/GS2.png' width = '100%;'>","null","","","","","","","","","",""
"","html-keyboard-response","161","542091","0.0-10.0-2.1","kmxcv54qdj","one_one","1","indirect_first","0","ür06el03","0","19","1","0","3","1","","0","1","0","null","","","<img src = 'targets/10.png' width = '100%;'>","null","","","","","","","","","",""
"","html-keyboard-response","162","543292","0.0-10.0-3.1","kmxcv54qdj","one_one","1","indirect_first","0","ür06el03","0","19","1","0","3","1","","0","1","0","1198.9199999952689","","","<img src = 'targets/mask.png' width = '100%;'>","75","neg","GS","GSnew","3","category3/GS2.png","targets/10.png","1","indirect","17",""
"","html-keyboard-response","163","544819","0.0-10.0-0.2","kmxcv54qdj","one_one","1","indirect_first","0","ür06el03","0","19","1","0","3","1","","0","1","0","null","","","<div style=""font-size:60px;"">+</div>","null","","","","","","","","","",""
"","html-keyboard-response","164","544910","0.0-10.0-1.2","kmxcv54qdj","one_one","1","indirect_first","0","ür06el03","0","19","1","0","3","1","","0","1","0","null","","","<img src = 'category4/lin.png' width = '100%;'>","null","","","","","","","","","",""
"","html-keyboard-response","165","545175","0.0-10.0-2.2","kmxcv54qdj","one_one","1","indirect_first","0","ür06el03","0","19","1","0","3","1","","0","1","0","null","","","<img src = 'targets/21.png' width = '100%;'>","null","","","","","","","","","",""
"","html-keyboard-response","166","546051","0.0-10.0-3.2","kmxcv54qdj","one_one","1","indirect_first","0","ür06el03","0","19","1","0","3","1","","0","1","0","872.9649999877438","","","<img src = 'targets/mask.png' width = '100%;'>","75","neg","GS","abstract","4","category4/lin.png","targets/21.png","1","indirect","18",""
"","html-keyboard-response","167","547567","0.0-10.0-0.3","kmxcv54qdj","one_one","1","indirect_first","0","ür06el03","0","19","1","0","3","1","","0","1","0","null","","","<div style=""font-size:60px;"">+</div>","null","","","","","","","","","",""
"","html-keyboard-response","168","547675","0.0-10.0-1.3","kmxcv54qdj","one_one","1","indirect_first","0","ür06el03","0","19","1","0","3","1","","0","1","0","null","","","<img src = 'category4/GS2.png' width = '100%;'>","null","","","","","","","","","",""
"","html-keyboard-response","169","547932","0.0-10.0-2.3","kmxcv54qdj","one_one","1","indirect_first","0","ür06el03","0","19","1","0","3","1","","0","1","0","null","","","<img src = 'targets/25.png' width = '100%;'>","null","","","","","","","","","",""
"","html-keyboard-response","170","548844","0.0-10.0-3.3","kmxcv54qdj","one_one","1","indirect_first","0","ür06el03","0","19","1","0","3","1","","0","1","0","910.3549999999814","","","<img src = 'targets/mask.png' width = '100%;'>","68","neg","GS","GSnew","4","category4/GS2.png","targets/25.png","0","indirect","19",""
"","html-keyboard-response","171","550374","0.0-10.0-0.4","kmxcv54qdj","one_one","1","indirect_first","0","ür06el03","0","19","1","0","3","1","","0","1","0","null","","","<div style=""font-size:60px;"">+</div>","null","","","","","","","","","",""
"","html-keyboard-response","172","550468","0.0-10.0-1.4","kmxcv54qdj","one_one","1","indirect_first","0","ür06el03","0","19","1","0","3","1","","0","1","0","null","","","<img src = 'category2/GS2.png' width = '100%;'>","null","","","","","","","","","",""
"","html-keyboard-response","173","550724","0.0-10.0-2.4","kmxcv54qdj","one_one","1","indirect_first","0","ür06el03","0","19","1","0","3","1","","0","1","0","null","","","<img src = 'targets/28.png' width = '100%;'>","null","","","","","","","","","",""
"","html-keyboard-response","174","551624","0.0-10.0-3.4","kmxcv54qdj","one_one","1","indirect_first","0","ür06el03","0","19","1","0","3","1","","0","1","0","897.2450000001118","","","<img src = 'targets/mask.png' width = '100%;'>","75","pos","GS","GSnew","2","category2/GS2.png","targets/28.png","1","indirect","20",""
"","html-keyboard-response","175","553140","0.0-10.0-0.5","kmxcv54qdj","one_one","1","indirect_first","0","ür06el03","0","19","1","0","3","1","","0","1","0","null","","","<div style=""font-size:60px;"">+</div>","null","","","","","","","","","",""
"","html-keyboard-response","176","553236","0.0-10.0-1.5","kmxcv54qdj","one_one","1","indirect_first","0","ür06el03","0","19","1","0","3","1","","0","1","0","null","","","<img src = 'category1/ma.png' width = '100%;'>","null","","","","","","","","","",""
"","html-keyboard-response","177","553506","0.0-10.0-2.5","kmxcv54qdj","one_one","1","indirect_first","0","ür06el03","0","19","1","0","3","1","","0","1","0","null","","","<img src = 'targets/6.png' width = '100%;'>","null","","","","","","","","","",""
"","html-keyboard-response","178","555250","0.0-10.0-3.5","kmxcv54qdj","one_one","1","indirect_first","0","ür06el03","0","19","1","0","3","1","","0","1","0","1741.8100000359118","","","<img src = 'targets/mask.png' width = '100%;'>","75","pos","GS","abstract","1","category1/ma.png","targets/6.png","1","indirect","21",""
"","html-keyboard-response","179","556761","0.0-10.0-0.6","kmxcv54qdj","one_one","1","indirect_first","0","ür06el03","0","19","1","0","3","1","","0","1","0","null","","","<div style=""font-size:60px;"">+</div>","null","","","","","","","","","",""
"","html-keyboard-response","180","556854","0.0-10.0-1.6","kmxcv54qdj","one_one","1","indirect_first","0","ür06el03","0","19","1","0","3","1","","0","1","0","null","","","<img src = 'category2/GS3.png' width = '100%;'>","null","","","","","","","","","",""
"","html-keyboard-response","181","557116","0.0-10.0-2.6","kmxcv54qdj","one_one","1","indirect_first","0","ür06el03","0","19","1","0","3","1","","0","1","0","null","","","<img src = 'targets/14.png' width = '100%;'>","null","","","","","","","","","",""
"","html-keyboard-response","182","557717","0.0-10.0-3.6","kmxcv54qdj","one_one","1","indirect_first","0","ür06el03","0","19","1","0","3","1","","0","1","0","597.6399999926798","","","<img src = 'targets/mask.png' width = '100%;'>","68","pos","GS","GSnew","2","category2/GS3.png","targets/14.png","0","indirect","22",""
"","html-keyboard-response","183","559239","0.0-10.0-0.7","kmxcv54qdj","one_one","1","indirect_first","0","ür06el03","0","19","1","0","3","1","","0","1","0","null","","","<div style=""font-size:60px;"">+</div>","null","","","","","","","","","",""
"","html-keyboard-response","184","559339","0.0-10.0-1.7","kmxcv54qdj","one_one","1","indirect_first","0","ür06el03","0","19","1","0","3","1","","0","1","0","null","","","<img src = 'category1/GS2.png' width = '100%;'>","null","","","","","","","","","",""
"","html-keyboard-response","185","559599","0.0-10.0-2.7","kmxcv54qdj","one_one","1","indirect_first","0","ür06el03","0","19","1","0","3","1","","0","1","0","null","","","<img src = 'targets/34.png' width = '100%;'>","null","","","","","","","","","",""
"","html-keyboard-response","186","560332","0.0-10.0-3.7","kmxcv54qdj","one_one","1","indirect_first","0","ür06el03","0","19","1","0","3","1","","0","1","0","731.2050000182353","","","<img src = 'targets/mask.png' width = '100%;'>","75","pos","GS","GSnew","1","category1/GS2.png","targets/34.png","1","indirect","23",""
"","html-keyboard-response","187","561838","0.0-10.0-0.8","kmxcv54qdj","one_one","1","indirect_first","0","ür06el03","0","19","1","0","3","1","","0","1","0","null","","","<div style=""font-size:60px;"">+</div>","null","","","","","","","","","",""
"","html-keyboard-response","188","561931","0.0-10.0-1.8","kmxcv54qdj","one_one","1","indirect_first","0","ür06el03","0","19","1","0","3","1","","0","1","0","null","","","<img src = 'category3/wang.png' width = '100%;'>","null","","","","","","","","","",""
"","html-keyboard-response","189","562188","0.0-10.0-2.8","kmxcv54qdj","one_one","1","indirect_first","0","ür06el03","0","19","1","0","3","1","","0","1","0","null","","","<img src = 'targets/22.png' width = '100%;'>","null","","","","","","","","","",""
"","html-keyboard-response","190","563214","0.0-10.0-3.8","kmxcv54qdj","one_one","1","indirect_first","0","ür06el03","0","19","1","0","3","1","","0","1","0","1024.2100000032224","","","<img src = 'targets/mask.png' width = '100%;'>","68","neg","GS","abstract","3","category3/wang.png","targets/22.png","0","indirect","24",""
"","html-keyboard-response","191","564735","0.0-10.0-0.9","kmxcv54qdj","one_one","1","indirect_first","0","ür06el03","0","19","1","0","3","1","","0","1","0","null","","","<div style=""font-size:60px;"">+</div>","null","","","","","","","","","",""
"","html-keyboard-response","192","564829","0.0-10.0-1.9","kmxcv54qdj","one_one","1","indirect_first","0","ür06el03","0","19","1","0","3","1","","0","1","0","null","","","<img src = 'category3/GS3.png' width = '100%;'>","null","","","","","","","","","",""
"","html-keyboard-response","193","565087","0.0-10.0-2.9","kmxcv54qdj","one_one","1","indirect_first","0","ür06el03","0","19","1","0","3","1","","0","1","0","null","","","<img src = 'targets/20.png' width = '100%;'>","null","","","","","","","","","",""
"","html-keyboard-response","194","566606","0.0-10.0-3.9","kmxcv54qdj","one_one","1","indirect_first","0","ür06el03","0","19","1","0","3","1","","0","1","0","1516.204999992624","","","<img src = 'targets/mask.png' width = '100%;'>","68","neg","GS","GSnew","3","category3/GS3.png","targets/20.png","0","indirect","25",""
"","html-keyboard-response","195","568114","0.0-10.0-0.10","kmxcv54qdj","one_one","1","indirect_first","0","ür06el03","0","19","1","0","3","1","","0","1","0","null","","","<div style=""font-size:60px;"">+</div>","null","","","","","","","","","",""
"","html-keyboard-response","196","568207","0.0-10.0-1.10","kmxcv54qdj","one_one","1","indirect_first","0","ür06el03","0","19","1","0","3","1","","0","1","0","null","","","<img src = 'category2/men.png' width = '100%;'>","null","","","","","","","","","",""
"","html-keyboard-response","197","568486","0.0-10.0-2.10","kmxcv54qdj","one_one","1","indirect_first","0","ür06el03","0","19","1","0","3","1","","0","1","0","null","","","<img src = 'targets/31.png' width = '100%;'>","null","","","","","","","","","",""
"","html-keyboard-response","198","570229","0.0-10.0-3.10","kmxcv54qdj","one_one","1","indirect_first","0","ür06el03","0","19","1","0","3","1","","0","1","0","1739.3750000046566","","","<img src = 'targets/mask.png' width = '100%;'>","75","pos","GS","abstract","2","category2/men.png","targets/31.png","1","indirect","26",""
"","html-keyboard-response","199","571752","0.0-10.0-0.11","kmxcv54qdj","one_one","1","indirect_first","0","ür06el03","0","19","1","0","3","1","","0","1","0","null","","","<div style=""font-size:60px;"">+</div>","null","","","","","","","","","",""
"","html-keyboard-response","200","571845","0.0-10.0-1.11","kmxcv54qdj","one_one","1","indirect_first","0","ür06el03","0","19","1","0","3","1","","0","1","0","null","","","<img src = 'category1/GS1.png' width = '100%;'>","null","","","","","","","","","",""
"","html-keyboard-response","201","572103","0.0-10.0-2.11","kmxcv54qdj","one_one","1","indirect_first","0","ür06el03","0","19","1","0","3","1","","0","1","0","null","","","<img src = 'targets/32.png' width = '100%;'>","null","","","","","","","","","",""
"","html-keyboard-response","202","574882","0.0-10.0-3.11","kmxcv54qdj","one_one","1","indirect_first","0","ür06el03","0","19","1","0","3","1","","0","1","0","2777.0549999549985","","","<img src = 'targets/mask.png' width = '100%;'>","75","pos","GS","GSnew","1","category1/GS1.png","targets/32.png","1","indirect","27",""
"","html-keyboard-response","203","576397","0.0-10.0-0.12","kmxcv54qdj","one_one","1","indirect_first","0","ür06el03","0","19","1","0","3","1","","0","1","0","null","","","<div style=""font-size:60px;"">+</div>","null","","","","","","","","","",""
"","html-keyboard-response","204","576501","0.0-10.0-1.12","kmxcv54qdj","one_one","1","indirect_first","0","ür06el03","0","19","1","0","3","1","","0","1","0","null","","","<img src = 'category3/GS1.png' width = '100%;'>","null","","","","","","","","","",""
"","html-keyboard-response","205","576767","0.0-10.0-2.12","kmxcv54qdj","one_one","1","indirect_first","0","ür06el03","0","19","1","0","3","1","","0","1","0","null","","","<img src = 'targets/42.png' width = '100%;'>","null","","","","","","","","","",""
"","html-keyboard-response","206","578023","0.0-10.0-3.12","kmxcv54qdj","one_one","1","indirect_first","0","ür06el03","0","19","1","0","3","1","","0","1","0","1252.5750000495464","","","<img src = 'targets/mask.png' width = '100%;'>","68","neg","GS","GSnew","3","category3/GS1.png","targets/42.png","0","indirect","28",""
"","html-keyboard-response","207","579544","0.0-10.0-0.13","kmxcv54qdj","one_one","1","indirect_first","0","ür06el03","0","19","1","0","3","1","","0","1","0","null","","","<div style=""font-size:60px;"">+</div>","null","","","","","","","","","",""
"","html-keyboard-response","208","579637","0.0-10.0-1.13","kmxcv54qdj","one_one","1","indirect_first","0","ür06el03","0","19","1","0","3","1","","0","1","0","null","","","<img src = 'category2/GS1.png' width = '100%;'>","null","","","","","","","","","",""
"","html-keyboard-response","209","579894","0.0-10.0-2.13","kmxcv54qdj","one_one","1","indirect_first","0","ür06el03","0","19","1","0","3","1","","0","1","0","null","","","<img src = 'targets/35.png' width = '100%;'>","null","","","","","","","","","",""
"","html-keyboard-response","210","581236","0.0-10.0-3.13","kmxcv54qdj","one_one","1","indirect_first","0","ür06el03","0","19","1","0","3","1","","0","1","0","1340.120000008028","","","<img src = 'targets/mask.png' width = '100%;'>","75","pos","GS","GSnew","2","category2/GS1.png","targets/35.png","1","indirect","29",""
"","html-keyboard-response","211","582749","0.0-10.0-0.14","kmxcv54qdj","one_one","1","indirect_first","0","ür06el03","0","19","1","0","3","1","","0","1","0","null","","","<div style=""font-size:60px;"">+</div>","null","","","","","","","","","",""
"","html-keyboard-response","212","582843","0.0-10.0-1.14","kmxcv54qdj","one_one","1","indirect_first","0","ür06el03","0","19","1","0","3","1","","0","1","0","null","","","<img src = 'category4/GS1.png' width = '100%;'>","null","","","","","","","","","",""
"","html-keyboard-response","213","583116","0.0-10.0-2.14","kmxcv54qdj","one_one","1","indirect_first","0","ür06el03","0","19","1","0","3","1","","0","1","0","null","","","<img src = 'targets/11.png' width = '100%;'>","null","","","","","","","","","",""
"","html-keyboard-response","214","584284","0.0-10.0-3.14","kmxcv54qdj","one_one","1","indirect_first","0","ür06el03","0","19","1","0","3","1","","0","1","0","1164.8399999830872","","","<img src = 'targets/mask.png' width = '100%;'>","68","neg","GS","GSnew","4","category4/GS1.png","targets/11.png","0","indirect","30",""
"","html-keyboard-response","215","585799","0.0-10.0-0.15","kmxcv54qdj","one_one","1","indirect_first","0","ür06el03","0","19","1","0","3","1","","0","1","0","null","","","<div style=""font-size:60px;"">+</div>","null","","","","","","","","","",""
"","html-keyboard-response","216","585891","0.0-10.0-1.15","kmxcv54qdj","one_one","1","indirect_first","0","ür06el03","0","19","1","0","3","1","","0","1","0","null","","","<img src = 'category1/GS3.png' width = '100%;'>","null","","","","","","","","","",""
"","html-keyboard-response","217","586146","0.0-10.0-2.15","kmxcv54qdj","one_one","1","indirect_first","0","ür06el03","0","19","1","0","3","1","","0","1","0","null","","","<img src = 'targets/36.png' width = '100%;'>","null","","","","","","","","","",""
"","html-keyboard-response","218","586695","0.0-10.0-3.15","kmxcv54qdj","one_one","1","indirect_first","0","ür06el03","0","19","1","0","3","1","","0","1","0","547.275000018999","","","<img src = 'targets/mask.png' width = '100%;'>","75","pos","GS","GSnew","1","category1/GS3.png","targets/36.png","1","indirect","31",""
"","survey-html-form","219","593156","0.0-11.0","kmxcv54qdj","one_one","1","indirect_first","0","ür06el03","0","19","1","0","3","1","","0","1","0","5956.124999967869","","{}","","","","","","","","","","","",""
"","image-slider-response","220","602639","0.0-12.0-0.0","kmxcv54qdj","one_one","1","indirect_first","0","ür06el03","0","19","1","0","3","1","","0","1","0","7463.41999998549","","","","","pos","GS","GSnew","1","category1/GS1.png","targets/32.png","","direct","","41"
"","image-slider-response","221","606780","0.0-12.0-0.1","kmxcv54qdj","one_one","1","indirect_first","0","ür06el03","0","19","1","0","3","1","","0","1","0","4136.074999987613","","","","","neg","GS","GSold","4","category4/CS9.png","targets/46.png","","direct","","63"
"","image-slider-response","222","611385","0.0-12.0-0.2","kmxcv54qdj","one_one","1","indirect_first","0","ür06el03","0","19","1","0","3","1","","0","1","0","4599.214999994729","","","","","pos","GS","GSold","2","category2/CS6.png","targets/16.png","","direct","","41"
"","image-slider-response","223","614949","0.0-12.0-0.3","kmxcv54qdj","one_one","1","indirect_first","0","ür06el03","0","19","1","0","3","1","","0","1","0","3558.019999996759","","","","","pos","GS","GSnew","2","category2/GS1.png","targets/35.png","","direct","","11"
"","image-slider-response","224","618681","0.0-12.0-0.4","kmxcv54qdj","one_one","1","indirect_first","0","ür06el03","0","19","1","0","3","1","","0","1","0","3727.2050000028685","","","","","neg","GS","GSold","3","category3/CS10.png","targets/38.png","","direct","","-58"
"","image-slider-response","225","621777","0.0-12.0-0.5","kmxcv54qdj","one_one","1","indirect_first","0","ür06el03","0","19","1","0","3","1","","0","1","0","3089.864999987185","","","","","neg","GS","abstract","3","category3/wang.png","targets/22.png","","direct","","-32"
"","image-slider-response","226","625544","0.0-12.0-0.6","kmxcv54qdj","one_one","1","indirect_first","0","ür06el03","0","19","1","0","3","1","","0","1","0","3760.245000012219","","","","","neg","GS","abstract","4","category4/lin.png","targets/21.png","","direct","","-49"
"","image-slider-response","227","631015","0.0-12.0-0.7","kmxcv54qdj","one_one","1","indirect_first","0","ür06el03","0","19","1","0","3","1","","0","1","0","5465.604999975767","","","","","neg","GS","GSnew","4","category4/GS2.png","targets/25.png","","direct","","24"
"","image-slider-response","228","634234","0.0-12.0-0.8","kmxcv54qdj","one_one","1","indirect_first","0","ür06el03","0","19","1","0","3","1","","0","1","0","3213.709999981802","","","","","neg","GS","GSnew","4","category4/GS1.png","targets/11.png","","direct","","-35"
"","image-slider-response","229","637140","0.0-12.0-0.9","kmxcv54qdj","one_one","1","indirect_first","0","ür06el03","0","19","1","0","3","1","","0","1","0","2901.3600000180304","","","","","pos","GS","GSnew","1","category1/GS3.png","targets/36.png","","direct","","45"
"","image-slider-response","230","639990","0.0-12.0-0.10","kmxcv54qdj","one_one","1","indirect_first","0","ür06el03","0","19","1","0","3","1","","0","1","0","2845.7699999562465","","","","","neg","GS","GSnew","3","category3/GS2.png","targets/10.png","","direct","","-59"
"","image-slider-response","231","650930","0.0-12.0-0.11","kmxcv54qdj","one_one","1","indirect_first","0","ür06el03","0","19","1","0","3","1","","0","1","0","10934.695000003558","","","","","neg","CS","CS","3","category3/CS2.png","targets/33.png","","direct","","-68"
"","image-slider-response","232","653787","0.0-12.0-0.12","kmxcv54qdj","one_one","1","indirect_first","0","ür06el03","0","19","1","0","3","1","","0","1","0","2851.074999955017","","","","","pos","GS","GSold","1","category1/CS9.png","targets/3.png","","direct","","60"
"","image-slider-response","233","658286","0.0-12.0-0.13","kmxcv54qdj","one_one","1","indirect_first","0","ür06el03","0","19","1","0","3","1","","0","1","0","4495.059999986552","","","","","pos","GS","GSnew","1","category1/GS2.png","targets/34.png","","direct","","-5"
"","image-slider-response","234","663358","0.0-12.0-0.14","kmxcv54qdj","one_one","1","indirect_first","0","ür06el03","0","19","1","0","3","1","","0","1","0","5067.340000008699","","","","","neg","CS","CS","4","category4/CS3.png","targets/5.png","","direct","","-65"
"","image-slider-response","235","666852","0.0-12.0-0.15","kmxcv54qdj","one_one","1","indirect_first","0","ür06el03","0","19","1","0","3","1","","0","1","0","3489.4250000361353","","","","","pos","CS","CS","2","category2/CS7.png","targets/23.png","","direct","","72"
"","image-slider-response","236","669924","0.0-12.0-0.16","kmxcv54qdj","one_one","1","indirect_first","0","ür06el03","0","19","1","0","3","1","","0","1","0","3067.414999997709","","","","","pos","GS","GSnew","2","category2/GS3.png","targets/14.png","","direct","","-29"
"","image-slider-response","237","672641","0.0-12.0-0.17","kmxcv54qdj","one_one","1","indirect_first","0","ür06el03","0","19","1","0","3","1","","0","1","0","2709.664999973029","","","","","pos","CS","CS","1","category1/CS3.png","targets/30.png","","direct","","44"
"","image-slider-response","238","675566","0.0-12.0-0.18","kmxcv54qdj","one_one","1","indirect_first","0","ür06el03","0","19","1","0","3","1","","0","1","0","2921.555000008084","","","","","pos","GS","abstract","2","category2/men.png","targets/31.png","","direct","","46"
"","image-slider-response","239","678465","0.0-12.0-0.19","kmxcv54qdj","one_one","1","indirect_first","0","ür06el03","0","19","1","0","3","1","","0","1","0","2894.8400000226684","","","","","neg","GS","GSnew","3","category3/GS3.png","targets/20.png","","direct","","-44"
"","image-slider-response","240","681547","0.0-12.0-0.20","kmxcv54qdj","one_one","1","indirect_first","0","ür06el03","0","19","1","0","3","1","","0","1","0","3077.9449999681674","","","","","neg","GS","GSold","4","category4/CS6.png","targets/26.png","","direct","","-57"
"","image-slider-response","241","684558","0.0-12.0-0.21","kmxcv54qdj","one_one","1","indirect_first","0","ür06el03","0","19","1","0","3","1","","0","1","0","3007.5850000139326","","","","","neg","GS","GSold","3","category3/CS7.png","targets/17.png","","direct","","-60"
"","image-slider-response","242","687637","0.0-12.0-0.22","kmxcv54qdj","one_one","1","indirect_first","0","ür06el03","0","19","1","0","3","1","","0","1","0","3076.869999989867","","","","","pos","GS","GSold","1","category1/CS8.png","targets/1.png","","direct","","50"
"","image-slider-response","243","690745","0.0-12.0-0.23","kmxcv54qdj","one_one","1","indirect_first","0","ür06el03","0","19","1","0","3","1","","0","1","0","3102.454999985639","","","","","pos","GS","GSnew","2","category2/GS2.png","targets/28.png","","direct","","-45"
"","image-slider-response","244","694577","0.0-12.0-0.24","kmxcv54qdj","one_one","1","indirect_first","0","ür06el03","0","19","1","0","3","1","","0","1","0","3829.3350000167266","","","","","pos","GS","GSold","1","category1/CS1.png","targets/8.png","","direct","","2"
"","image-slider-response","245","698154","0.0-12.0-0.25","kmxcv54qdj","one_one","1","indirect_first","0","ür06el03","0","19","1","0","3","1","","0","1","0","3571.1799999698997","","","","","pos","GS","GSold","2","category2/CS3.png","targets/24.png","","direct","","6"
"","image-slider-response","246","701030","0.0-12.0-0.26","kmxcv54qdj","one_one","1","indirect_first","0","ür06el03","0","19","1","0","3","1","","0","1","0","2870.924999995623","","","","","neg","GS","GSold","3","category3/CS3.png","targets/15.png","","direct","","-33"
"","image-slider-response","247","703809","0.0-12.0-0.27","kmxcv54qdj","one_one","1","indirect_first","0","ür06el03","0","19","1","0","3","1","","0","1","0","2773.9500000025146","","","","","pos","GS","GSold","2","category2/CS1.png","targets/18.png","","direct","","24"
"","image-slider-response","248","706808","0.0-12.0-0.28","kmxcv54qdj","one_one","1","indirect_first","0","ür06el03","0","19","1","0","3","1","","0","1","0","2994.414999964647","","","","","neg","GS","GSold","4","category4/CS10.png","targets/39.png","","direct","","-31"
"","image-slider-response","249","710168","0.0-12.0-0.29","kmxcv54qdj","one_one","1","indirect_first","0","ür06el03","0","19","1","0","3","1","","0","1","0","3356.0249999864027","","","","","neg","GS","GSnew","4","category4/GS3.png","targets/43.png","","direct","","-16"
"","image-slider-response","250","713098","0.0-12.0-0.30","kmxcv54qdj","one_one","1","indirect_first","0","ür06el03","0","19","1","0","3","1","","0","1","0","2923.899999994319","","","","","neg","GS","GSnew","3","category3/GS1.png","targets/42.png","","direct","","-43"
"","image-slider-response","251","716340","0.0-12.0-0.31","kmxcv54qdj","one_one","1","indirect_first","0","ür06el03","0","19","1","0","3","1","","0","1","0","3238.450000004377","","","","","pos","GS","abstract","1","category1/ma.png","targets/6.png","","direct","","41"
"","survey-html-form","252","718747","0.0-13.0","kmxcv54qdj","one_one","1","indirect_first","0","ür06el03","0","19","1","0","3","1","","0","1","0","2403.999999980442","","{}","","","","","","","","","","","",""
"","image-slider-response","253","727588","0.0-14.0-0.0","kmxcv54qdj","one_one","1","indirect_first","0","ür06el03","0","19","1","0","3","1","","0","1","0","7830.874999985099","","","","","pos","All","all","2","category2/men_all.png","","","all","","22"
"","image-slider-response","254","730686","0.0-14.0-0.1","kmxcv54qdj","one_one","1","indirect_first","0","ür06el03","0","19","1","0","3","1","","0","1","0","3093.2449999963865","","","","","neg","All","all","4","category4/lin_all.png","","","all","","-20"
"","image-slider-response","255","734536","0.0-14.0-0.2","kmxcv54qdj","one_one","1","indirect_first","0","ür06el03","0","19","1","0","3","1","","0","1","0","3846.5200000209734","","","","","pos","All","all","1","category1/ma_all.png","","","all","","19"
"","image-slider-response","256","737225","0.0-14.0-0.3","kmxcv54qdj","one_one","1","indirect_first","0","ür06el03","0","19","1","0","3","1","","0","1","0","2684.5599999651313","","","","","neg","All","all","3","category3/wang_all.png","","","all","","-25"
"","survey-text","257","739420","0.0-15.0","kmxcv54qdj","one_one","1","indirect_first","0","ür06el03","0","19","1","0","3","1","","0","1","0","2164.8200000054203","","{""comment"":""""}","","","","","","","","","","","",""
"","survey-html-form","258","759879","0.0-16.0","kmxcv54qdj","one_one","1","indirect_first","0","ür06el03","0","19","1","0","3","1","","0","1","0","20449.16999997804","","{""hinschauen"":""0"",""ablenkung"":""1"",""gewissenhaft"":""0""}","","","","","","","","","","","",""
