"success","trial_type","trial_index","time_elapsed","internal_node_id","subject","condition","condition_code","measure","measure_code","codeword","gender","age","education","chinese","fach","handedness","comment","hinschauen","ablenkung","gewissenhaft","rt","url","responses","stimulus","key_press","val","type","type_specific","category","cs_selected","response","target","task","indirect","nr_pres"
"true","fullscreen","0","6528","0.0-0.0","5hlfcn5hko","many_one","0","direct_first","1","NG04LI20","0","18","1","0","3","1","Beim 2. Test passen viele Ausprachen nicht zu dem gegebenen Wort. 们 ist nicht qu oder was auch immer das war...","0","0","0","","","","","","","","","","","","","","",""
"","external-html","1","13801","0.0-1.0","5hlfcn5hko","many_one","0","direct_first","1","NG04LI20","0","18","1","0","3","1","Beim 2. Test passen viele Ausprachen nicht zu dem gegebenen Wort. 们 ist nicht qu oder was auch immer das war...","0","0","0","7202.095000073314","text/information.html","","","","","","","","","","","","",""
"","external-html","2","29741","0.0-2.0","5hlfcn5hko","many_one","0","direct_first","1","NG04LI20","0","18","1","0","3","1","Beim 2. Test passen viele Ausprachen nicht zu dem gegebenen Wort. 们 ist nicht qu oder was auch immer das war...","0","0","0","15866.330000106245","text/consent.html","","","","","","","","","","","","",""
"","survey-html-form","3","153741","0.0-3.0","5hlfcn5hko","many_one","0","direct_first","1","NG04LI20","0","18","1","0","3","1","Beim 2. Test passen viele Ausprachen nicht zu dem gegebenen Wort. 们 ist nicht qu oder was auch immer das war...","0","0","0","123984.72999967635","","{""codeword_enter"":""NG04LI20""}","","","","","","","","","","","",""
"","survey-html-form","4","176271","0.0-4.0","5hlfcn5hko","many_one","0","direct_first","1","NG04LI20","0","18","1","0","3","1","Beim 2. Test passen viele Ausprachen nicht zu dem gegebenen Wort. 们 ist nicht qu oder was auch immer das war...","0","0","0","22518.410000018775","","{""age"":""18"",""education"":""1"",""subject"":""3"",""gender"":""0"",""handedness"":""1"",""chinese"":""0""}","","","","","","","","","","","",""
"","survey-html-form","5","181709","0.0-5.0","5hlfcn5hko","many_one","0","direct_first","1","NG04LI20","0","18","1","0","3","1","Beim 2. Test passen viele Ausprachen nicht zu dem gegebenen Wort. 们 ist nicht qu oder was auch immer das war...","0","0","0","5428.299999795854","","{}","","","","","","","","","","","",""
"","html-keyboard-response","6","185802","0.0-6.0-0.0-0.0","5hlfcn5hko","many_one","0","direct_first","1","NG04LI20","0","18","1","0","3","1","Beim 2. Test passen viele Ausprachen nicht zu dem gegebenen Wort. 们 ist nicht qu oder was auch immer das war...","0","0","0","null","","","<div class = 'row'><div class = 'column'><img src = 'category2/CS1.png' width = '70%;'></div><div class = 'column'><img src = 'uspos/8461.bmp' width = '100%;'></div></div>","null","pos","CS","CS","2","category2/CS1.png","","","","",""
"","html-keyboard-response","7","188315","0.0-6.0-0.0-0.1","5hlfcn5hko","many_one","0","direct_first","1","NG04LI20","0","18","1","0","3","1","Beim 2. Test passen viele Ausprachen nicht zu dem gegebenen Wort. 们 ist nicht qu oder was auch immer das war...","0","0","0","null","","","<div class = 'row'><div class = 'column'><img src = 'category1/CS7.png' width = '70%;'></div><div class = 'column'><img src = 'usneg/9181.bmp' width = '100%;'></div></div>","null","neg","CS","CS","1","category1/CS7.png","","","","",""
"","html-keyboard-response","8","190824","0.0-6.0-0.0-0.2","5hlfcn5hko","many_one","0","direct_first","1","NG04LI20","0","18","1","0","3","1","Beim 2. Test passen viele Ausprachen nicht zu dem gegebenen Wort. 们 ist nicht qu oder was auch immer das war...","0","0","0","null","","","<div class = 'row'><div class = 'column'><img src = 'usneg/9920.bmp' width = '100%;'></div><div class = 'column'><img src = 'category1/CS3.png' width = '70%;'></div></div>","null","neg","CS","CS","1","category1/CS3.png","","","","",""
"","html-keyboard-response","9","193331","0.0-6.0-0.0-0.3","5hlfcn5hko","many_one","0","direct_first","1","NG04LI20","0","18","1","0","3","1","Beim 2. Test passen viele Ausprachen nicht zu dem gegebenen Wort. 们 ist nicht qu oder was auch immer das war...","0","0","0","null","","","<div class = 'row'><div class = 'column'><img src = 'category3/CS8.png' width = '70%;'></div><div class = 'column'><img src = 'uspos/4599.bmp' width = '100%;'></div></div>","null","pos","CS","CS","3","category3/CS8.png","","","","",""
"","html-keyboard-response","10","195841","0.0-6.0-0.0-0.4","5hlfcn5hko","many_one","0","direct_first","1","NG04LI20","0","18","1","0","3","1","Beim 2. Test passen viele Ausprachen nicht zu dem gegebenen Wort. 们 ist nicht qu oder was auch immer das war...","0","0","0","null","","","<div class = 'row'><div class = 'column'><img src = 'usneg/9830.bmp' width = '100%;'></div><div class = 'column'><img src = 'category4/CS1.png' width = '70%;'></div></div>","null","neg","CS","CS","4","category4/CS1.png","","","","",""
"","html-keyboard-response","11","198349","0.0-6.0-0.0-0.5","5hlfcn5hko","many_one","0","direct_first","1","NG04LI20","0","18","1","0","3","1","Beim 2. Test passen viele Ausprachen nicht zu dem gegebenen Wort. 们 ist nicht qu oder was auch immer das war...","0","0","0","null","","","<div class = 'row'><div class = 'column'><img src = 'category4/CS6.png' width = '70%;'></div><div class = 'column'><img src = 'usneg/9041.bmp' width = '100%;'></div></div>","null","neg","CS","CS","4","category4/CS6.png","","","","",""
"","html-keyboard-response","12","200858","0.0-6.0-0.0-0.6","5hlfcn5hko","many_one","0","direct_first","1","NG04LI20","0","18","1","0","3","1","Beim 2. Test passen viele Ausprachen nicht zu dem gegebenen Wort. 们 ist nicht qu oder was auch immer das war...","0","0","0","null","","","<div class = 'row'><div class = 'column'><img src = 'category2/CS6.png' width = '70%;'></div><div class = 'column'><img src = 'uspos/8540.bmp' width = '100%;'></div></div>","null","pos","CS","CS","2","category2/CS6.png","","","","",""
"","html-keyboard-response","13","203366","0.0-6.0-0.0-0.7","5hlfcn5hko","many_one","0","direct_first","1","NG04LI20","0","18","1","0","3","1","Beim 2. Test passen viele Ausprachen nicht zu dem gegebenen Wort. 们 ist nicht qu oder was auch immer das war...","0","0","0","null","","","<div class = 'row'><div class = 'column'><img src = 'category2/CS2.png' width = '70%;'></div><div class = 'column'><img src = 'uspos/5629.bmp' width = '100%;'></div></div>","null","pos","CS","CS","2","category2/CS2.png","","","","",""
"","html-keyboard-response","14","205875","0.0-6.0-0.0-0.8","5hlfcn5hko","many_one","0","direct_first","1","NG04LI20","0","18","1","0","3","1","Beim 2. Test passen viele Ausprachen nicht zu dem gegebenen Wort. 们 ist nicht qu oder was auch immer das war...","0","0","0","null","","","<div class = 'row'><div class = 'column'><img src = 'category3/CS6.png' width = '70%;'></div><div class = 'column'><img src = 'uspos/5621.bmp' width = '100%;'></div></div>","null","pos","CS","CS","3","category3/CS6.png","","","","",""
"","html-keyboard-response","15","208384","0.0-6.0-0.0-0.9","5hlfcn5hko","many_one","0","direct_first","1","NG04LI20","0","18","1","0","3","1","Beim 2. Test passen viele Ausprachen nicht zu dem gegebenen Wort. 们 ist nicht qu oder was auch immer das war...","0","0","0","null","","","<div class = 'row'><div class = 'column'><img src = 'usneg/2750.bmp' width = '100%;'></div><div class = 'column'><img src = 'category4/CS8.png' width = '70%;'></div></div>","null","neg","CS","CS","4","category4/CS8.png","","","","",""
"","html-keyboard-response","16","210891","0.0-6.0-0.0-0.10","5hlfcn5hko","many_one","0","direct_first","1","NG04LI20","0","18","1","0","3","1","Beim 2. Test passen viele Ausprachen nicht zu dem gegebenen Wort. 们 ist nicht qu oder was auch immer das war...","0","0","0","null","","","<div class = 'row'><div class = 'column'><img src = 'category2/CS9.png' width = '70%;'></div><div class = 'column'><img src = 'uspos/2057.bmp' width = '100%;'></div></div>","null","pos","CS","CS","2","category2/CS9.png","","","","",""
"","html-keyboard-response","17","213399","0.0-6.0-0.0-0.11","5hlfcn5hko","many_one","0","direct_first","1","NG04LI20","0","18","1","0","3","1","Beim 2. Test passen viele Ausprachen nicht zu dem gegebenen Wort. 们 ist nicht qu oder was auch immer das war...","0","0","0","null","","","<div class = 'row'><div class = 'column'><img src = 'category3/CS3.png' width = '70%;'></div><div class = 'column'><img src = 'uspos/5700.bmp' width = '100%;'></div></div>","null","pos","CS","CS","3","category3/CS3.png","","","","",""
"","html-keyboard-response","18","215909","0.0-6.0-0.0-0.12","5hlfcn5hko","many_one","0","direct_first","1","NG04LI20","0","18","1","0","3","1","Beim 2. Test passen viele Ausprachen nicht zu dem gegebenen Wort. 们 ist nicht qu oder was auch immer das war...","0","0","0","null","","","<div class = 'row'><div class = 'column'><img src = 'category4/CS5.png' width = '70%;'></div><div class = 'column'><img src = 'usneg/6020.bmp' width = '100%;'></div></div>","null","neg","CS","CS","4","category4/CS5.png","","","","",""
"","html-keyboard-response","19","218418","0.0-6.0-0.0-0.13","5hlfcn5hko","many_one","0","direct_first","1","NG04LI20","0","18","1","0","3","1","Beim 2. Test passen viele Ausprachen nicht zu dem gegebenen Wort. 们 ist nicht qu oder was auch immer das war...","0","0","0","null","","","<div class = 'row'><div class = 'column'><img src = 'category2/CS3.png' width = '70%;'></div><div class = 'column'><img src = 'uspos/2165.bmp' width = '100%;'></div></div>","null","pos","CS","CS","2","category2/CS3.png","","","","",""
"","html-keyboard-response","20","220926","0.0-6.0-0.0-0.14","5hlfcn5hko","many_one","0","direct_first","1","NG04LI20","0","18","1","0","3","1","Beim 2. Test passen viele Ausprachen nicht zu dem gegebenen Wort. 们 ist nicht qu oder was auch immer das war...","0","0","0","null","","","<div class = 'row'><div class = 'column'><img src = 'uspos/2030.bmp' width = '100%;'></div><div class = 'column'><img src = 'category3/CS4.png' width = '70%;'></div></div>","null","pos","CS","CS","3","category3/CS4.png","","","","",""
"","html-keyboard-response","21","223434","0.0-6.0-0.0-0.15","5hlfcn5hko","many_one","0","direct_first","1","NG04LI20","0","18","1","0","3","1","Beim 2. Test passen viele Ausprachen nicht zu dem gegebenen Wort. 们 ist nicht qu oder was auch immer das war...","0","0","0","null","","","<div class = 'row'><div class = 'column'><img src = 'uspos/2341.bmp' width = '100%;'></div><div class = 'column'><img src = 'category3/CS7.png' width = '70%;'></div></div>","null","pos","CS","CS","3","category3/CS7.png","","","","",""
"","html-keyboard-response","22","225963","0.0-6.0-0.0-0.16","5hlfcn5hko","many_one","0","direct_first","1","NG04LI20","0","18","1","0","3","1","Beim 2. Test passen viele Ausprachen nicht zu dem gegebenen Wort. 们 ist nicht qu oder was auch immer das war...","0","0","0","null","","","<div class = 'row'><div class = 'column'><img src = 'category1/CS2.png' width = '70%;'></div><div class = 'column'><img src = 'usneg/9584.bmp' width = '100%;'></div></div>","null","neg","CS","CS","1","category1/CS2.png","","","","",""
"","html-keyboard-response","23","228471","0.0-6.0-0.0-0.17","5hlfcn5hko","many_one","0","direct_first","1","NG04LI20","0","18","1","0","3","1","Beim 2. Test passen viele Ausprachen nicht zu dem gegebenen Wort. 们 ist nicht qu oder was auch immer das war...","0","0","0","null","","","<div class = 'row'><div class = 'column'><img src = 'usneg/2205.bmp' width = '100%;'></div><div class = 'column'><img src = 'category1/CS9.png' width = '70%;'></div></div>","null","neg","CS","CS","1","category1/CS9.png","","","","",""
"","html-keyboard-response","24","230980","0.0-6.0-0.0-0.18","5hlfcn5hko","many_one","0","direct_first","1","NG04LI20","0","18","1","0","3","1","Beim 2. Test passen viele Ausprachen nicht zu dem gegebenen Wort. 们 ist nicht qu oder was auch immer das war...","0","0","0","null","","","<div class = 'row'><div class = 'column'><img src = 'category4/CS3.png' width = '70%;'></div><div class = 'column'><img src = 'usneg/1280.bmp' width = '100%;'></div></div>","null","neg","CS","CS","4","category4/CS3.png","","","","",""
"","html-keyboard-response","25","233486","0.0-6.0-0.0-0.19","5hlfcn5hko","many_one","0","direct_first","1","NG04LI20","0","18","1","0","3","1","Beim 2. Test passen viele Ausprachen nicht zu dem gegebenen Wort. 们 ist nicht qu oder was auch immer das war...","0","0","0","null","","","<div class = 'row'><div class = 'column'><img src = 'usneg/3160.bmp' width = '100%;'></div><div class = 'column'><img src = 'category1/CS10.png' width = '70%;'></div></div>","null","neg","CS","CS","1","category1/CS10.png","","","","",""
"","survey-html-form","26","237940","0.0-6.0-1.0","5hlfcn5hko","many_one","0","direct_first","1","NG04LI20","0","18","1","0","3","1","Beim 2. Test passen viele Ausprachen nicht zu dem gegebenen Wort. 们 ist nicht qu oder was auch immer das war...","0","0","0","3950.7100000046194","","{}","","","","","","","","","","","",""
"","html-keyboard-response","27","241951","0.0-6.0-2.0-0.0","5hlfcn5hko","many_one","0","direct_first","1","NG04LI20","0","18","1","0","3","1","Beim 2. Test passen viele Ausprachen nicht zu dem gegebenen Wort. 们 ist nicht qu oder was auch immer das war...","0","0","0","null","","","<div class = 'row'><div class = 'column'><img src = 'uspos/5700.bmp' width = '100%;'></div><div class = 'column'><img src = 'category3/CS3.png' width = '70%;'></div></div>","null","pos","CS","CS","3","category3/CS3.png","","","","",""
"","html-keyboard-response","28","244461","0.0-6.0-2.0-0.1","5hlfcn5hko","many_one","0","direct_first","1","NG04LI20","0","18","1","0","3","1","Beim 2. Test passen viele Ausprachen nicht zu dem gegebenen Wort. 们 ist nicht qu oder was auch immer das war...","0","0","0","null","","","<div class = 'row'><div class = 'column'><img src = 'category2/CS9.png' width = '70%;'></div><div class = 'column'><img src = 'uspos/2057.bmp' width = '100%;'></div></div>","null","pos","CS","CS","2","category2/CS9.png","","","","",""
"","html-keyboard-response","29","246971","0.0-6.0-2.0-0.2","5hlfcn5hko","many_one","0","direct_first","1","NG04LI20","0","18","1","0","3","1","Beim 2. Test passen viele Ausprachen nicht zu dem gegebenen Wort. 们 ist nicht qu oder was auch immer das war...","0","0","0","null","","","<div class = 'row'><div class = 'column'><img src = 'category1/CS7.png' width = '70%;'></div><div class = 'column'><img src = 'usneg/9181.bmp' width = '100%;'></div></div>","null","neg","CS","CS","1","category1/CS7.png","","","","",""
"","html-keyboard-response","30","249482","0.0-6.0-2.0-0.3","5hlfcn5hko","many_one","0","direct_first","1","NG04LI20","0","18","1","0","3","1","Beim 2. Test passen viele Ausprachen nicht zu dem gegebenen Wort. 们 ist nicht qu oder was auch immer das war...","0","0","0","null","","","<div class = 'row'><div class = 'column'><img src = 'uspos/5621.bmp' width = '100%;'></div><div class = 'column'><img src = 'category3/CS6.png' width = '70%;'></div></div>","null","pos","CS","CS","3","category3/CS6.png","","","","",""
"","html-keyboard-response","31","251994","0.0-6.0-2.0-0.4","5hlfcn5hko","many_one","0","direct_first","1","NG04LI20","0","18","1","0","3","1","Beim 2. Test passen viele Ausprachen nicht zu dem gegebenen Wort. 们 ist nicht qu oder was auch immer das war...","0","0","0","null","","","<div class = 'row'><div class = 'column'><img src = 'usneg/3160.bmp' width = '100%;'></div><div class = 'column'><img src = 'category1/CS10.png' width = '70%;'></div></div>","null","neg","CS","CS","1","category1/CS10.png","","","","",""
"","html-keyboard-response","32","254503","0.0-6.0-2.0-0.5","5hlfcn5hko","many_one","0","direct_first","1","NG04LI20","0","18","1","0","3","1","Beim 2. Test passen viele Ausprachen nicht zu dem gegebenen Wort. 们 ist nicht qu oder was auch immer das war...","0","0","0","null","","","<div class = 'row'><div class = 'column'><img src = 'usneg/2750.bmp' width = '100%;'></div><div class = 'column'><img src = 'category4/CS8.png' width = '70%;'></div></div>","null","neg","CS","CS","4","category4/CS8.png","","","","",""
"","html-keyboard-response","33","257011","0.0-6.0-2.0-0.6","5hlfcn5hko","many_one","0","direct_first","1","NG04LI20","0","18","1","0","3","1","Beim 2. Test passen viele Ausprachen nicht zu dem gegebenen Wort. 们 ist nicht qu oder was auch immer das war...","0","0","0","null","","","<div class = 'row'><div class = 'column'><img src = 'usneg/9920.bmp' width = '100%;'></div><div class = 'column'><img src = 'category1/CS3.png' width = '70%;'></div></div>","null","neg","CS","CS","1","category1/CS3.png","","","","",""
"","html-keyboard-response","34","259518","0.0-6.0-2.0-0.7","5hlfcn5hko","many_one","0","direct_first","1","NG04LI20","0","18","1","0","3","1","Beim 2. Test passen viele Ausprachen nicht zu dem gegebenen Wort. 们 ist nicht qu oder was auch immer das war...","0","0","0","null","","","<div class = 'row'><div class = 'column'><img src = 'usneg/9041.bmp' width = '100%;'></div><div class = 'column'><img src = 'category4/CS6.png' width = '70%;'></div></div>","null","neg","CS","CS","4","category4/CS6.png","","","","",""
"","html-keyboard-response","35","262027","0.0-6.0-2.0-0.8","5hlfcn5hko","many_one","0","direct_first","1","NG04LI20","0","18","1","0","3","1","Beim 2. Test passen viele Ausprachen nicht zu dem gegebenen Wort. 们 ist nicht qu oder was auch immer das war...","0","0","0","null","","","<div class = 'row'><div class = 'column'><img src = 'category3/CS7.png' width = '70%;'></div><div class = 'column'><img src = 'uspos/2341.bmp' width = '100%;'></div></div>","null","pos","CS","CS","3","category3/CS7.png","","","","",""
"","html-keyboard-response","36","264539","0.0-6.0-2.0-0.9","5hlfcn5hko","many_one","0","direct_first","1","NG04LI20","0","18","1","0","3","1","Beim 2. Test passen viele Ausprachen nicht zu dem gegebenen Wort. 们 ist nicht qu oder was auch immer das war...","0","0","0","null","","","<div class = 'row'><div class = 'column'><img src = 'uspos/8461.bmp' width = '100%;'></div><div class = 'column'><img src = 'category2/CS1.png' width = '70%;'></div></div>","null","pos","CS","CS","2","category2/CS1.png","","","","",""
"","html-keyboard-response","37","267060","0.0-6.0-2.0-0.10","5hlfcn5hko","many_one","0","direct_first","1","NG04LI20","0","18","1","0","3","1","Beim 2. Test passen viele Ausprachen nicht zu dem gegebenen Wort. 们 ist nicht qu oder was auch immer das war...","0","0","0","null","","","<div class = 'row'><div class = 'column'><img src = 'category4/CS3.png' width = '70%;'></div><div class = 'column'><img src = 'usneg/1280.bmp' width = '100%;'></div></div>","null","neg","CS","CS","4","category4/CS3.png","","","","",""
"","html-keyboard-response","38","269572","0.0-6.0-2.0-0.11","5hlfcn5hko","many_one","0","direct_first","1","NG04LI20","0","18","1","0","3","1","Beim 2. Test passen viele Ausprachen nicht zu dem gegebenen Wort. 们 ist nicht qu oder was auch immer das war...","0","0","0","null","","","<div class = 'row'><div class = 'column'><img src = 'category3/CS4.png' width = '70%;'></div><div class = 'column'><img src = 'uspos/2030.bmp' width = '100%;'></div></div>","null","pos","CS","CS","3","category3/CS4.png","","","","",""
"","html-keyboard-response","39","272082","0.0-6.0-2.0-0.12","5hlfcn5hko","many_one","0","direct_first","1","NG04LI20","0","18","1","0","3","1","Beim 2. Test passen viele Ausprachen nicht zu dem gegebenen Wort. 们 ist nicht qu oder was auch immer das war...","0","0","0","null","","","<div class = 'row'><div class = 'column'><img src = 'category4/CS5.png' width = '70%;'></div><div class = 'column'><img src = 'usneg/6020.bmp' width = '100%;'></div></div>","null","neg","CS","CS","4","category4/CS5.png","","","","",""
"","html-keyboard-response","40","274591","0.0-6.0-2.0-0.13","5hlfcn5hko","many_one","0","direct_first","1","NG04LI20","0","18","1","0","3","1","Beim 2. Test passen viele Ausprachen nicht zu dem gegebenen Wort. 们 ist nicht qu oder was auch immer das war...","0","0","0","null","","","<div class = 'row'><div class = 'column'><img src = 'uspos/5629.bmp' width = '100%;'></div><div class = 'column'><img src = 'category2/CS2.png' width = '70%;'></div></div>","null","pos","CS","CS","2","category2/CS2.png","","","","",""
"","html-keyboard-response","41","277098","0.0-6.0-2.0-0.14","5hlfcn5hko","many_one","0","direct_first","1","NG04LI20","0","18","1","0","3","1","Beim 2. Test passen viele Ausprachen nicht zu dem gegebenen Wort. 们 ist nicht qu oder was auch immer das war...","0","0","0","null","","","<div class = 'row'><div class = 'column'><img src = 'usneg/9830.bmp' width = '100%;'></div><div class = 'column'><img src = 'category4/CS1.png' width = '70%;'></div></div>","null","neg","CS","CS","4","category4/CS1.png","","","","",""
"","html-keyboard-response","42","279605","0.0-6.0-2.0-0.15","5hlfcn5hko","many_one","0","direct_first","1","NG04LI20","0","18","1","0","3","1","Beim 2. Test passen viele Ausprachen nicht zu dem gegebenen Wort. 们 ist nicht qu oder was auch immer das war...","0","0","0","null","","","<div class = 'row'><div class = 'column'><img src = 'category2/CS6.png' width = '70%;'></div><div class = 'column'><img src = 'uspos/8540.bmp' width = '100%;'></div></div>","null","pos","CS","CS","2","category2/CS6.png","","","","",""
"","html-keyboard-response","43","282115","0.0-6.0-2.0-0.16","5hlfcn5hko","many_one","0","direct_first","1","NG04LI20","0","18","1","0","3","1","Beim 2. Test passen viele Ausprachen nicht zu dem gegebenen Wort. 们 ist nicht qu oder was auch immer das war...","0","0","0","null","","","<div class = 'row'><div class = 'column'><img src = 'category1/CS2.png' width = '70%;'></div><div class = 'column'><img src = 'usneg/9584.bmp' width = '100%;'></div></div>","null","neg","CS","CS","1","category1/CS2.png","","","","",""
"","html-keyboard-response","44","284625","0.0-6.0-2.0-0.17","5hlfcn5hko","many_one","0","direct_first","1","NG04LI20","0","18","1","0","3","1","Beim 2. Test passen viele Ausprachen nicht zu dem gegebenen Wort. 们 ist nicht qu oder was auch immer das war...","0","0","0","null","","","<div class = 'row'><div class = 'column'><img src = 'category1/CS9.png' width = '70%;'></div><div class = 'column'><img src = 'usneg/2205.bmp' width = '100%;'></div></div>","null","neg","CS","CS","1","category1/CS9.png","","","","",""
"","html-keyboard-response","45","287137","0.0-6.0-2.0-0.18","5hlfcn5hko","many_one","0","direct_first","1","NG04LI20","0","18","1","0","3","1","Beim 2. Test passen viele Ausprachen nicht zu dem gegebenen Wort. 们 ist nicht qu oder was auch immer das war...","0","0","0","null","","","<div class = 'row'><div class = 'column'><img src = 'category2/CS3.png' width = '70%;'></div><div class = 'column'><img src = 'uspos/2165.bmp' width = '100%;'></div></div>","null","pos","CS","CS","2","category2/CS3.png","","","","",""
"","html-keyboard-response","46","289644","0.0-6.0-2.0-0.19","5hlfcn5hko","many_one","0","direct_first","1","NG04LI20","0","18","1","0","3","1","Beim 2. Test passen viele Ausprachen nicht zu dem gegebenen Wort. 们 ist nicht qu oder was auch immer das war...","0","0","0","null","","","<div class = 'row'><div class = 'column'><img src = 'category3/CS8.png' width = '70%;'></div><div class = 'column'><img src = 'uspos/4599.bmp' width = '100%;'></div></div>","null","pos","CS","CS","3","category3/CS8.png","","","","",""
"","survey-html-form","47","295895","0.0-6.0-3.0","5hlfcn5hko","many_one","0","direct_first","1","NG04LI20","0","18","1","0","3","1","Beim 2. Test passen viele Ausprachen nicht zu dem gegebenen Wort. 们 ist nicht qu oder was auch immer das war...","0","0","0","5744.884999934584","","{}","","","","","","","","","","","",""
"","html-keyboard-response","48","299906","0.0-6.0-4.0-0.0","5hlfcn5hko","many_one","0","direct_first","1","NG04LI20","0","18","1","0","3","1","Beim 2. Test passen viele Ausprachen nicht zu dem gegebenen Wort. 们 ist nicht qu oder was auch immer das war...","0","0","0","null","","","<div class = 'row'><div class = 'column'><img src = 'category2/CS3.png' width = '70%;'></div><div class = 'column'><img src = 'uspos/2165.bmp' width = '100%;'></div></div>","null","pos","CS","CS","2","category2/CS3.png","","","","",""
"","html-keyboard-response","49","302415","0.0-6.0-4.0-0.1","5hlfcn5hko","many_one","0","direct_first","1","NG04LI20","0","18","1","0","3","1","Beim 2. Test passen viele Ausprachen nicht zu dem gegebenen Wort. 们 ist nicht qu oder was auch immer das war...","0","0","0","null","","","<div class = 'row'><div class = 'column'><img src = 'uspos/5629.bmp' width = '100%;'></div><div class = 'column'><img src = 'category2/CS2.png' width = '70%;'></div></div>","null","pos","CS","CS","2","category2/CS2.png","","","","",""
"","html-keyboard-response","50","304923","0.0-6.0-4.0-0.2","5hlfcn5hko","many_one","0","direct_first","1","NG04LI20","0","18","1","0","3","1","Beim 2. Test passen viele Ausprachen nicht zu dem gegebenen Wort. 们 ist nicht qu oder was auch immer das war...","0","0","0","null","","","<div class = 'row'><div class = 'column'><img src = 'uspos/4599.bmp' width = '100%;'></div><div class = 'column'><img src = 'category3/CS8.png' width = '70%;'></div></div>","null","pos","CS","CS","3","category3/CS8.png","","","","",""
"","html-keyboard-response","51","307434","0.0-6.0-4.0-0.3","5hlfcn5hko","many_one","0","direct_first","1","NG04LI20","0","18","1","0","3","1","Beim 2. Test passen viele Ausprachen nicht zu dem gegebenen Wort. 们 ist nicht qu oder was auch immer das war...","0","0","0","null","","","<div class = 'row'><div class = 'column'><img src = 'usneg/9920.bmp' width = '100%;'></div><div class = 'column'><img src = 'category1/CS3.png' width = '70%;'></div></div>","null","neg","CS","CS","1","category1/CS3.png","","","","",""
"","html-keyboard-response","52","309946","0.0-6.0-4.0-0.4","5hlfcn5hko","many_one","0","direct_first","1","NG04LI20","0","18","1","0","3","1","Beim 2. Test passen viele Ausprachen nicht zu dem gegebenen Wort. 们 ist nicht qu oder was auch immer das war...","0","0","0","null","","","<div class = 'row'><div class = 'column'><img src = 'category4/CS1.png' width = '70%;'></div><div class = 'column'><img src = 'usneg/9830.bmp' width = '100%;'></div></div>","null","neg","CS","CS","4","category4/CS1.png","","","","",""
"","html-keyboard-response","53","312453","0.0-6.0-4.0-0.5","5hlfcn5hko","many_one","0","direct_first","1","NG04LI20","0","18","1","0","3","1","Beim 2. Test passen viele Ausprachen nicht zu dem gegebenen Wort. 们 ist nicht qu oder was auch immer das war...","0","0","0","null","","","<div class = 'row'><div class = 'column'><img src = 'usneg/1280.bmp' width = '100%;'></div><div class = 'column'><img src = 'category4/CS3.png' width = '70%;'></div></div>","null","neg","CS","CS","4","category4/CS3.png","","","","",""
"","html-keyboard-response","54","314962","0.0-6.0-4.0-0.6","5hlfcn5hko","many_one","0","direct_first","1","NG04LI20","0","18","1","0","3","1","Beim 2. Test passen viele Ausprachen nicht zu dem gegebenen Wort. 们 ist nicht qu oder was auch immer das war...","0","0","0","null","","","<div class = 'row'><div class = 'column'><img src = 'uspos/2341.bmp' width = '100%;'></div><div class = 'column'><img src = 'category3/CS7.png' width = '70%;'></div></div>","null","pos","CS","CS","3","category3/CS7.png","","","","",""
"","html-keyboard-response","55","317482","0.0-6.0-4.0-0.7","5hlfcn5hko","many_one","0","direct_first","1","NG04LI20","0","18","1","0","3","1","Beim 2. Test passen viele Ausprachen nicht zu dem gegebenen Wort. 们 ist nicht qu oder was auch immer das war...","0","0","0","null","","","<div class = 'row'><div class = 'column'><img src = 'usneg/2205.bmp' width = '100%;'></div><div class = 'column'><img src = 'category1/CS9.png' width = '70%;'></div></div>","null","neg","CS","CS","1","category1/CS9.png","","","","",""
"","html-keyboard-response","56","319994","0.0-6.0-4.0-0.8","5hlfcn5hko","many_one","0","direct_first","1","NG04LI20","0","18","1","0","3","1","Beim 2. Test passen viele Ausprachen nicht zu dem gegebenen Wort. 们 ist nicht qu oder was auch immer das war...","0","0","0","null","","","<div class = 'row'><div class = 'column'><img src = 'usneg/2750.bmp' width = '100%;'></div><div class = 'column'><img src = 'category4/CS8.png' width = '70%;'></div></div>","null","neg","CS","CS","4","category4/CS8.png","","","","",""
"","html-keyboard-response","57","322504","0.0-6.0-4.0-0.9","5hlfcn5hko","many_one","0","direct_first","1","NG04LI20","0","18","1","0","3","1","Beim 2. Test passen viele Ausprachen nicht zu dem gegebenen Wort. 们 ist nicht qu oder was auch immer das war...","0","0","0","null","","","<div class = 'row'><div class = 'column'><img src = 'category4/CS5.png' width = '70%;'></div><div class = 'column'><img src = 'usneg/6020.bmp' width = '100%;'></div></div>","null","neg","CS","CS","4","category4/CS5.png","","","","",""
"","html-keyboard-response","58","325013","0.0-6.0-4.0-0.10","5hlfcn5hko","many_one","0","direct_first","1","NG04LI20","0","18","1","0","3","1","Beim 2. Test passen viele Ausprachen nicht zu dem gegebenen Wort. 们 ist nicht qu oder was auch immer das war...","0","0","0","null","","","<div class = 'row'><div class = 'column'><img src = 'category1/CS2.png' width = '70%;'></div><div class = 'column'><img src = 'usneg/9584.bmp' width = '100%;'></div></div>","null","neg","CS","CS","1","category1/CS2.png","","","","",""
"","html-keyboard-response","59","327521","0.0-6.0-4.0-0.11","5hlfcn5hko","many_one","0","direct_first","1","NG04LI20","0","18","1","0","3","1","Beim 2. Test passen viele Ausprachen nicht zu dem gegebenen Wort. 们 ist nicht qu oder was auch immer das war...","0","0","0","null","","","<div class = 'row'><div class = 'column'><img src = 'category2/CS9.png' width = '70%;'></div><div class = 'column'><img src = 'uspos/2057.bmp' width = '100%;'></div></div>","null","pos","CS","CS","2","category2/CS9.png","","","","",""
"","html-keyboard-response","60","330036","0.0-6.0-4.0-0.12","5hlfcn5hko","many_one","0","direct_first","1","NG04LI20","0","18","1","0","3","1","Beim 2. Test passen viele Ausprachen nicht zu dem gegebenen Wort. 们 ist nicht qu oder was auch immer das war...","0","0","0","null","","","<div class = 'row'><div class = 'column'><img src = 'uspos/2030.bmp' width = '100%;'></div><div class = 'column'><img src = 'category3/CS4.png' width = '70%;'></div></div>","null","pos","CS","CS","3","category3/CS4.png","","","","",""
"","html-keyboard-response","61","332546","0.0-6.0-4.0-0.13","5hlfcn5hko","many_one","0","direct_first","1","NG04LI20","0","18","1","0","3","1","Beim 2. Test passen viele Ausprachen nicht zu dem gegebenen Wort. 们 ist nicht qu oder was auch immer das war...","0","0","0","null","","","<div class = 'row'><div class = 'column'><img src = 'category3/CS6.png' width = '70%;'></div><div class = 'column'><img src = 'uspos/5621.bmp' width = '100%;'></div></div>","null","pos","CS","CS","3","category3/CS6.png","","","","",""
"","html-keyboard-response","62","335056","0.0-6.0-4.0-0.14","5hlfcn5hko","many_one","0","direct_first","1","NG04LI20","0","18","1","0","3","1","Beim 2. Test passen viele Ausprachen nicht zu dem gegebenen Wort. 们 ist nicht qu oder was auch immer das war...","0","0","0","null","","","<div class = 'row'><div class = 'column'><img src = 'uspos/5700.bmp' width = '100%;'></div><div class = 'column'><img src = 'category3/CS3.png' width = '70%;'></div></div>","null","pos","CS","CS","3","category3/CS3.png","","","","",""
"","html-keyboard-response","63","337565","0.0-6.0-4.0-0.15","5hlfcn5hko","many_one","0","direct_first","1","NG04LI20","0","18","1","0","3","1","Beim 2. Test passen viele Ausprachen nicht zu dem gegebenen Wort. 们 ist nicht qu oder was auch immer das war...","0","0","0","null","","","<div class = 'row'><div class = 'column'><img src = 'category2/CS1.png' width = '70%;'></div><div class = 'column'><img src = 'uspos/8461.bmp' width = '100%;'></div></div>","null","pos","CS","CS","2","category2/CS1.png","","","","",""
"","html-keyboard-response","64","340086","0.0-6.0-4.0-0.16","5hlfcn5hko","many_one","0","direct_first","1","NG04LI20","0","18","1","0","3","1","Beim 2. Test passen viele Ausprachen nicht zu dem gegebenen Wort. 们 ist nicht qu oder was auch immer das war...","0","0","0","null","","","<div class = 'row'><div class = 'column'><img src = 'category1/CS10.png' width = '70%;'></div><div class = 'column'><img src = 'usneg/3160.bmp' width = '100%;'></div></div>","null","neg","CS","CS","1","category1/CS10.png","","","","",""
"","html-keyboard-response","65","342619","0.0-6.0-4.0-0.17","5hlfcn5hko","many_one","0","direct_first","1","NG04LI20","0","18","1","0","3","1","Beim 2. Test passen viele Ausprachen nicht zu dem gegebenen Wort. 们 ist nicht qu oder was auch immer das war...","0","0","0","null","","","<div class = 'row'><div class = 'column'><img src = 'category1/CS7.png' width = '70%;'></div><div class = 'column'><img src = 'usneg/9181.bmp' width = '100%;'></div></div>","null","neg","CS","CS","1","category1/CS7.png","","","","",""
"","html-keyboard-response","66","345128","0.0-6.0-4.0-0.18","5hlfcn5hko","many_one","0","direct_first","1","NG04LI20","0","18","1","0","3","1","Beim 2. Test passen viele Ausprachen nicht zu dem gegebenen Wort. 们 ist nicht qu oder was auch immer das war...","0","0","0","null","","","<div class = 'row'><div class = 'column'><img src = 'uspos/8540.bmp' width = '100%;'></div><div class = 'column'><img src = 'category2/CS6.png' width = '70%;'></div></div>","null","pos","CS","CS","2","category2/CS6.png","","","","",""
"","html-keyboard-response","67","347636","0.0-6.0-4.0-0.19","5hlfcn5hko","many_one","0","direct_first","1","NG04LI20","0","18","1","0","3","1","Beim 2. Test passen viele Ausprachen nicht zu dem gegebenen Wort. 们 ist nicht qu oder was auch immer das war...","0","0","0","null","","","<div class = 'row'><div class = 'column'><img src = 'category4/CS6.png' width = '70%;'></div><div class = 'column'><img src = 'usneg/9041.bmp' width = '100%;'></div></div>","null","neg","CS","CS","4","category4/CS6.png","","","","",""
"","survey-html-form","68","353538","0.0-6.0-5.0","5hlfcn5hko","many_one","0","direct_first","1","NG04LI20","0","18","1","0","3","1","Beim 2. Test passen viele Ausprachen nicht zu dem gegebenen Wort. 们 ist nicht qu oder was auch immer das war...","0","0","0","5398.405000101775","","{}","","","","","","","","","","","",""
"","html-keyboard-response","69","357647","0.0-6.0-6.0-0.0","5hlfcn5hko","many_one","0","direct_first","1","NG04LI20","0","18","1","0","3","1","Beim 2. Test passen viele Ausprachen nicht zu dem gegebenen Wort. 们 ist nicht qu oder was auch immer das war...","0","0","0","null","","","<div class = 'row'><div class = 'column'><img src = 'usneg/9920.bmp' width = '100%;'></div><div class = 'column'><img src = 'category1/CS3.png' width = '70%;'></div></div>","null","neg","CS","CS","1","category1/CS3.png","","","","",""
"","html-keyboard-response","70","360157","0.0-6.0-6.0-0.1","5hlfcn5hko","many_one","0","direct_first","1","NG04LI20","0","18","1","0","3","1","Beim 2. Test passen viele Ausprachen nicht zu dem gegebenen Wort. 们 ist nicht qu oder was auch immer das war...","0","0","0","null","","","<div class = 'row'><div class = 'column'><img src = 'usneg/6020.bmp' width = '100%;'></div><div class = 'column'><img src = 'category4/CS5.png' width = '70%;'></div></div>","null","neg","CS","CS","4","category4/CS5.png","","","","",""
"","html-keyboard-response","71","362664","0.0-6.0-6.0-0.2","5hlfcn5hko","many_one","0","direct_first","1","NG04LI20","0","18","1","0","3","1","Beim 2. Test passen viele Ausprachen nicht zu dem gegebenen Wort. 们 ist nicht qu oder was auch immer das war...","0","0","0","null","","","<div class = 'row'><div class = 'column'><img src = 'usneg/2205.bmp' width = '100%;'></div><div class = 'column'><img src = 'category1/CS9.png' width = '70%;'></div></div>","null","neg","CS","CS","1","category1/CS9.png","","","","",""
"","html-keyboard-response","72","365172","0.0-6.0-6.0-0.3","5hlfcn5hko","many_one","0","direct_first","1","NG04LI20","0","18","1","0","3","1","Beim 2. Test passen viele Ausprachen nicht zu dem gegebenen Wort. 们 ist nicht qu oder was auch immer das war...","0","0","0","null","","","<div class = 'row'><div class = 'column'><img src = 'usneg/9830.bmp' width = '100%;'></div><div class = 'column'><img src = 'category4/CS1.png' width = '70%;'></div></div>","null","neg","CS","CS","4","category4/CS1.png","","","","",""
"","html-keyboard-response","73","367681","0.0-6.0-6.0-0.4","5hlfcn5hko","many_one","0","direct_first","1","NG04LI20","0","18","1","0","3","1","Beim 2. Test passen viele Ausprachen nicht zu dem gegebenen Wort. 们 ist nicht qu oder was auch immer das war...","0","0","0","null","","","<div class = 'row'><div class = 'column'><img src = 'uspos/8540.bmp' width = '100%;'></div><div class = 'column'><img src = 'category2/CS6.png' width = '70%;'></div></div>","null","pos","CS","CS","2","category2/CS6.png","","","","",""
"","html-keyboard-response","74","370191","0.0-6.0-6.0-0.5","5hlfcn5hko","many_one","0","direct_first","1","NG04LI20","0","18","1","0","3","1","Beim 2. Test passen viele Ausprachen nicht zu dem gegebenen Wort. 们 ist nicht qu oder was auch immer das war...","0","0","0","null","","","<div class = 'row'><div class = 'column'><img src = 'category4/CS8.png' width = '70%;'></div><div class = 'column'><img src = 'usneg/2750.bmp' width = '100%;'></div></div>","null","neg","CS","CS","4","category4/CS8.png","","","","",""
"","html-keyboard-response","75","372698","0.0-6.0-6.0-0.6","5hlfcn5hko","many_one","0","direct_first","1","NG04LI20","0","18","1","0","3","1","Beim 2. Test passen viele Ausprachen nicht zu dem gegebenen Wort. 们 ist nicht qu oder was auch immer das war...","0","0","0","null","","","<div class = 'row'><div class = 'column'><img src = 'uspos/5700.bmp' width = '100%;'></div><div class = 'column'><img src = 'category3/CS3.png' width = '70%;'></div></div>","null","pos","CS","CS","3","category3/CS3.png","","","","",""
"","html-keyboard-response","76","375207","0.0-6.0-6.0-0.7","5hlfcn5hko","many_one","0","direct_first","1","NG04LI20","0","18","1","0","3","1","Beim 2. Test passen viele Ausprachen nicht zu dem gegebenen Wort. 们 ist nicht qu oder was auch immer das war...","0","0","0","null","","","<div class = 'row'><div class = 'column'><img src = 'category3/CS6.png' width = '70%;'></div><div class = 'column'><img src = 'uspos/5621.bmp' width = '100%;'></div></div>","null","pos","CS","CS","3","category3/CS6.png","","","","",""
"","html-keyboard-response","77","377717","0.0-6.0-6.0-0.8","5hlfcn5hko","many_one","0","direct_first","1","NG04LI20","0","18","1","0","3","1","Beim 2. Test passen viele Ausprachen nicht zu dem gegebenen Wort. 们 ist nicht qu oder was auch immer das war...","0","0","0","null","","","<div class = 'row'><div class = 'column'><img src = 'uspos/8461.bmp' width = '100%;'></div><div class = 'column'><img src = 'category2/CS1.png' width = '70%;'></div></div>","null","pos","CS","CS","2","category2/CS1.png","","","","",""
"","html-keyboard-response","78","380225","0.0-6.0-6.0-0.9","5hlfcn5hko","many_one","0","direct_first","1","NG04LI20","0","18","1","0","3","1","Beim 2. Test passen viele Ausprachen nicht zu dem gegebenen Wort. 们 ist nicht qu oder was auch immer das war...","0","0","0","null","","","<div class = 'row'><div class = 'column'><img src = 'uspos/2057.bmp' width = '100%;'></div><div class = 'column'><img src = 'category2/CS9.png' width = '70%;'></div></div>","null","pos","CS","CS","2","category2/CS9.png","","","","",""
"","html-keyboard-response","79","382733","0.0-6.0-6.0-0.10","5hlfcn5hko","many_one","0","direct_first","1","NG04LI20","0","18","1","0","3","1","Beim 2. Test passen viele Ausprachen nicht zu dem gegebenen Wort. 们 ist nicht qu oder was auch immer das war...","0","0","0","null","","","<div class = 'row'><div class = 'column'><img src = 'category1/CS10.png' width = '70%;'></div><div class = 'column'><img src = 'usneg/3160.bmp' width = '100%;'></div></div>","null","neg","CS","CS","1","category1/CS10.png","","","","",""
"","html-keyboard-response","80","385242","0.0-6.0-6.0-0.11","5hlfcn5hko","many_one","0","direct_first","1","NG04LI20","0","18","1","0","3","1","Beim 2. Test passen viele Ausprachen nicht zu dem gegebenen Wort. 们 ist nicht qu oder was auch immer das war...","0","0","0","null","","","<div class = 'row'><div class = 'column'><img src = 'category2/CS2.png' width = '70%;'></div><div class = 'column'><img src = 'uspos/5629.bmp' width = '100%;'></div></div>","null","pos","CS","CS","2","category2/CS2.png","","","","",""
"","html-keyboard-response","81","387751","0.0-6.0-6.0-0.12","5hlfcn5hko","many_one","0","direct_first","1","NG04LI20","0","18","1","0","3","1","Beim 2. Test passen viele Ausprachen nicht zu dem gegebenen Wort. 们 ist nicht qu oder was auch immer das war...","0","0","0","null","","","<div class = 'row'><div class = 'column'><img src = 'uspos/4599.bmp' width = '100%;'></div><div class = 'column'><img src = 'category3/CS8.png' width = '70%;'></div></div>","null","pos","CS","CS","3","category3/CS8.png","","","","",""
"","html-keyboard-response","82","390259","0.0-6.0-6.0-0.13","5hlfcn5hko","many_one","0","direct_first","1","NG04LI20","0","18","1","0","3","1","Beim 2. Test passen viele Ausprachen nicht zu dem gegebenen Wort. 们 ist nicht qu oder was auch immer das war...","0","0","0","null","","","<div class = 'row'><div class = 'column'><img src = 'uspos/2030.bmp' width = '100%;'></div><div class = 'column'><img src = 'category3/CS4.png' width = '70%;'></div></div>","null","pos","CS","CS","3","category3/CS4.png","","","","",""
"","html-keyboard-response","83","392767","0.0-6.0-6.0-0.14","5hlfcn5hko","many_one","0","direct_first","1","NG04LI20","0","18","1","0","3","1","Beim 2. Test passen viele Ausprachen nicht zu dem gegebenen Wort. 们 ist nicht qu oder was auch immer das war...","0","0","0","null","","","<div class = 'row'><div class = 'column'><img src = 'category2/CS3.png' width = '70%;'></div><div class = 'column'><img src = 'uspos/2165.bmp' width = '100%;'></div></div>","null","pos","CS","CS","2","category2/CS3.png","","","","",""
"","html-keyboard-response","84","395275","0.0-6.0-6.0-0.15","5hlfcn5hko","many_one","0","direct_first","1","NG04LI20","0","18","1","0","3","1","Beim 2. Test passen viele Ausprachen nicht zu dem gegebenen Wort. 们 ist nicht qu oder was auch immer das war...","0","0","0","null","","","<div class = 'row'><div class = 'column'><img src = 'category3/CS7.png' width = '70%;'></div><div class = 'column'><img src = 'uspos/2341.bmp' width = '100%;'></div></div>","null","pos","CS","CS","3","category3/CS7.png","","","","",""
"","html-keyboard-response","85","397786","0.0-6.0-6.0-0.16","5hlfcn5hko","many_one","0","direct_first","1","NG04LI20","0","18","1","0","3","1","Beim 2. Test passen viele Ausprachen nicht zu dem gegebenen Wort. 们 ist nicht qu oder was auch immer das war...","0","0","0","null","","","<div class = 'row'><div class = 'column'><img src = 'usneg/9584.bmp' width = '100%;'></div><div class = 'column'><img src = 'category1/CS2.png' width = '70%;'></div></div>","null","neg","CS","CS","1","category1/CS2.png","","","","",""
"","html-keyboard-response","86","400297","0.0-6.0-6.0-0.17","5hlfcn5hko","many_one","0","direct_first","1","NG04LI20","0","18","1","0","3","1","Beim 2. Test passen viele Ausprachen nicht zu dem gegebenen Wort. 们 ist nicht qu oder was auch immer das war...","0","0","0","null","","","<div class = 'row'><div class = 'column'><img src = 'usneg/9041.bmp' width = '100%;'></div><div class = 'column'><img src = 'category4/CS6.png' width = '70%;'></div></div>","null","neg","CS","CS","4","category4/CS6.png","","","","",""
"","html-keyboard-response","87","402806","0.0-6.0-6.0-0.18","5hlfcn5hko","many_one","0","direct_first","1","NG04LI20","0","18","1","0","3","1","Beim 2. Test passen viele Ausprachen nicht zu dem gegebenen Wort. 们 ist nicht qu oder was auch immer das war...","0","0","0","null","","","<div class = 'row'><div class = 'column'><img src = 'category1/CS7.png' width = '70%;'></div><div class = 'column'><img src = 'usneg/9181.bmp' width = '100%;'></div></div>","null","neg","CS","CS","1","category1/CS7.png","","","","",""
"","html-keyboard-response","88","405314","0.0-6.0-6.0-0.19","5hlfcn5hko","many_one","0","direct_first","1","NG04LI20","0","18","1","0","3","1","Beim 2. Test passen viele Ausprachen nicht zu dem gegebenen Wort. 们 ist nicht qu oder was auch immer das war...","0","0","0","null","","","<div class = 'row'><div class = 'column'><img src = 'category4/CS3.png' width = '70%;'></div><div class = 'column'><img src = 'usneg/1280.bmp' width = '100%;'></div></div>","null","neg","CS","CS","4","category4/CS3.png","","","","",""
"","survey-html-form","89","410307","0.0-7.0","5hlfcn5hko","many_one","0","direct_first","1","NG04LI20","0","18","1","0","3","1","Beim 2. Test passen viele Ausprachen nicht zu dem gegebenen Wort. 们 ist nicht qu oder was auch immer das war...","0","0","0","4486.670000012964","","{}","","","","","","","","","","","",""
"","image-slider-response","90","420792","0.0-8.0-0.0","5hlfcn5hko","many_one","0","direct_first","1","NG04LI20","0","18","1","0","3","1","Beim 2. Test passen viele Ausprachen nicht zu dem gegebenen Wort. 们 ist nicht qu oder was auch immer das war...","0","0","0","8426.820000167936","","","","","neg","GS","GSold","1","category1/CS8.png","-60","targets/46.png","direct","",""
"","image-slider-response","91","424154","0.0-8.0-0.1","5hlfcn5hko","many_one","0","direct_first","1","NG04LI20","0","18","1","0","3","1","Beim 2. Test passen viele Ausprachen nicht zu dem gegebenen Wort. 们 ist nicht qu oder was auch immer das war...","0","0","0","3352.839999832213","","","","","neg","CS","CS","1","category1/CS3.png","-100","targets/1.png","direct","",""
"","image-slider-response","92","428501","0.0-8.0-0.2","5hlfcn5hko","many_one","0","direct_first","1","NG04LI20","0","18","1","0","3","1","Beim 2. Test passen viele Ausprachen nicht zu dem gegebenen Wort. 们 ist nicht qu oder was auch immer das war...","0","0","0","4339.13500001654","","","","","pos","GS","GSnew","3","category3/GS3.png","55","targets/21.png","direct","",""
"","image-slider-response","93","440050","0.0-8.0-0.3","5hlfcn5hko","many_one","0","direct_first","1","NG04LI20","0","18","1","0","3","1","Beim 2. Test passen viele Ausprachen nicht zu dem gegebenen Wort. 们 ist nicht qu oder was auch immer das war...","0","0","0","11540.71499966085","","","","","neg","GS","GSold","4","category4/CS10.png","-100","targets/25.png","direct","",""
"","image-slider-response","94","443448","0.0-8.0-0.4","5hlfcn5hko","many_one","0","direct_first","1","NG04LI20","0","18","1","0","3","1","Beim 2. Test passen viele Ausprachen nicht zu dem gegebenen Wort. 们 ist nicht qu oder was auch immer das war...","0","0","0","3388.319999910891","","","","","pos","GS","GSold","3","category3/CS2.png","72","targets/8.png","direct","",""
"","image-slider-response","95","446522","0.0-8.0-0.5","5hlfcn5hko","many_one","0","direct_first","1","NG04LI20","0","18","1","0","3","1","Beim 2. Test passen viele Ausprachen nicht zu dem gegebenen Wort. 们 ist nicht qu oder was auch immer das war...","0","0","0","3066.6050002910197","","","","","pos","CS","CS","2","category2/CS9.png","100","targets/2.png","direct","",""
"","image-slider-response","96","449745","0.0-8.0-0.6","5hlfcn5hko","many_one","0","direct_first","1","NG04LI20","0","18","1","0","3","1","Beim 2. Test passen viele Ausprachen nicht zu dem gegebenen Wort. 们 ist nicht qu oder was auch immer das war...","0","0","0","3215.230000205338","","","","","neg","CS","CS","1","category1/CS9.png","-100","targets/16.png","direct","",""
"","image-slider-response","97","452554","0.0-8.0-0.7","5hlfcn5hko","many_one","0","direct_first","1","NG04LI20","0","18","1","0","3","1","Beim 2. Test passen viele Ausprachen nicht zu dem gegebenen Wort. 们 ist nicht qu oder was auch immer das war...","0","0","0","2802.3799997754395","","","","","neg","GS","GSold","4","category4/CS4.png","-100","targets/37.png","direct","",""
"","image-slider-response","98","455317","0.0-8.0-0.8","5hlfcn5hko","many_one","0","direct_first","1","NG04LI20","0","18","1","0","3","1","Beim 2. Test passen viele Ausprachen nicht zu dem gegebenen Wort. 们 ist nicht qu oder was auch immer das war...","0","0","0","2754.600000102073","","","","","pos","CS","CS","2","category2/CS2.png","100","targets/18.png","direct","",""
"","image-slider-response","99","458892","0.0-8.0-0.9","5hlfcn5hko","many_one","0","direct_first","1","NG04LI20","0","18","1","0","3","1","Beim 2. Test passen viele Ausprachen nicht zu dem gegebenen Wort. 们 ist nicht qu oder was auch immer das war...","0","0","0","3567.9550003260374","","","","","pos","GS","GSnew","3","category3/GS2.png","100","targets/7.png","direct","",""
"","image-slider-response","100","461442","0.0-8.0-0.10","5hlfcn5hko","many_one","0","direct_first","1","NG04LI20","0","18","1","0","3","1","Beim 2. Test passen viele Ausprachen nicht zu dem gegebenen Wort. 们 ist nicht qu oder was auch immer das war...","0","0","0","2541.6350001469254","","","","","pos","GS","GSold","3","category3/CS10.png","100","targets/19.png","direct","",""
"","image-slider-response","101","464557","0.0-8.0-0.11","5hlfcn5hko","many_one","0","direct_first","1","NG04LI20","0","18","1","0","3","1","Beim 2. Test passen viele Ausprachen nicht zu dem gegebenen Wort. 们 ist nicht qu oder was auch immer das war...","0","0","0","3109.3049999326468","","","","","neg","GS","GSold","1","category1/CS1.png","-100","targets/40.png","direct","",""
"","image-slider-response","102","467293","0.0-8.0-0.12","5hlfcn5hko","many_one","0","direct_first","1","NG04LI20","0","18","1","0","3","1","Beim 2. Test passen viele Ausprachen nicht zu dem gegebenen Wort. 们 ist nicht qu oder was auch immer das war...","0","0","0","2723.2800000347197","","","","","pos","GS","GSold","2","category2/CS5.png","100","targets/38.png","direct","",""
"","image-slider-response","103","471997","0.0-8.0-0.13","5hlfcn5hko","many_one","0","direct_first","1","NG04LI20","0","18","1","0","3","1","Beim 2. Test passen viele Ausprachen nicht zu dem gegebenen Wort. 们 ist nicht qu oder was auch immer das war...","0","0","0","4696.2850000709295","","","","","pos","CS","CS","3","category3/CS6.png","100","targets/41.png","direct","",""
"","image-slider-response","104","475865","0.0-8.0-0.14","5hlfcn5hko","many_one","0","direct_first","1","NG04LI20","0","18","1","0","3","1","Beim 2. Test passen viele Ausprachen nicht zu dem gegebenen Wort. 们 ist nicht qu oder was auch immer das war...","0","0","0","3860.6699998490512","","","","","neg","GS","GSold","1","category1/CS4.png","-100","targets/12.png","direct","",""
"","image-slider-response","105","479654","0.0-8.0-0.15","5hlfcn5hko","many_one","0","direct_first","1","NG04LI20","0","18","1","0","3","1","Beim 2. Test passen viele Ausprachen nicht zu dem gegebenen Wort. 们 ist nicht qu oder was auch immer das war...","0","0","0","3779.5949997380376","","","","","neg","GS","GSnew","1","category1/GS3.png","100","targets/33.png","direct","",""
"","image-slider-response","106","486345","0.0-8.0-0.16","5hlfcn5hko","many_one","0","direct_first","1","NG04LI20","0","18","1","0","3","1","Beim 2. Test passen viele Ausprachen nicht zu dem gegebenen Wort. 们 ist nicht qu oder was auch immer das war...","0","0","0","6682.655000127852","","","","","neg","CS","CS","4","category4/CS5.png","-100","targets/6.png","direct","",""
"","image-slider-response","107","488966","0.0-8.0-0.17","5hlfcn5hko","many_one","0","direct_first","1","NG04LI20","0","18","1","0","3","1","Beim 2. Test passen viele Ausprachen nicht zu dem gegebenen Wort. 们 ist nicht qu oder was auch immer das war...","0","0","0","2611.0000000335276","","","","","pos","CS","CS","3","category3/CS7.png","100","targets/24.png","direct","",""
"","image-slider-response","108","518881","0.0-8.0-0.18","5hlfcn5hko","many_one","0","direct_first","1","NG04LI20","0","18","1","0","3","1","Beim 2. Test passen viele Ausprachen nicht zu dem gegebenen Wort. 们 ist nicht qu oder was auch immer das war...","0","0","0","29907.29000000283","","","","","neg","GS","GSnew","1","category1/GS1.png","100","targets/9.png","direct","",""
"","image-slider-response","109","543132","0.0-8.0-0.19","5hlfcn5hko","many_one","0","direct_first","1","NG04LI20","0","18","1","0","3","1","Beim 2. Test passen viele Ausprachen nicht zu dem gegebenen Wort. 们 ist nicht qu oder was auch immer das war...","0","0","0","24244.870000053197","","","","","neg","CS","CS","4","category4/CS3.png","29","targets/27.png","direct","",""
"","image-slider-response","110","547656","0.0-8.0-0.20","5hlfcn5hko","many_one","0","direct_first","1","NG04LI20","0","18","1","0","3","1","Beim 2. Test passen viele Ausprachen nicht zu dem gegebenen Wort. 们 ist nicht qu oder was auch immer das war...","0","0","0","4515.729999635369","","","","","pos","GS","GSnew","2","category2/GS2.png","100","targets/11.png","direct","",""
"","image-slider-response","111","570648","0.0-8.0-0.21","5hlfcn5hko","many_one","0","direct_first","1","NG04LI20","0","18","1","0","3","1","Beim 2. Test passen viele Ausprachen nicht zu dem gegebenen Wort. 们 ist nicht qu oder was auch immer das war...","0","0","0","22982.940000016242","","","","","neg","GS","GSnew","1","category1/GS2.png","-2","targets/29.png","direct","",""
"","image-slider-response","112","573475","0.0-8.0-0.22","5hlfcn5hko","many_one","0","direct_first","1","NG04LI20","0","18","1","0","3","1","Beim 2. Test passen viele Ausprachen nicht zu dem gegebenen Wort. 们 ist nicht qu oder was auch immer das war...","0","0","0","2817.2149998135865","","","","","pos","CS","CS","3","category3/CS4.png","100","targets/14.png","direct","",""
"","image-slider-response","113","587826","0.0-8.0-0.23","5hlfcn5hko","many_one","0","direct_first","1","NG04LI20","0","18","1","0","3","1","Beim 2. Test passen viele Ausprachen nicht zu dem gegebenen Wort. 们 ist nicht qu oder was auch immer das war...","0","0","0","14346.200000029057","","","","","neg","GS","abstract","1","category1/ma.png","86","targets/39.png","direct","",""
"","image-slider-response","114","600752","0.0-8.0-0.24","5hlfcn5hko","many_one","0","direct_first","1","NG04LI20","0","18","1","0","3","1","Beim 2. Test passen viele Ausprachen nicht zu dem gegebenen Wort. 们 ist nicht qu oder was auch immer das war...","0","0","0","12916.770000010729","","","","","neg","GS","GSnew","4","category4/GS3.png","96","targets/5.png","direct","",""
"","image-slider-response","115","607441","0.0-8.0-0.25","5hlfcn5hko","many_one","0","direct_first","1","NG04LI20","0","18","1","0","3","1","Beim 2. Test passen viele Ausprachen nicht zu dem gegebenen Wort. 们 ist nicht qu oder was auch immer das war...","0","0","0","6680.354999843985","","","","","pos","CS","CS","2","category2/CS6.png","100","targets/20.png","direct","",""
"","image-slider-response","116","621709","0.0-8.0-0.26","5hlfcn5hko","many_one","0","direct_first","1","NG04LI20","0","18","1","0","3","1","Beim 2. Test passen viele Ausprachen nicht zu dem gegebenen Wort. 们 ist nicht qu oder was auch immer das war...","0","0","0","14259.20999981463","","","","","neg","GS","GSold","4","category4/CS2.png","-26","targets/13.png","direct","",""
"","image-slider-response","117","624254","0.0-8.0-0.27","5hlfcn5hko","many_one","0","direct_first","1","NG04LI20","0","18","1","0","3","1","Beim 2. Test passen viele Ausprachen nicht zu dem gegebenen Wort. 们 ist nicht qu oder was auch immer das war...","0","0","0","2537.375000305474","","","","","neg","CS","CS","4","category4/CS6.png","-27","targets/30.png","direct","",""
"","image-slider-response","118","628074","0.0-8.0-0.28","5hlfcn5hko","many_one","0","direct_first","1","NG04LI20","0","18","1","0","3","1","Beim 2. Test passen viele Ausprachen nicht zu dem gegebenen Wort. 们 ist nicht qu oder was auch immer das war...","0","0","0","3814.995000138879","","","","","neg","GS","abstract","4","category4/lin.png","100","targets/45.png","direct","",""
"","image-slider-response","119","631763","0.0-8.0-0.29","5hlfcn5hko","many_one","0","direct_first","1","NG04LI20","0","18","1","0","3","1","Beim 2. Test passen viele Ausprachen nicht zu dem gegebenen Wort. 们 ist nicht qu oder was auch immer das war...","0","0","0","3680.4150003008544","","","","","pos","CS","CS","3","category3/CS3.png","98","targets/23.png","direct","",""
"","image-slider-response","120","633192","0.0-8.0-0.30","5hlfcn5hko","many_one","0","direct_first","1","NG04LI20","0","18","1","0","3","1","Beim 2. Test passen viele Ausprachen nicht zu dem gegebenen Wort. 们 ist nicht qu oder was auch immer das war...","0","0","0","1423.5249999910593","","","","","pos","GS","abstract","3","category3/wang.png","97","targets/15.png","direct","",""
"","image-slider-response","121","634714","0.0-8.0-0.31","5hlfcn5hko","many_one","0","direct_first","1","NG04LI20","0","18","1","0","3","1","Beim 2. Test passen viele Ausprachen nicht zu dem gegebenen Wort. 们 ist nicht qu oder was auch immer das war...","0","0","0","1516.6499996557832","","","","","pos","GS","GSold","2","category2/CS4.png","97","targets/3.png","direct","",""
"","image-slider-response","122","659658","0.0-8.0-0.32","5hlfcn5hko","many_one","0","direct_first","1","NG04LI20","0","18","1","0","3","1","Beim 2. Test passen viele Ausprachen nicht zu dem gegebenen Wort. 们 ist nicht qu oder was auch immer das war...","0","0","0","24938.420000020415","","","","","neg","CS","CS","4","category4/CS1.png","-7","targets/4.png","direct","",""
"","image-slider-response","123","676571","0.0-8.0-0.33","5hlfcn5hko","many_one","0","direct_first","1","NG04LI20","0","18","1","0","3","1","Beim 2. Test passen viele Ausprachen nicht zu dem gegebenen Wort. 们 ist nicht qu oder was auch immer das war...","0","0","0","16906.37500025332","","","","","neg","GS","GSnew","4","category4/GS1.png","63","targets/42.png","direct","",""
"","image-slider-response","124","678428","0.0-8.0-0.34","5hlfcn5hko","many_one","0","direct_first","1","NG04LI20","0","18","1","0","3","1","Beim 2. Test passen viele Ausprachen nicht zu dem gegebenen Wort. 们 ist nicht qu oder was auch immer das war...","0","0","0","1852.9850002378225","","","","","pos","CS","CS","3","category3/CS8.png","98","targets/48.png","direct","",""
"","image-slider-response","125","680488","0.0-8.0-0.35","5hlfcn5hko","many_one","0","direct_first","1","NG04LI20","0","18","1","0","3","1","Beim 2. Test passen viele Ausprachen nicht zu dem gegebenen Wort. 们 ist nicht qu oder was auch immer das war...","0","0","0","2055.9999998658895","","","","","pos","GS","GSnew","2","category2/GS3.png","98","targets/26.png","direct","",""
"","image-slider-response","126","682066","0.0-8.0-0.36","5hlfcn5hko","many_one","0","direct_first","1","NG04LI20","0","18","1","0","3","1","Beim 2. Test passen viele Ausprachen nicht zu dem gegebenen Wort. 们 ist nicht qu oder was auch immer das war...","0","0","0","1572.554999962449","","","","","pos","GS","GSold","2","category2/CS10.png","97","targets/32.png","direct","",""
"","image-slider-response","127","683482","0.0-8.0-0.37","5hlfcn5hko","many_one","0","direct_first","1","NG04LI20","0","18","1","0","3","1","Beim 2. Test passen viele Ausprachen nicht zu dem gegebenen Wort. 们 ist nicht qu oder was auch immer das war...","0","0","0","1410.37999978289","","","","","pos","CS","CS","2","category2/CS3.png","99","targets/43.png","direct","",""
"","image-slider-response","128","686258","0.0-8.0-0.38","5hlfcn5hko","many_one","0","direct_first","1","NG04LI20","0","18","1","0","3","1","Beim 2. Test passen viele Ausprachen nicht zu dem gegebenen Wort. 们 ist nicht qu oder was auch immer das war...","0","0","0","2771.2099999189377","","","","","neg","CS","CS","1","category1/CS2.png","70","targets/31.png","direct","",""
"","image-slider-response","129","688269","0.0-8.0-0.39","5hlfcn5hko","many_one","0","direct_first","1","NG04LI20","0","18","1","0","3","1","Beim 2. Test passen viele Ausprachen nicht zu dem gegebenen Wort. 们 ist nicht qu oder was auch immer das war...","0","0","0","2005.755000282079","","","","","neg","CS","CS","4","category4/CS8.png","94","targets/35.png","direct","",""
"","image-slider-response","130","689725","0.0-8.0-0.40","5hlfcn5hko","many_one","0","direct_first","1","NG04LI20","0","18","1","0","3","1","Beim 2. Test passen viele Ausprachen nicht zu dem gegebenen Wort. 们 ist nicht qu oder was auch immer das war...","0","0","0","1451.5050002373755","","","","","pos","GS","GSold","3","category3/CS5.png","98","targets/28.png","direct","",""
"","image-slider-response","131","691199","0.0-8.0-0.41","5hlfcn5hko","many_one","0","direct_first","1","NG04LI20","0","18","1","0","3","1","Beim 2. Test passen viele Ausprachen nicht zu dem gegebenen Wort. 们 ist nicht qu oder was auch immer das war...","0","0","0","1468.8850003294647","","","","","pos","CS","CS","2","category2/CS1.png","97","targets/10.png","direct","",""
"","image-slider-response","132","692598","0.0-8.0-0.42","5hlfcn5hko","many_one","0","direct_first","1","NG04LI20","0","18","1","0","3","1","Beim 2. Test passen viele Ausprachen nicht zu dem gegebenen Wort. 们 ist nicht qu oder was auch immer das war...","0","0","0","1392.909999936819","","","","","neg","CS","CS","1","category1/CS10.png","96","targets/36.png","direct","",""
"","image-slider-response","133","696395","0.0-8.0-0.43","5hlfcn5hko","many_one","0","direct_first","1","NG04LI20","0","18","1","0","3","1","Beim 2. Test passen viele Ausprachen nicht zu dem gegebenen Wort. 们 ist nicht qu oder was auch immer das war...","0","0","0","3792.0399997383356","","","","","pos","GS","GSnew","2","category2/GS1.png","90","targets/34.png","direct","",""
"","image-slider-response","134","697990","0.0-8.0-0.44","5hlfcn5hko","many_one","0","direct_first","1","NG04LI20","0","18","1","0","3","1","Beim 2. Test passen viele Ausprachen nicht zu dem gegebenen Wort. 们 ist nicht qu oder was auch immer das war...","0","0","0","1590.2000004425645","","","","","pos","GS","abstract","2","category2/men.png","96","targets/17.png","direct","",""
"","image-slider-response","135","701916","0.0-8.0-0.45","5hlfcn5hko","many_one","0","direct_first","1","NG04LI20","0","18","1","0","3","1","Beim 2. Test passen viele Ausprachen nicht zu dem gegebenen Wort. 们 ist nicht qu oder was auch immer das war...","0","0","0","3920.109999831766","","","","","neg","GS","GSnew","4","category4/GS2.png","34","targets/44.png","direct","",""
"","image-slider-response","136","712178","0.0-8.0-0.46","5hlfcn5hko","many_one","0","direct_first","1","NG04LI20","0","18","1","0","3","1","Beim 2. Test passen viele Ausprachen nicht zu dem gegebenen Wort. 们 ist nicht qu oder was auch immer das war...","0","0","0","10255.690000019968","","","","","neg","CS","CS","1","category1/CS7.png","-46","targets/47.png","direct","",""
"","image-slider-response","137","714548","0.0-8.0-0.47","5hlfcn5hko","many_one","0","direct_first","1","NG04LI20","0","18","1","0","3","1","Beim 2. Test passen viele Ausprachen nicht zu dem gegebenen Wort. 们 ist nicht qu oder was auch immer das war...","0","0","0","2362.1399998664856","","","","","pos","GS","GSnew","3","category3/GS1.png","87","targets/22.png","direct","",""
"","html-keyboard-response","138","727539","0.0-9.0","5hlfcn5hko","many_one","0","direct_first","1","NG04LI20","0","18","1","0","3","1","Beim 2. Test passen viele Ausprachen nicht zu dem gegebenen Wort. 们 ist nicht qu oder was auch immer das war...","0","0","0","12984.805000014603","","","<p>Sie sehen nun die chinesischen Zeichen nur ganz kurz. Danach sehen Sie die jeweilige Aussprache der Zeichen als Silbe auf dem Bildschrim. Ihre Aufgabe ist es, für jede Silbe anzugeben, ob diese etwas angenehmes, oder unangenehmes bedeuten könnte. Verlassen Sie sich hier vor allem auf Ihre Intuition.<br><br>Die Zeichen werden nur zur Orientierung dargestellt, beachten Sie sie deshalb nicht. Konzentrieren Sie sich vor allem auf die Silben. <br>Reagieren Sie mit folgenden zwei Tasten: <br><br><b>'D' </b> wenn die Silbe etwas <b>unangenehmes</b> bedeuten könnte. <br><b>'K'</b> wenn die Silbe etwas <b>angenehmes</b> bedeuten könnte. <br><br>Bitte legen Sie nun den Zeigefinger der linken Hand auf die Taste 'D' und den Zeigefinger der rechten Hand auf die Taste 'K'. <br>Reagieren Sie auf jede Silbe so schnell wie möglich. Uns interessiert Ihre spontane Reaktion. <br> <br> <br>Drücken Sie 'D' oder 'K', um die nächste Aufgabe zu starten. </p>","75","","","","","","","","","",""
"","html-keyboard-response","139","730544","0.0-10.0-0.0","5hlfcn5hko","many_one","0","direct_first","1","NG04LI20","0","18","1","0","3","1","Beim 2. Test passen viele Ausprachen nicht zu dem gegebenen Wort. 们 ist nicht qu oder was auch immer das war...","0","0","0","null","","","<div style=""font-size:60px;"">+</div>","null","","","","","","","","","",""
"","html-keyboard-response","140","730641","0.0-10.0-1.0","5hlfcn5hko","many_one","0","direct_first","1","NG04LI20","0","18","1","0","3","1","Beim 2. Test passen viele Ausprachen nicht zu dem gegebenen Wort. 们 ist nicht qu oder was auch immer das war...","0","0","0","null","","","<img src = 'category4/CS5.png' width = '100%;'>","null","","","","","","","","","",""
"","html-keyboard-response","141","730897","0.0-10.0-2.0","5hlfcn5hko","many_one","0","direct_first","1","NG04LI20","0","18","1","0","3","1","Beim 2. Test passen viele Ausprachen nicht zu dem gegebenen Wort. 们 ist nicht qu oder was auch immer das war...","0","0","0","null","","","<img src = 'targets/6.png' width = '100%;'>","null","","","","","","","","","",""
"","html-keyboard-response","142","744174","0.0-10.0-3.0","5hlfcn5hko","many_one","0","direct_first","1","NG04LI20","0","18","1","0","3","1","Beim 2. Test passen viele Ausprachen nicht zu dem gegebenen Wort. 们 ist nicht qu oder was auch immer das war...","0","0","0","13273.084999993443","","","<img src = 'targets/mask.png' width = '100%;'>","75","neg","CS","CS","4","category4/CS5.png","","targets/6.png","indirect","1","0"
"","html-keyboard-response","143","745681","0.0-10.0-0.1","5hlfcn5hko","many_one","0","direct_first","1","NG04LI20","0","18","1","0","3","1","Beim 2. Test passen viele Ausprachen nicht zu dem gegebenen Wort. 们 ist nicht qu oder was auch immer das war...","0","0","0","null","","","<div style=""font-size:60px;"">+</div>","null","","","","","","","","","",""
"","html-keyboard-response","144","745776","0.0-10.0-1.1","5hlfcn5hko","many_one","0","direct_first","1","NG04LI20","0","18","1","0","3","1","Beim 2. Test passen viele Ausprachen nicht zu dem gegebenen Wort. 们 ist nicht qu oder was auch immer das war...","0","0","0","null","","","<img src = 'category2/CS6.png' width = '100%;'>","null","","","","","","","","","",""
"","html-keyboard-response","145","746032","0.0-10.0-2.1","5hlfcn5hko","many_one","0","direct_first","1","NG04LI20","0","18","1","0","3","1","Beim 2. Test passen viele Ausprachen nicht zu dem gegebenen Wort. 们 ist nicht qu oder was auch immer das war...","0","0","0","null","","","<img src = 'targets/20.png' width = '100%;'>","null","","","","","","","","","",""
"","html-keyboard-response","146","749837","0.0-10.0-3.1","5hlfcn5hko","many_one","0","direct_first","1","NG04LI20","0","18","1","0","3","1","Beim 2. Test passen viele Ausprachen nicht zu dem gegebenen Wort. 们 ist nicht qu oder was auch immer das war...","0","0","0","3798.6250002868474","","","<img src = 'targets/mask.png' width = '100%;'>","75","pos","CS","CS","2","category2/CS6.png","","targets/20.png","indirect","1","1"
"","html-keyboard-response","147","751340","0.0-10.0-0.2","5hlfcn5hko","many_one","0","direct_first","1","NG04LI20","0","18","1","0","3","1","Beim 2. Test passen viele Ausprachen nicht zu dem gegebenen Wort. 们 ist nicht qu oder was auch immer das war...","0","0","0","null","","","<div style=""font-size:60px;"">+</div>","null","","","","","","","","","",""
"","html-keyboard-response","148","751435","0.0-10.0-1.2","5hlfcn5hko","many_one","0","direct_first","1","NG04LI20","0","18","1","0","3","1","Beim 2. Test passen viele Ausprachen nicht zu dem gegebenen Wort. 们 ist nicht qu oder was auch immer das war...","0","0","0","null","","","<img src = 'category1/CS9.png' width = '100%;'>","null","","","","","","","","","",""
"","html-keyboard-response","149","751691","0.0-10.0-2.2","5hlfcn5hko","many_one","0","direct_first","1","NG04LI20","0","18","1","0","3","1","Beim 2. Test passen viele Ausprachen nicht zu dem gegebenen Wort. 们 ist nicht qu oder was auch immer das war...","0","0","0","null","","","<img src = 'targets/16.png' width = '100%;'>","null","","","","","","","","","",""
"","html-keyboard-response","150","753849","0.0-10.0-3.2","5hlfcn5hko","many_one","0","direct_first","1","NG04LI20","0","18","1","0","3","1","Beim 2. Test passen viele Ausprachen nicht zu dem gegebenen Wort. 们 ist nicht qu oder was auch immer das war...","0","0","0","2152.0650000311434","","","<img src = 'targets/mask.png' width = '100%;'>","75","neg","CS","CS","1","category1/CS9.png","","targets/16.png","indirect","1","2"
"","html-keyboard-response","151","755353","0.0-10.0-0.3","5hlfcn5hko","many_one","0","direct_first","1","NG04LI20","0","18","1","0","3","1","Beim 2. Test passen viele Ausprachen nicht zu dem gegebenen Wort. 们 ist nicht qu oder was auch immer das war...","0","0","0","null","","","<div style=""font-size:60px;"">+</div>","null","","","","","","","","","",""
"","html-keyboard-response","152","755448","0.0-10.0-1.3","5hlfcn5hko","many_one","0","direct_first","1","NG04LI20","0","18","1","0","3","1","Beim 2. Test passen viele Ausprachen nicht zu dem gegebenen Wort. 们 ist nicht qu oder was auch immer das war...","0","0","0","null","","","<img src = 'category1/CS4.png' width = '100%;'>","null","","","","","","","","","",""
"","html-keyboard-response","153","755704","0.0-10.0-2.3","5hlfcn5hko","many_one","0","direct_first","1","NG04LI20","0","18","1","0","3","1","Beim 2. Test passen viele Ausprachen nicht zu dem gegebenen Wort. 们 ist nicht qu oder was auch immer das war...","0","0","0","null","","","<img src = 'targets/12.png' width = '100%;'>","null","","","","","","","","","",""
"","html-keyboard-response","154","756851","0.0-10.0-3.3","5hlfcn5hko","many_one","0","direct_first","1","NG04LI20","0","18","1","0","3","1","Beim 2. Test passen viele Ausprachen nicht zu dem gegebenen Wort. 们 ist nicht qu oder was auch immer das war...","0","0","0","1140.3000000864267","","","<img src = 'targets/mask.png' width = '100%;'>","75","neg","GS","GSold","1","category1/CS4.png","","targets/12.png","indirect","1","3"
"","html-keyboard-response","155","758356","0.0-10.0-0.4","5hlfcn5hko","many_one","0","direct_first","1","NG04LI20","0","18","1","0","3","1","Beim 2. Test passen viele Ausprachen nicht zu dem gegebenen Wort. 们 ist nicht qu oder was auch immer das war...","0","0","0","null","","","<div style=""font-size:60px;"">+</div>","null","","","","","","","","","",""
"","html-keyboard-response","156","758450","0.0-10.0-1.4","5hlfcn5hko","many_one","0","direct_first","1","NG04LI20","0","18","1","0","3","1","Beim 2. Test passen viele Ausprachen nicht zu dem gegebenen Wort. 们 ist nicht qu oder was auch immer das war...","0","0","0","null","","","<img src = 'category1/CS3.png' width = '100%;'>","null","","","","","","","","","",""
"","html-keyboard-response","157","758706","0.0-10.0-2.4","5hlfcn5hko","many_one","0","direct_first","1","NG04LI20","0","18","1","0","3","1","Beim 2. Test passen viele Ausprachen nicht zu dem gegebenen Wort. 们 ist nicht qu oder was auch immer das war...","0","0","0","null","","","<img src = 'targets/1.png' width = '100%;'>","null","","","","","","","","","",""
"","html-keyboard-response","158","759308","0.0-10.0-3.4","5hlfcn5hko","many_one","0","direct_first","1","NG04LI20","0","18","1","0","3","1","Beim 2. Test passen viele Ausprachen nicht zu dem gegebenen Wort. 们 ist nicht qu oder was auch immer das war...","0","0","0","596.2050002999604","","","<img src = 'targets/mask.png' width = '100%;'>","75","neg","CS","CS","1","category1/CS3.png","","targets/1.png","indirect","1","4"
"","html-keyboard-response","159","760812","0.0-10.0-0.5","5hlfcn5hko","many_one","0","direct_first","1","NG04LI20","0","18","1","0","3","1","Beim 2. Test passen viele Ausprachen nicht zu dem gegebenen Wort. 们 ist nicht qu oder was auch immer das war...","0","0","0","null","","","<div style=""font-size:60px;"">+</div>","null","","","","","","","","","",""
"","html-keyboard-response","160","760907","0.0-10.0-1.5","5hlfcn5hko","many_one","0","direct_first","1","NG04LI20","0","18","1","0","3","1","Beim 2. Test passen viele Ausprachen nicht zu dem gegebenen Wort. 们 ist nicht qu oder was auch immer das war...","0","0","0","null","","","<img src = 'category1/CS2.png' width = '100%;'>","null","","","","","","","","","",""
"","html-keyboard-response","161","761161","0.0-10.0-2.5","5hlfcn5hko","many_one","0","direct_first","1","NG04LI20","0","18","1","0","3","1","Beim 2. Test passen viele Ausprachen nicht zu dem gegebenen Wort. 们 ist nicht qu oder was auch immer das war...","0","0","0","null","","","<img src = 'targets/31.png' width = '100%;'>","null","","","","","","","","","",""
"","html-keyboard-response","162","761617","0.0-10.0-3.5","5hlfcn5hko","many_one","0","direct_first","1","NG04LI20","0","18","1","0","3","1","Beim 2. Test passen viele Ausprachen nicht zu dem gegebenen Wort. 们 ist nicht qu oder was auch immer das war...","0","0","0","451.06999995186925","","","<img src = 'targets/mask.png' width = '100%;'>","75","neg","CS","CS","1","category1/CS2.png","","targets/31.png","indirect","1","5"
"","html-keyboard-response","163","763120","0.0-10.0-0.6","5hlfcn5hko","many_one","0","direct_first","1","NG04LI20","0","18","1","0","3","1","Beim 2. Test passen viele Ausprachen nicht zu dem gegebenen Wort. 们 ist nicht qu oder was auch immer das war...","0","0","0","null","","","<div style=""font-size:60px;"">+</div>","null","","","","","","","","","",""
"","html-keyboard-response","164","763214","0.0-10.0-1.6","5hlfcn5hko","many_one","0","direct_first","1","NG04LI20","0","18","1","0","3","1","Beim 2. Test passen viele Ausprachen nicht zu dem gegebenen Wort. 们 ist nicht qu oder was auch immer das war...","0","0","0","null","","","<img src = 'category3/CS7.png' width = '100%;'>","null","","","","","","","","","",""
"","html-keyboard-response","165","763471","0.0-10.0-2.6","5hlfcn5hko","many_one","0","direct_first","1","NG04LI20","0","18","1","0","3","1","Beim 2. Test passen viele Ausprachen nicht zu dem gegebenen Wort. 们 ist nicht qu oder was auch immer das war...","0","0","0","null","","","<img src = 'targets/24.png' width = '100%;'>","null","","","","","","","","","",""
"","html-keyboard-response","166","764838","0.0-10.0-3.6","5hlfcn5hko","many_one","0","direct_first","1","NG04LI20","0","18","1","0","3","1","Beim 2. Test passen viele Ausprachen nicht zu dem gegebenen Wort. 们 ist nicht qu oder was auch immer das war...","0","0","0","1362.9750004038215","","","<img src = 'targets/mask.png' width = '100%;'>","75","pos","CS","CS","3","category3/CS7.png","","targets/24.png","indirect","1","6"
"","html-keyboard-response","167","766342","0.0-10.0-0.7","5hlfcn5hko","many_one","0","direct_first","1","NG04LI20","0","18","1","0","3","1","Beim 2. Test passen viele Ausprachen nicht zu dem gegebenen Wort. 们 ist nicht qu oder was auch immer das war...","0","0","0","null","","","<div style=""font-size:60px;"">+</div>","null","","","","","","","","","",""
"","html-keyboard-response","168","766437","0.0-10.0-1.7","5hlfcn5hko","many_one","0","direct_first","1","NG04LI20","0","18","1","0","3","1","Beim 2. Test passen viele Ausprachen nicht zu dem gegebenen Wort. 们 ist nicht qu oder was auch immer das war...","0","0","0","null","","","<img src = 'category3/CS3.png' width = '100%;'>","null","","","","","","","","","",""
"","html-keyboard-response","169","766693","0.0-10.0-2.7","5hlfcn5hko","many_one","0","direct_first","1","NG04LI20","0","18","1","0","3","1","Beim 2. Test passen viele Ausprachen nicht zu dem gegebenen Wort. 们 ist nicht qu oder was auch immer das war...","0","0","0","null","","","<img src = 'targets/23.png' width = '100%;'>","null","","","","","","","","","",""
"","html-keyboard-response","170","767301","0.0-10.0-3.7","5hlfcn5hko","many_one","0","direct_first","1","NG04LI20","0","18","1","0","3","1","Beim 2. Test passen viele Ausprachen nicht zu dem gegebenen Wort. 们 ist nicht qu oder was auch immer das war...","0","0","0","601.8199999816716","","","<img src = 'targets/mask.png' width = '100%;'>","75","pos","CS","CS","3","category3/CS3.png","","targets/23.png","indirect","1","7"
"","html-keyboard-response","171","768804","0.0-10.0-0.8","5hlfcn5hko","many_one","0","direct_first","1","NG04LI20","0","18","1","0","3","1","Beim 2. Test passen viele Ausprachen nicht zu dem gegebenen Wort. 们 ist nicht qu oder was auch immer das war...","0","0","0","null","","","<div style=""font-size:60px;"">+</div>","null","","","","","","","","","",""
"","html-keyboard-response","172","768899","0.0-10.0-1.8","5hlfcn5hko","many_one","0","direct_first","1","NG04LI20","0","18","1","0","3","1","Beim 2. Test passen viele Ausprachen nicht zu dem gegebenen Wort. 们 ist nicht qu oder was auch immer das war...","0","0","0","null","","","<img src = 'category3/CS4.png' width = '100%;'>","null","","","","","","","","","",""
"","html-keyboard-response","173","769156","0.0-10.0-2.8","5hlfcn5hko","many_one","0","direct_first","1","NG04LI20","0","18","1","0","3","1","Beim 2. Test passen viele Ausprachen nicht zu dem gegebenen Wort. 们 ist nicht qu oder was auch immer das war...","0","0","0","null","","","<img src = 'targets/14.png' width = '100%;'>","null","","","","","","","","","",""
"","html-keyboard-response","174","769970","0.0-10.0-3.8","5hlfcn5hko","many_one","0","direct_first","1","NG04LI20","0","18","1","0","3","1","Beim 2. Test passen viele Ausprachen nicht zu dem gegebenen Wort. 们 ist nicht qu oder was auch immer das war...","0","0","0","810.1050001569092","","","<img src = 'targets/mask.png' width = '100%;'>","75","pos","CS","CS","3","category3/CS4.png","","targets/14.png","indirect","1","8"
"","html-keyboard-response","175","771476","0.0-10.0-0.9","5hlfcn5hko","many_one","0","direct_first","1","NG04LI20","0","18","1","0","3","1","Beim 2. Test passen viele Ausprachen nicht zu dem gegebenen Wort. 们 ist nicht qu oder was auch immer das war...","0","0","0","null","","","<div style=""font-size:60px;"">+</div>","null","","","","","","","","","",""
"","html-keyboard-response","176","771571","0.0-10.0-1.9","5hlfcn5hko","many_one","0","direct_first","1","NG04LI20","0","18","1","0","3","1","Beim 2. Test passen viele Ausprachen nicht zu dem gegebenen Wort. 们 ist nicht qu oder was auch immer das war...","0","0","0","null","","","<img src = 'category2/CS2.png' width = '100%;'>","null","","","","","","","","","",""
"","html-keyboard-response","177","771828","0.0-10.0-2.9","5hlfcn5hko","many_one","0","direct_first","1","NG04LI20","0","18","1","0","3","1","Beim 2. Test passen viele Ausprachen nicht zu dem gegebenen Wort. 们 ist nicht qu oder was auch immer das war...","0","0","0","null","","","<img src = 'targets/18.png' width = '100%;'>","null","","","","","","","","","",""
"","html-keyboard-response","178","771934","0.0-10.0-3.9","5hlfcn5hko","many_one","0","direct_first","1","NG04LI20","0","18","1","0","3","1","Beim 2. Test passen viele Ausprachen nicht zu dem gegebenen Wort. 们 ist nicht qu oder was auch immer das war...","0","0","0","101.15500027313828","","","<img src = 'targets/mask.png' width = '100%;'>","75","pos","CS","CS","2","category2/CS2.png","","targets/18.png","indirect","1","9"
"","html-keyboard-response","179","773439","0.0-10.0-0.10","5hlfcn5hko","many_one","0","direct_first","1","NG04LI20","0","18","1","0","3","1","Beim 2. Test passen viele Ausprachen nicht zu dem gegebenen Wort. 们 ist nicht qu oder was auch immer das war...","0","0","0","null","","","<div style=""font-size:60px;"">+</div>","null","","","","","","","","","",""
"","html-keyboard-response","180","773533","0.0-10.0-1.10","5hlfcn5hko","many_one","0","direct_first","1","NG04LI20","0","18","1","0","3","1","Beim 2. Test passen viele Ausprachen nicht zu dem gegebenen Wort. 们 ist nicht qu oder was auch immer das war...","0","0","0","null","","","<img src = 'category2/CS3.png' width = '100%;'>","null","","","","","","","","","",""
"","html-keyboard-response","181","773789","0.0-10.0-2.10","5hlfcn5hko","many_one","0","direct_first","1","NG04LI20","0","18","1","0","3","1","Beim 2. Test passen viele Ausprachen nicht zu dem gegebenen Wort. 们 ist nicht qu oder was auch immer das war...","0","0","0","null","","","<img src = 'targets/43.png' width = '100%;'>","null","","","","","","","","","",""
"","html-keyboard-response","182","774200","0.0-10.0-3.10","5hlfcn5hko","many_one","0","direct_first","1","NG04LI20","0","18","1","0","3","1","Beim 2. Test passen viele Ausprachen nicht zu dem gegebenen Wort. 们 ist nicht qu oder was auch immer das war...","0","0","0","407.6399998739362","","","<img src = 'targets/mask.png' width = '100%;'>","75","pos","CS","CS","2","category2/CS3.png","","targets/43.png","indirect","1","10"
"","html-keyboard-response","183","775706","0.0-10.0-0.11","5hlfcn5hko","many_one","0","direct_first","1","NG04LI20","0","18","1","0","3","1","Beim 2. Test passen viele Ausprachen nicht zu dem gegebenen Wort. 们 ist nicht qu oder was auch immer das war...","0","0","0","null","","","<div style=""font-size:60px;"">+</div>","null","","","","","","","","","",""
"","html-keyboard-response","184","775802","0.0-10.0-1.11","5hlfcn5hko","many_one","0","direct_first","1","NG04LI20","0","18","1","0","3","1","Beim 2. Test passen viele Ausprachen nicht zu dem gegebenen Wort. 们 ist nicht qu oder was auch immer das war...","0","0","0","null","","","<img src = 'category1/CS7.png' width = '100%;'>","null","","","","","","","","","",""
"","html-keyboard-response","185","776057","0.0-10.0-2.11","5hlfcn5hko","many_one","0","direct_first","1","NG04LI20","0","18","1","0","3","1","Beim 2. Test passen viele Ausprachen nicht zu dem gegebenen Wort. 们 ist nicht qu oder was auch immer das war...","0","0","0","null","","","<img src = 'targets/47.png' width = '100%;'>","null","","","","","","","","","",""
"","html-keyboard-response","186","776469","0.0-10.0-3.11","5hlfcn5hko","many_one","0","direct_first","1","NG04LI20","0","18","1","0","3","1","Beim 2. Test passen viele Ausprachen nicht zu dem gegebenen Wort. 们 ist nicht qu oder was auch immer das war...","0","0","0","407.8150000423193","","","<img src = 'targets/mask.png' width = '100%;'>","75","neg","CS","CS","1","category1/CS7.png","","targets/47.png","indirect","1","11"
"","html-keyboard-response","187","777974","0.0-10.0-0.12","5hlfcn5hko","many_one","0","direct_first","1","NG04LI20","0","18","1","0","3","1","Beim 2. Test passen viele Ausprachen nicht zu dem gegebenen Wort. 们 ist nicht qu oder was auch immer das war...","0","0","0","null","","","<div style=""font-size:60px;"">+</div>","null","","","","","","","","","",""
"","html-keyboard-response","188","778070","0.0-10.0-1.12","5hlfcn5hko","many_one","0","direct_first","1","NG04LI20","0","18","1","0","3","1","Beim 2. Test passen viele Ausprachen nicht zu dem gegebenen Wort. 们 ist nicht qu oder was auch immer das war...","0","0","0","null","","","<img src = 'category2/CS1.png' width = '100%;'>","null","","","","","","","","","",""
"","html-keyboard-response","189","778326","0.0-10.0-2.12","5hlfcn5hko","many_one","0","direct_first","1","NG04LI20","0","18","1","0","3","1","Beim 2. Test passen viele Ausprachen nicht zu dem gegebenen Wort. 们 ist nicht qu oder was auch immer das war...","0","0","0","null","","","<img src = 'targets/10.png' width = '100%;'>","null","","","","","","","","","",""
"","html-keyboard-response","190","778934","0.0-10.0-3.12","5hlfcn5hko","many_one","0","direct_first","1","NG04LI20","0","18","1","0","3","1","Beim 2. Test passen viele Ausprachen nicht zu dem gegebenen Wort. 们 ist nicht qu oder was auch immer das war...","0","0","0","602.1350002847612","","","<img src = 'targets/mask.png' width = '100%;'>","75","pos","CS","CS","2","category2/CS1.png","","targets/10.png","indirect","1","12"
"","html-keyboard-response","191","780442","0.0-10.0-0.13","5hlfcn5hko","many_one","0","direct_first","1","NG04LI20","0","18","1","0","3","1","Beim 2. Test passen viele Ausprachen nicht zu dem gegebenen Wort. 们 ist nicht qu oder was auch immer das war...","0","0","0","null","","","<div style=""font-size:60px;"">+</div>","null","","","","","","","","","",""
"","html-keyboard-response","192","780544","0.0-10.0-1.13","5hlfcn5hko","many_one","0","direct_first","1","NG04LI20","0","18","1","0","3","1","Beim 2. Test passen viele Ausprachen nicht zu dem gegebenen Wort. 们 ist nicht qu oder was auch immer das war...","0","0","0","null","","","<img src = 'category1/CS1.png' width = '100%;'>","null","","","","","","","","","",""
"","html-keyboard-response","193","780800","0.0-10.0-2.13","5hlfcn5hko","many_one","0","direct_first","1","NG04LI20","0","18","1","0","3","1","Beim 2. Test passen viele Ausprachen nicht zu dem gegebenen Wort. 们 ist nicht qu oder was auch immer das war...","0","0","0","null","","","<img src = 'targets/40.png' width = '100%;'>","null","","","","","","","","","",""
"","html-keyboard-response","194","781273","0.0-10.0-3.13","5hlfcn5hko","many_one","0","direct_first","1","NG04LI20","0","18","1","0","3","1","Beim 2. Test passen viele Ausprachen nicht zu dem gegebenen Wort. 们 ist nicht qu oder was auch immer das war...","0","0","0","468.62500021234155","","","<img src = 'targets/mask.png' width = '100%;'>","75","neg","GS","GSold","1","category1/CS1.png","","targets/40.png","indirect","1","13"
"","html-keyboard-response","195","782779","0.0-10.0-0.14","5hlfcn5hko","many_one","0","direct_first","1","NG04LI20","0","18","1","0","3","1","Beim 2. Test passen viele Ausprachen nicht zu dem gegebenen Wort. 们 ist nicht qu oder was auch immer das war...","0","0","0","null","","","<div style=""font-size:60px;"">+</div>","null","","","","","","","","","",""
"","html-keyboard-response","196","782873","0.0-10.0-1.14","5hlfcn5hko","many_one","0","direct_first","1","NG04LI20","0","18","1","0","3","1","Beim 2. Test passen viele Ausprachen nicht zu dem gegebenen Wort. 们 ist nicht qu oder was auch immer das war...","0","0","0","null","","","<img src = 'category1/CS10.png' width = '100%;'>","null","","","","","","","","","",""
"","html-keyboard-response","197","783128","0.0-10.0-2.14","5hlfcn5hko","many_one","0","direct_first","1","NG04LI20","0","18","1","0","3","1","Beim 2. Test passen viele Ausprachen nicht zu dem gegebenen Wort. 们 ist nicht qu oder was auch immer das war...","0","0","0","null","","","<img src = 'targets/36.png' width = '100%;'>","null","","","","","","","","","",""
"","html-keyboard-response","198","783341","0.0-10.0-3.14","5hlfcn5hko","many_one","0","direct_first","1","NG04LI20","0","18","1","0","3","1","Beim 2. Test passen viele Ausprachen nicht zu dem gegebenen Wort. 们 ist nicht qu oder was auch immer das war...","0","0","0","207.35500007867813","","","<img src = 'targets/mask.png' width = '100%;'>","75","neg","CS","CS","1","category1/CS10.png","","targets/36.png","indirect","1","14"
"","html-keyboard-response","199","784849","0.0-10.0-0.15","5hlfcn5hko","many_one","0","direct_first","1","NG04LI20","0","18","1","0","3","1","Beim 2. Test passen viele Ausprachen nicht zu dem gegebenen Wort. 们 ist nicht qu oder was auch immer das war...","0","0","0","null","","","<div style=""font-size:60px;"">+</div>","null","","","","","","","","","",""
"","html-keyboard-response","200","784955","0.0-10.0-1.15","5hlfcn5hko","many_one","0","direct_first","1","NG04LI20","0","18","1","0","3","1","Beim 2. Test passen viele Ausprachen nicht zu dem gegebenen Wort. 们 ist nicht qu oder was auch immer das war...","0","0","0","null","","","<img src = 'category4/CS6.png' width = '100%;'>","null","","","","","","","","","",""
"","html-keyboard-response","201","785213","0.0-10.0-2.15","5hlfcn5hko","many_one","0","direct_first","1","NG04LI20","0","18","1","0","3","1","Beim 2. Test passen viele Ausprachen nicht zu dem gegebenen Wort. 们 ist nicht qu oder was auch immer das war...","0","0","0","null","","","<img src = 'targets/30.png' width = '100%;'>","null","","","","","","","","","",""
"","html-keyboard-response","202","785284","0.0-10.0-3.15","5hlfcn5hko","many_one","0","direct_first","1","NG04LI20","0","18","1","0","3","1","Beim 2. Test passen viele Ausprachen nicht zu dem gegebenen Wort. 们 ist nicht qu oder was auch immer das war...","0","0","0","64.82500024139881","","","<img src = 'targets/mask.png' width = '100%;'>","75","neg","CS","CS","4","category4/CS6.png","","targets/30.png","indirect","1","15"
"","html-keyboard-response","203","786787","0.0-10.0-0.16","5hlfcn5hko","many_one","0","direct_first","1","NG04LI20","0","18","1","0","3","1","Beim 2. Test passen viele Ausprachen nicht zu dem gegebenen Wort. 们 ist nicht qu oder was auch immer das war...","0","0","0","null","","","<div style=""font-size:60px;"">+</div>","null","","","","","","","","","",""
"","html-keyboard-response","204","786881","0.0-10.0-1.16","5hlfcn5hko","many_one","0","direct_first","1","NG04LI20","0","18","1","0","3","1","Beim 2. Test passen viele Ausprachen nicht zu dem gegebenen Wort. 们 ist nicht qu oder was auch immer das war...","0","0","0","null","","","<img src = 'category2/CS10.png' width = '100%;'>","null","","","","","","","","","",""
"","html-keyboard-response","205","787137","0.0-10.0-2.16","5hlfcn5hko","many_one","0","direct_first","1","NG04LI20","0","18","1","0","3","1","Beim 2. Test passen viele Ausprachen nicht zu dem gegebenen Wort. 们 ist nicht qu oder was auch immer das war...","0","0","0","null","","","<img src = 'targets/32.png' width = '100%;'>","null","","","","","","","","","",""
"","html-keyboard-response","206","789951","0.0-10.0-3.16","5hlfcn5hko","many_one","0","direct_first","1","NG04LI20","0","18","1","0","3","1","Beim 2. Test passen viele Ausprachen nicht zu dem gegebenen Wort. 们 ist nicht qu oder was auch immer das war...","0","0","0","2809.2649998143315","","","<img src = 'targets/mask.png' width = '100%;'>","75","pos","GS","GSold","2","category2/CS10.png","","targets/32.png","indirect","1","16"
"","html-keyboard-response","207","791456","0.0-10.0-0.17","5hlfcn5hko","many_one","0","direct_first","1","NG04LI20","0","18","1","0","3","1","Beim 2. Test passen viele Ausprachen nicht zu dem gegebenen Wort. 们 ist nicht qu oder was auch immer das war...","0","0","0","null","","","<div style=""font-size:60px;"">+</div>","null","","","","","","","","","",""
"","html-keyboard-response","208","791558","0.0-10.0-1.17","5hlfcn5hko","many_one","0","direct_first","1","NG04LI20","0","18","1","0","3","1","Beim 2. Test passen viele Ausprachen nicht zu dem gegebenen Wort. 们 ist nicht qu oder was auch immer das war...","0","0","0","null","","","<img src = 'category3/CS8.png' width = '100%;'>","null","","","","","","","","","",""
"","html-keyboard-response","209","791814","0.0-10.0-2.17","5hlfcn5hko","many_one","0","direct_first","1","NG04LI20","0","18","1","0","3","1","Beim 2. Test passen viele Ausprachen nicht zu dem gegebenen Wort. 们 ist nicht qu oder was auch immer das war...","0","0","0","null","","","<img src = 'targets/48.png' width = '100%;'>","null","","","","","","","","","",""
"","html-keyboard-response","210","793070","0.0-10.0-3.17","5hlfcn5hko","many_one","0","direct_first","1","NG04LI20","0","18","1","0","3","1","Beim 2. Test passen viele Ausprachen nicht zu dem gegebenen Wort. 们 ist nicht qu oder was auch immer das war...","0","0","0","1250.694999936968","","","<img src = 'targets/mask.png' width = '100%;'>","75","pos","CS","CS","3","category3/CS8.png","","targets/48.png","indirect","1","17"
"","html-keyboard-response","211","794577","0.0-10.0-0.18","5hlfcn5hko","many_one","0","direct_first","1","NG04LI20","0","18","1","0","3","1","Beim 2. Test passen viele Ausprachen nicht zu dem gegebenen Wort. 们 ist nicht qu oder was auch immer das war...","0","0","0","null","","","<div style=""font-size:60px;"">+</div>","null","","","","","","","","","",""
"","html-keyboard-response","212","794682","0.0-10.0-1.18","5hlfcn5hko","many_one","0","direct_first","1","NG04LI20","0","18","1","0","3","1","Beim 2. Test passen viele Ausprachen nicht zu dem gegebenen Wort. 们 ist nicht qu oder was auch immer das war...","0","0","0","null","","","<img src = 'category4/CS1.png' width = '100%;'>","null","","","","","","","","","",""
"","html-keyboard-response","213","794940","0.0-10.0-2.18","5hlfcn5hko","many_one","0","direct_first","1","NG04LI20","0","18","1","0","3","1","Beim 2. Test passen viele Ausprachen nicht zu dem gegebenen Wort. 们 ist nicht qu oder was auch immer das war...","0","0","0","null","","","<img src = 'targets/4.png' width = '100%;'>","null","","","","","","","","","",""
"","html-keyboard-response","214","795430","0.0-10.0-3.18","5hlfcn5hko","many_one","0","direct_first","1","NG04LI20","0","18","1","0","3","1","Beim 2. Test passen viele Ausprachen nicht zu dem gegebenen Wort. 们 ist nicht qu oder was auch immer das war...","0","0","0","484.19500002637506","","","<img src = 'targets/mask.png' width = '100%;'>","75","neg","CS","CS","4","category4/CS1.png","","targets/4.png","indirect","1","18"
"","html-keyboard-response","215","796934","0.0-10.0-0.19","5hlfcn5hko","many_one","0","direct_first","1","NG04LI20","0","18","1","0","3","1","Beim 2. Test passen viele Ausprachen nicht zu dem gegebenen Wort. 们 ist nicht qu oder was auch immer das war...","0","0","0","null","","","<div style=""font-size:60px;"">+</div>","null","","","","","","","","","",""
"","html-keyboard-response","216","797030","0.0-10.0-1.19","5hlfcn5hko","many_one","0","direct_first","1","NG04LI20","0","18","1","0","3","1","Beim 2. Test passen viele Ausprachen nicht zu dem gegebenen Wort. 们 ist nicht qu oder was auch immer das war...","0","0","0","null","","","<img src = 'category2/CS9.png' width = '100%;'>","null","","","","","","","","","",""
"","html-keyboard-response","217","797284","0.0-10.0-2.19","5hlfcn5hko","many_one","0","direct_first","1","NG04LI20","0","18","1","0","3","1","Beim 2. Test passen viele Ausprachen nicht zu dem gegebenen Wort. 们 ist nicht qu oder was auch immer das war...","0","0","0","null","","","<img src = 'targets/2.png' width = '100%;'>","null","","","","","","","","","",""
"","html-keyboard-response","218","797689","0.0-10.0-3.19","5hlfcn5hko","many_one","0","direct_first","1","NG04LI20","0","18","1","0","3","1","Beim 2. Test passen viele Ausprachen nicht zu dem gegebenen Wort. 们 ist nicht qu oder was auch immer das war...","0","0","0","399.6900003403425","","","<img src = 'targets/mask.png' width = '100%;'>","75","pos","CS","CS","2","category2/CS9.png","","targets/2.png","indirect","1","19"
"","html-keyboard-response","219","799194","0.0-10.0-0.20","5hlfcn5hko","many_one","0","direct_first","1","NG04LI20","0","18","1","0","3","1","Beim 2. Test passen viele Ausprachen nicht zu dem gegebenen Wort. 们 ist nicht qu oder was auch immer das war...","0","0","0","null","","","<div style=""font-size:60px;"">+</div>","null","","","","","","","","","",""
"","html-keyboard-response","220","799288","0.0-10.0-1.20","5hlfcn5hko","many_one","0","direct_first","1","NG04LI20","0","18","1","0","3","1","Beim 2. Test passen viele Ausprachen nicht zu dem gegebenen Wort. 们 ist nicht qu oder was auch immer das war...","0","0","0","null","","","<img src = 'category4/CS8.png' width = '100%;'>","null","","","","","","","","","",""
"","html-keyboard-response","221","799545","0.0-10.0-2.20","5hlfcn5hko","many_one","0","direct_first","1","NG04LI20","0","18","1","0","3","1","Beim 2. Test passen viele Ausprachen nicht zu dem gegebenen Wort. 们 ist nicht qu oder was auch immer das war...","0","0","0","null","","","<img src = 'targets/35.png' width = '100%;'>","null","","","","","","","","","",""
"","html-keyboard-response","222","799647","0.0-10.0-3.20","5hlfcn5hko","many_one","0","direct_first","1","NG04LI20","0","18","1","0","3","1","Beim 2. Test passen viele Ausprachen nicht zu dem gegebenen Wort. 们 ist nicht qu oder was auch immer das war...","0","0","0","89.52000038698316","","","<img src = 'targets/mask.png' width = '100%;'>","75","neg","CS","CS","4","category4/CS8.png","","targets/35.png","indirect","1","20"
"","html-keyboard-response","223","801152","0.0-10.0-0.21","5hlfcn5hko","many_one","0","direct_first","1","NG04LI20","0","18","1","0","3","1","Beim 2. Test passen viele Ausprachen nicht zu dem gegebenen Wort. 们 ist nicht qu oder was auch immer das war...","0","0","0","null","","","<div style=""font-size:60px;"">+</div>","null","","","","","","","","","",""
"","html-keyboard-response","224","801247","0.0-10.0-1.21","5hlfcn5hko","many_one","0","direct_first","1","NG04LI20","0","18","1","0","3","1","Beim 2. Test passen viele Ausprachen nicht zu dem gegebenen Wort. 们 ist nicht qu oder was auch immer das war...","0","0","0","null","","","<img src = 'category1/CS8.png' width = '100%;'>","null","","","","","","","","","",""
"","html-keyboard-response","225","801502","0.0-10.0-2.21","5hlfcn5hko","many_one","0","direct_first","1","NG04LI20","0","18","1","0","3","1","Beim 2. Test passen viele Ausprachen nicht zu dem gegebenen Wort. 们 ist nicht qu oder was auch immer das war...","0","0","0","null","","","<img src = 'targets/46.png' width = '100%;'>","null","","","","","","","","","",""
"","html-keyboard-response","226","803067","0.0-10.0-3.21","5hlfcn5hko","many_one","0","direct_first","1","NG04LI20","0","18","1","0","3","1","Beim 2. Test passen viele Ausprachen nicht zu dem gegebenen Wort. 们 ist nicht qu oder was auch immer das war...","0","0","0","1559.1150000691414","","","<img src = 'targets/mask.png' width = '100%;'>","68","neg","GS","GSold","1","category1/CS8.png","","targets/46.png","indirect","0","21"
"","html-keyboard-response","227","804572","0.0-10.0-0.22","5hlfcn5hko","many_one","0","direct_first","1","NG04LI20","0","18","1","0","3","1","Beim 2. Test passen viele Ausprachen nicht zu dem gegebenen Wort. 们 ist nicht qu oder was auch immer das war...","0","0","0","null","","","<div style=""font-size:60px;"">+</div>","null","","","","","","","","","",""
"","html-keyboard-response","228","804666","0.0-10.0-1.22","5hlfcn5hko","many_one","0","direct_first","1","NG04LI20","0","18","1","0","3","1","Beim 2. Test passen viele Ausprachen nicht zu dem gegebenen Wort. 们 ist nicht qu oder was auch immer das war...","0","0","0","null","","","<img src = 'category4/CS3.png' width = '100%;'>","null","","","","","","","","","",""
"","html-keyboard-response","229","804921","0.0-10.0-2.22","5hlfcn5hko","many_one","0","direct_first","1","NG04LI20","0","18","1","0","3","1","Beim 2. Test passen viele Ausprachen nicht zu dem gegebenen Wort. 们 ist nicht qu oder was auch immer das war...","0","0","0","null","","","<img src = 'targets/27.png' width = '100%;'>","null","","","","","","","","","",""
"","html-keyboard-response","230","903538","0.0-10.0-3.22","5hlfcn5hko","many_one","0","direct_first","1","NG04LI20","0","18","1","0","3","1","Beim 2. Test passen viele Ausprachen nicht zu dem gegebenen Wort. 们 ist nicht qu oder was auch immer das war...","0","0","0","98610.58999970555","","","<img src = 'targets/mask.png' width = '100%;'>","75","neg","CS","CS","4","category4/CS3.png","","targets/27.png","indirect","1","22"
"","html-keyboard-response","231","905042","0.0-10.0-0.23","5hlfcn5hko","many_one","0","direct_first","1","NG04LI20","0","18","1","0","3","1","Beim 2. Test passen viele Ausprachen nicht zu dem gegebenen Wort. 们 ist nicht qu oder was auch immer das war...","0","0","0","null","","","<div style=""font-size:60px;"">+</div>","null","","","","","","","","","",""
