"success","trial_type","trial_index","time_elapsed","internal_node_id","subject","condition","condition_code","measure","measure_code","codeword","gender","age","education","chinese","fach","handedness","comment","hinschauen","ablenkung","gewissenhaft","rt","url","responses","stimulus","key_press","val","type","type_specific","category","cs_selected","target","indirect","task","nr_pres","response"
"true","fullscreen","0","3024","0.0-0.0","dekgjrbh10","many_one","0","indirect_first","0","er05an30","0","24","1","1","3","2","","0","1","0","","","","","","","","","","","","","","",""
"","external-html","1","8296","0.0-1.0","dekgjrbh10","many_one","0","indirect_first","0","er05an30","0","24","1","1","3","2","","0","1","0","5221.310000051744","text/information.html","","","","","","","","","","","","",""
"","external-html","2","28925","0.0-2.0","dekgjrbh10","many_one","0","indirect_first","0","er05an30","0","24","1","1","3","2","","0","1","0","20559.3349999981","text/consent.html","","","","","","","","","","","","",""
"","survey-html-form","3","57521","0.0-3.0","dekgjrbh10","many_one","0","indirect_first","0","er05an30","0","24","1","1","3","2","","0","1","0","28592.380000045523","","{""codeword_enter"":""er05an30""}","","","","","","","","","","","",""
"","survey-html-form","4","75846","0.0-4.0","dekgjrbh10","many_one","0","indirect_first","0","er05an30","0","24","1","1","3","2","","0","1","0","18320.84499998018","","{""age"":""24"",""education"":""1"",""subject"":""3"",""gender"":""0"",""handedness"":""2"",""chinese"":""1""}","","","","","","","","","","","",""
"","survey-html-form","5","94149","0.0-5.0","dekgjrbh10","many_one","0","indirect_first","0","er05an30","0","24","1","1","3","2","","0","1","0","18298.170000081882","","{}","","","","","","","","","","","",""
"","html-keyboard-response","6","98185","0.0-6.0-0.0-0.0","dekgjrbh10","many_one","0","indirect_first","0","er05an30","0","24","1","1","3","2","","0","1","0","null","","","<div class = 'row'><div class = 'column'><img src = 'usneg/9920.bmp' width = '100%;'></div><div class = 'column'><img src = 'category2/CS3.png' width = '70%;'></div></div>","null","neg","CS","CS","2","category2/CS3.png","","","","",""
"","html-keyboard-response","7","100708","0.0-6.0-0.0-0.1","dekgjrbh10","many_one","0","indirect_first","0","er05an30","0","24","1","1","3","2","","0","1","0","null","","","<div class = 'row'><div class = 'column'><img src = 'category4/CS1.png' width = '70%;'></div><div class = 'column'><img src = 'usneg/9342.bmp' width = '100%;'></div></div>","null","neg","CS","CS","4","category4/CS1.png","","","","",""
"","html-keyboard-response","8","103228","0.0-6.0-0.0-0.2","dekgjrbh10","many_one","0","indirect_first","0","er05an30","0","24","1","1","3","2","","0","1","0","null","","","<div class = 'row'><div class = 'column'><img src = 'uspos/2530.bmp' width = '100%;'></div><div class = 'column'><img src = 'category3/CS5.png' width = '70%;'></div></div>","null","pos","CS","CS","3","category3/CS5.png","","","","",""
"","html-keyboard-response","9","105741","0.0-6.0-0.0-0.3","dekgjrbh10","many_one","0","indirect_first","0","er05an30","0","24","1","1","3","2","","0","1","0","null","","","<div class = 'row'><div class = 'column'><img src = 'usneg/9181.bmp' width = '100%;'></div><div class = 'column'><img src = 'category2/CS1.png' width = '70%;'></div></div>","null","neg","CS","CS","2","category2/CS1.png","","","","",""
"","html-keyboard-response","10","108257","0.0-6.0-0.0-0.4","dekgjrbh10","many_one","0","indirect_first","0","er05an30","0","24","1","1","3","2","","0","1","0","null","","","<div class = 'row'><div class = 'column'><img src = 'category3/CS3.png' width = '70%;'></div><div class = 'column'><img src = 'uspos/2160.bmp' width = '100%;'></div></div>","null","pos","CS","CS","3","category3/CS3.png","","","","",""
"","html-keyboard-response","11","110774","0.0-6.0-0.0-0.5","dekgjrbh10","many_one","0","indirect_first","0","er05an30","0","24","1","1","3","2","","0","1","0","null","","","<div class = 'row'><div class = 'column'><img src = 'usneg/6020.bmp' width = '100%;'></div><div class = 'column'><img src = 'category2/CS9.png' width = '70%;'></div></div>","null","neg","CS","CS","2","category2/CS9.png","","","","",""
"","html-keyboard-response","12","113281","0.0-6.0-0.0-0.6","dekgjrbh10","many_one","0","indirect_first","0","er05an30","0","24","1","1","3","2","","0","1","0","null","","","<div class = 'row'><div class = 'column'><img src = 'usneg/9180.bmp' width = '100%;'></div><div class = 'column'><img src = 'category4/CS4.png' width = '70%;'></div></div>","null","neg","CS","CS","4","category4/CS4.png","","","","",""
"","html-keyboard-response","13","115808","0.0-6.0-0.0-0.7","dekgjrbh10","many_one","0","indirect_first","0","er05an30","0","24","1","1","3","2","","0","1","0","null","","","<div class = 'row'><div class = 'column'><img src = 'category3/CS8.png' width = '70%;'></div><div class = 'column'><img src = 'uspos/2057.bmp' width = '100%;'></div></div>","null","pos","CS","CS","3","category3/CS8.png","","","","",""
"","html-keyboard-response","14","118331","0.0-6.0-0.0-0.8","dekgjrbh10","many_one","0","indirect_first","0","er05an30","0","24","1","1","3","2","","0","1","0","null","","","<div class = 'row'><div class = 'column'><img src = 'category4/CS6.png' width = '70%;'></div><div class = 'column'><img src = 'usneg/9421.bmp' width = '100%;'></div></div>","null","neg","CS","CS","4","category4/CS6.png","","","","",""
"","html-keyboard-response","15","120867","0.0-6.0-0.0-0.9","dekgjrbh10","many_one","0","indirect_first","0","er05an30","0","24","1","1","3","2","","0","1","0","null","","","<div class = 'row'><div class = 'column'><img src = 'uspos/8190.bmp' width = '100%;'></div><div class = 'column'><img src = 'category1/CS8.png' width = '70%;'></div></div>","null","pos","CS","CS","1","category1/CS8.png","","","","",""
"","html-keyboard-response","16","123391","0.0-6.0-0.0-0.10","dekgjrbh10","many_one","0","indirect_first","0","er05an30","0","24","1","1","3","2","","0","1","0","null","","","<div class = 'row'><div class = 'column'><img src = 'uspos/2165.bmp' width = '100%;'></div><div class = 'column'><img src = 'category1/CS3.png' width = '70%;'></div></div>","null","pos","CS","CS","1","category1/CS3.png","","","","",""
"","html-keyboard-response","17","125912","0.0-6.0-0.0-0.11","dekgjrbh10","many_one","0","indirect_first","0","er05an30","0","24","1","1","3","2","","0","1","0","null","","","<div class = 'row'><div class = 'column'><img src = 'category3/CS1.png' width = '70%;'></div><div class = 'column'><img src = 'uspos/2150.bmp' width = '100%;'></div></div>","null","pos","CS","CS","3","category3/CS1.png","","","","",""
"","html-keyboard-response","18","128434","0.0-6.0-0.0-0.12","dekgjrbh10","many_one","0","indirect_first","0","er05an30","0","24","1","1","3","2","","0","1","0","null","","","<div class = 'row'><div class = 'column'><img src = 'category2/CS10.png' width = '70%;'></div><div class = 'column'><img src = 'usneg/6570.1.bmp' width = '100%;'></div></div>","null","neg","CS","CS","2","category2/CS10.png","","","","",""
"","html-keyboard-response","19","130957","0.0-6.0-0.0-0.13","dekgjrbh10","many_one","0","indirect_first","0","er05an30","0","24","1","1","3","2","","0","1","0","null","","","<div class = 'row'><div class = 'column'><img src = 'category3/CS10.png' width = '70%;'></div><div class = 'column'><img src = 'uspos/2340.bmp' width = '100%;'></div></div>","null","pos","CS","CS","3","category3/CS10.png","","","","",""
"","html-keyboard-response","20","133474","0.0-6.0-0.0-0.14","dekgjrbh10","many_one","0","indirect_first","0","er05an30","0","24","1","1","3","2","","0","1","0","null","","","<div class = 'row'><div class = 'column'><img src = 'category1/CS1.png' width = '70%;'></div><div class = 'column'><img src = 'uspos/1463.bmp' width = '100%;'></div></div>","null","pos","CS","CS","1","category1/CS1.png","","","","",""
"","html-keyboard-response","21","135990","0.0-6.0-0.0-0.15","dekgjrbh10","many_one","0","indirect_first","0","er05an30","0","24","1","1","3","2","","0","1","0","null","","","<div class = 'row'><div class = 'column'><img src = 'category1/CS5.png' width = '70%;'></div><div class = 'column'><img src = 'uspos/7580.bmp' width = '100%;'></div></div>","null","pos","CS","CS","1","category1/CS5.png","","","","",""
"","html-keyboard-response","22","138506","0.0-6.0-0.0-0.16","dekgjrbh10","many_one","0","indirect_first","0","er05an30","0","24","1","1","3","2","","0","1","0","null","","","<div class = 'row'><div class = 'column'><img src = 'uspos/5600.bmp' width = '100%;'></div><div class = 'column'><img src = 'category1/CS6.png' width = '70%;'></div></div>","null","pos","CS","CS","1","category1/CS6.png","","","","",""
"","html-keyboard-response","23","141023","0.0-6.0-0.0-0.17","dekgjrbh10","many_one","0","indirect_first","0","er05an30","0","24","1","1","3","2","","0","1","0","null","","","<div class = 'row'><div class = 'column'><img src = 'category4/CS7.png' width = '70%;'></div><div class = 'column'><img src = 'usneg/9435.bmp' width = '100%;'></div></div>","null","neg","CS","CS","4","category4/CS7.png","","","","",""
"","html-keyboard-response","24","143540","0.0-6.0-0.0-0.18","dekgjrbh10","many_one","0","indirect_first","0","er05an30","0","24","1","1","3","2","","0","1","0","null","","","<div class = 'row'><div class = 'column'><img src = 'usneg/9290.bmp' width = '100%;'></div><div class = 'column'><img src = 'category4/CS2.png' width = '70%;'></div></div>","null","neg","CS","CS","4","category4/CS2.png","","","","",""
"","html-keyboard-response","25","146056","0.0-6.0-0.0-0.19","dekgjrbh10","many_one","0","indirect_first","0","er05an30","0","24","1","1","3","2","","0","1","0","null","","","<div class = 'row'><div class = 'column'><img src = 'usneg/9182.bmp' width = '100%;'></div><div class = 'column'><img src = 'category2/CS2.png' width = '70%;'></div></div>","null","neg","CS","CS","2","category2/CS2.png","","","","",""
"","survey-html-form","26","149994","0.0-6.0-1.0","dekgjrbh10","many_one","0","indirect_first","0","er05an30","0","24","1","1","3","2","","0","1","0","3433.8700000662357","","{}","","","","","","","","","","","",""
"","html-keyboard-response","27","154008","0.0-6.0-2.0-0.0","dekgjrbh10","many_one","0","indirect_first","0","er05an30","0","24","1","1","3","2","","0","1","0","null","","","<div class = 'row'><div class = 'column'><img src = 'usneg/9920.bmp' width = '100%;'></div><div class = 'column'><img src = 'category2/CS3.png' width = '70%;'></div></div>","null","neg","CS","CS","2","category2/CS3.png","","","","",""
"","html-keyboard-response","28","156524","0.0-6.0-2.0-0.1","dekgjrbh10","many_one","0","indirect_first","0","er05an30","0","24","1","1","3","2","","0","1","0","null","","","<div class = 'row'><div class = 'column'><img src = 'uspos/2150.bmp' width = '100%;'></div><div class = 'column'><img src = 'category3/CS1.png' width = '70%;'></div></div>","null","pos","CS","CS","3","category3/CS1.png","","","","",""
"","html-keyboard-response","29","159032","0.0-6.0-2.0-0.2","dekgjrbh10","many_one","0","indirect_first","0","er05an30","0","24","1","1","3","2","","0","1","0","null","","","<div class = 'row'><div class = 'column'><img src = 'usneg/9182.bmp' width = '100%;'></div><div class = 'column'><img src = 'category2/CS2.png' width = '70%;'></div></div>","null","neg","CS","CS","2","category2/CS2.png","","","","",""
"","html-keyboard-response","30","161556","0.0-6.0-2.0-0.3","dekgjrbh10","many_one","0","indirect_first","0","er05an30","0","24","1","1","3","2","","0","1","0","null","","","<div class = 'row'><div class = 'column'><img src = 'category2/CS9.png' width = '70%;'></div><div class = 'column'><img src = 'usneg/6020.bmp' width = '100%;'></div></div>","null","neg","CS","CS","2","category2/CS9.png","","","","",""
"","html-keyboard-response","31","164065","0.0-6.0-2.0-0.4","dekgjrbh10","many_one","0","indirect_first","0","er05an30","0","24","1","1","3","2","","0","1","0","null","","","<div class = 'row'><div class = 'column'><img src = 'category4/CS2.png' width = '70%;'></div><div class = 'column'><img src = 'usneg/9290.bmp' width = '100%;'></div></div>","null","neg","CS","CS","4","category4/CS2.png","","","","",""
"","html-keyboard-response","32","166588","0.0-6.0-2.0-0.5","dekgjrbh10","many_one","0","indirect_first","0","er05an30","0","24","1","1","3","2","","0","1","0","null","","","<div class = 'row'><div class = 'column'><img src = 'category4/CS6.png' width = '70%;'></div><div class = 'column'><img src = 'usneg/9421.bmp' width = '100%;'></div></div>","null","neg","CS","CS","4","category4/CS6.png","","","","",""
"","html-keyboard-response","33","169117","0.0-6.0-2.0-0.6","dekgjrbh10","many_one","0","indirect_first","0","er05an30","0","24","1","1","3","2","","0","1","0","null","","","<div class = 'row'><div class = 'column'><img src = 'uspos/2160.bmp' width = '100%;'></div><div class = 'column'><img src = 'category3/CS3.png' width = '70%;'></div></div>","null","pos","CS","CS","3","category3/CS3.png","","","","",""
"","html-keyboard-response","34","171634","0.0-6.0-2.0-0.7","dekgjrbh10","many_one","0","indirect_first","0","er05an30","0","24","1","1","3","2","","0","1","0","null","","","<div class = 'row'><div class = 'column'><img src = 'uspos/1463.bmp' width = '100%;'></div><div class = 'column'><img src = 'category1/CS1.png' width = '70%;'></div></div>","null","pos","CS","CS","1","category1/CS1.png","","","","",""
"","html-keyboard-response","35","174157","0.0-6.0-2.0-0.8","dekgjrbh10","many_one","0","indirect_first","0","er05an30","0","24","1","1","3","2","","0","1","0","null","","","<div class = 'row'><div class = 'column'><img src = 'category3/CS5.png' width = '70%;'></div><div class = 'column'><img src = 'uspos/2530.bmp' width = '100%;'></div></div>","null","pos","CS","CS","3","category3/CS5.png","","","","",""
"","html-keyboard-response","36","176676","0.0-6.0-2.0-0.9","dekgjrbh10","many_one","0","indirect_first","0","er05an30","0","24","1","1","3","2","","0","1","0","null","","","<div class = 'row'><div class = 'column'><img src = 'category1/CS8.png' width = '70%;'></div><div class = 'column'><img src = 'uspos/8190.bmp' width = '100%;'></div></div>","null","pos","CS","CS","1","category1/CS8.png","","","","",""
"","html-keyboard-response","37","179195","0.0-6.0-2.0-0.10","dekgjrbh10","many_one","0","indirect_first","0","er05an30","0","24","1","1","3","2","","0","1","0","null","","","<div class = 'row'><div class = 'column'><img src = 'category3/CS8.png' width = '70%;'></div><div class = 'column'><img src = 'uspos/2057.bmp' width = '100%;'></div></div>","null","pos","CS","CS","3","category3/CS8.png","","","","",""
"","html-keyboard-response","38","181714","0.0-6.0-2.0-0.11","dekgjrbh10","many_one","0","indirect_first","0","er05an30","0","24","1","1","3","2","","0","1","0","null","","","<div class = 'row'><div class = 'column'><img src = 'category1/CS6.png' width = '70%;'></div><div class = 'column'><img src = 'uspos/5600.bmp' width = '100%;'></div></div>","null","pos","CS","CS","1","category1/CS6.png","","","","",""
"","html-keyboard-response","39","184236","0.0-6.0-2.0-0.12","dekgjrbh10","many_one","0","indirect_first","0","er05an30","0","24","1","1","3","2","","0","1","0","null","","","<div class = 'row'><div class = 'column'><img src = 'uspos/7580.bmp' width = '100%;'></div><div class = 'column'><img src = 'category1/CS5.png' width = '70%;'></div></div>","null","pos","CS","CS","1","category1/CS5.png","","","","",""
"","html-keyboard-response","40","186765","0.0-6.0-2.0-0.13","dekgjrbh10","many_one","0","indirect_first","0","er05an30","0","24","1","1","3","2","","0","1","0","null","","","<div class = 'row'><div class = 'column'><img src = 'usneg/9435.bmp' width = '100%;'></div><div class = 'column'><img src = 'category4/CS7.png' width = '70%;'></div></div>","null","neg","CS","CS","4","category4/CS7.png","","","","",""
"","html-keyboard-response","41","189293","0.0-6.0-2.0-0.14","dekgjrbh10","many_one","0","indirect_first","0","er05an30","0","24","1","1","3","2","","0","1","0","null","","","<div class = 'row'><div class = 'column'><img src = 'usneg/9181.bmp' width = '100%;'></div><div class = 'column'><img src = 'category2/CS1.png' width = '70%;'></div></div>","null","neg","CS","CS","2","category2/CS1.png","","","","",""
"","html-keyboard-response","42","191827","0.0-6.0-2.0-0.15","dekgjrbh10","many_one","0","indirect_first","0","er05an30","0","24","1","1","3","2","","0","1","0","null","","","<div class = 'row'><div class = 'column'><img src = 'usneg/6570.1.bmp' width = '100%;'></div><div class = 'column'><img src = 'category2/CS10.png' width = '70%;'></div></div>","null","neg","CS","CS","2","category2/CS10.png","","","","",""
"","html-keyboard-response","43","194343","0.0-6.0-2.0-0.16","dekgjrbh10","many_one","0","indirect_first","0","er05an30","0","24","1","1","3","2","","0","1","0","null","","","<div class = 'row'><div class = 'column'><img src = 'category3/CS10.png' width = '70%;'></div><div class = 'column'><img src = 'uspos/2340.bmp' width = '100%;'></div></div>","null","pos","CS","CS","3","category3/CS10.png","","","","",""
"","html-keyboard-response","44","196864","0.0-6.0-2.0-0.17","dekgjrbh10","many_one","0","indirect_first","0","er05an30","0","24","1","1","3","2","","0","1","0","null","","","<div class = 'row'><div class = 'column'><img src = 'category4/CS4.png' width = '70%;'></div><div class = 'column'><img src = 'usneg/9180.bmp' width = '100%;'></div></div>","null","neg","CS","CS","4","category4/CS4.png","","","","",""
"","html-keyboard-response","45","199379","0.0-6.0-2.0-0.18","dekgjrbh10","many_one","0","indirect_first","0","er05an30","0","24","1","1","3","2","","0","1","0","null","","","<div class = 'row'><div class = 'column'><img src = 'usneg/9342.bmp' width = '100%;'></div><div class = 'column'><img src = 'category4/CS1.png' width = '70%;'></div></div>","null","neg","CS","CS","4","category4/CS1.png","","","","",""
"","html-keyboard-response","46","201896","0.0-6.0-2.0-0.19","dekgjrbh10","many_one","0","indirect_first","0","er05an30","0","24","1","1","3","2","","0","1","0","null","","","<div class = 'row'><div class = 'column'><img src = 'uspos/2165.bmp' width = '100%;'></div><div class = 'column'><img src = 'category1/CS3.png' width = '70%;'></div></div>","null","pos","CS","CS","1","category1/CS3.png","","","","",""
"","survey-html-form","47","205028","0.0-6.0-3.0","dekgjrbh10","many_one","0","indirect_first","0","er05an30","0","24","1","1","3","2","","0","1","0","2621.1599999805912","","{}","","","","","","","","","","","",""
"","html-keyboard-response","48","209036","0.0-6.0-4.0-0.0","dekgjrbh10","many_one","0","indirect_first","0","er05an30","0","24","1","1","3","2","","0","1","0","null","","","<div class = 'row'><div class = 'column'><img src = 'uspos/7580.bmp' width = '100%;'></div><div class = 'column'><img src = 'category1/CS5.png' width = '70%;'></div></div>","null","pos","CS","CS","1","category1/CS5.png","","","","",""
"","html-keyboard-response","49","211564","0.0-6.0-4.0-0.1","dekgjrbh10","many_one","0","indirect_first","0","er05an30","0","24","1","1","3","2","","0","1","0","null","","","<div class = 'row'><div class = 'column'><img src = 'category2/CS10.png' width = '70%;'></div><div class = 'column'><img src = 'usneg/6570.1.bmp' width = '100%;'></div></div>","null","neg","CS","CS","2","category2/CS10.png","","","","",""
"","html-keyboard-response","50","214078","0.0-6.0-4.0-0.2","dekgjrbh10","many_one","0","indirect_first","0","er05an30","0","24","1","1","3","2","","0","1","0","null","","","<div class = 'row'><div class = 'column'><img src = 'category3/CS3.png' width = '70%;'></div><div class = 'column'><img src = 'uspos/2160.bmp' width = '100%;'></div></div>","null","pos","CS","CS","3","category3/CS3.png","","","","",""
"","html-keyboard-response","51","216595","0.0-6.0-4.0-0.3","dekgjrbh10","many_one","0","indirect_first","0","er05an30","0","24","1","1","3","2","","0","1","0","null","","","<div class = 'row'><div class = 'column'><img src = 'category2/CS9.png' width = '70%;'></div><div class = 'column'><img src = 'usneg/6020.bmp' width = '100%;'></div></div>","null","neg","CS","CS","2","category2/CS9.png","","","","",""
"","html-keyboard-response","52","219113","0.0-6.0-4.0-0.4","dekgjrbh10","many_one","0","indirect_first","0","er05an30","0","24","1","1","3","2","","0","1","0","null","","","<div class = 'row'><div class = 'column'><img src = 'usneg/9920.bmp' width = '100%;'></div><div class = 'column'><img src = 'category2/CS3.png' width = '70%;'></div></div>","null","neg","CS","CS","2","category2/CS3.png","","","","",""
"","html-keyboard-response","53","221642","0.0-6.0-4.0-0.5","dekgjrbh10","many_one","0","indirect_first","0","er05an30","0","24","1","1","3","2","","0","1","0","null","","","<div class = 'row'><div class = 'column'><img src = 'category4/CS6.png' width = '70%;'></div><div class = 'column'><img src = 'usneg/9421.bmp' width = '100%;'></div></div>","null","neg","CS","CS","4","category4/CS6.png","","","","",""
"","html-keyboard-response","54","224159","0.0-6.0-4.0-0.6","dekgjrbh10","many_one","0","indirect_first","0","er05an30","0","24","1","1","3","2","","0","1","0","null","","","<div class = 'row'><div class = 'column'><img src = 'category1/CS8.png' width = '70%;'></div><div class = 'column'><img src = 'uspos/8190.bmp' width = '100%;'></div></div>","null","pos","CS","CS","1","category1/CS8.png","","","","",""
"","html-keyboard-response","55","226675","0.0-6.0-4.0-0.7","dekgjrbh10","many_one","0","indirect_first","0","er05an30","0","24","1","1","3","2","","0","1","0","null","","","<div class = 'row'><div class = 'column'><img src = 'usneg/9342.bmp' width = '100%;'></div><div class = 'column'><img src = 'category4/CS1.png' width = '70%;'></div></div>","null","neg","CS","CS","4","category4/CS1.png","","","","",""
"","html-keyboard-response","56","229192","0.0-6.0-4.0-0.8","dekgjrbh10","many_one","0","indirect_first","0","er05an30","0","24","1","1","3","2","","0","1","0","null","","","<div class = 'row'><div class = 'column'><img src = 'uspos/2150.bmp' width = '100%;'></div><div class = 'column'><img src = 'category3/CS1.png' width = '70%;'></div></div>","null","pos","CS","CS","3","category3/CS1.png","","","","",""
"","html-keyboard-response","57","231708","0.0-6.0-4.0-0.9","dekgjrbh10","many_one","0","indirect_first","0","er05an30","0","24","1","1","3","2","","0","1","0","null","","","<div class = 'row'><div class = 'column'><img src = 'usneg/9435.bmp' width = '100%;'></div><div class = 'column'><img src = 'category4/CS7.png' width = '70%;'></div></div>","null","neg","CS","CS","4","category4/CS7.png","","","","",""
"","html-keyboard-response","58","234223","0.0-6.0-4.0-0.10","dekgjrbh10","many_one","0","indirect_first","0","er05an30","0","24","1","1","3","2","","0","1","0","null","","","<div class = 'row'><div class = 'column'><img src = 'uspos/2057.bmp' width = '100%;'></div><div class = 'column'><img src = 'category3/CS8.png' width = '70%;'></div></div>","null","pos","CS","CS","3","category3/CS8.png","","","","",""
"","html-keyboard-response","59","236731","0.0-6.0-4.0-0.11","dekgjrbh10","many_one","0","indirect_first","0","er05an30","0","24","1","1","3","2","","0","1","0","null","","","<div class = 'row'><div class = 'column'><img src = 'category1/CS1.png' width = '70%;'></div><div class = 'column'><img src = 'uspos/1463.bmp' width = '100%;'></div></div>","null","pos","CS","CS","1","category1/CS1.png","","","","",""
"","html-keyboard-response","60","239245","0.0-6.0-4.0-0.12","dekgjrbh10","many_one","0","indirect_first","0","er05an30","0","24","1","1","3","2","","0","1","0","null","","","<div class = 'row'><div class = 'column'><img src = 'uspos/2530.bmp' width = '100%;'></div><div class = 'column'><img src = 'category3/CS5.png' width = '70%;'></div></div>","null","pos","CS","CS","3","category3/CS5.png","","","","",""
"","html-keyboard-response","61","241751","0.0-6.0-4.0-0.13","dekgjrbh10","many_one","0","indirect_first","0","er05an30","0","24","1","1","3","2","","0","1","0","null","","","<div class = 'row'><div class = 'column'><img src = 'category2/CS1.png' width = '70%;'></div><div class = 'column'><img src = 'usneg/9181.bmp' width = '100%;'></div></div>","null","neg","CS","CS","2","category2/CS1.png","","","","",""
"","html-keyboard-response","62","244264","0.0-6.0-4.0-0.14","dekgjrbh10","many_one","0","indirect_first","0","er05an30","0","24","1","1","3","2","","0","1","0","null","","","<div class = 'row'><div class = 'column'><img src = 'category4/CS4.png' width = '70%;'></div><div class = 'column'><img src = 'usneg/9180.bmp' width = '100%;'></div></div>","null","neg","CS","CS","4","category4/CS4.png","","","","",""
"","html-keyboard-response","63","246789","0.0-6.0-4.0-0.15","dekgjrbh10","many_one","0","indirect_first","0","er05an30","0","24","1","1","3","2","","0","1","0","null","","","<div class = 'row'><div class = 'column'><img src = 'category3/CS10.png' width = '70%;'></div><div class = 'column'><img src = 'uspos/2340.bmp' width = '100%;'></div></div>","null","pos","CS","CS","3","category3/CS10.png","","","","",""
"","html-keyboard-response","64","249306","0.0-6.0-4.0-0.16","dekgjrbh10","many_one","0","indirect_first","0","er05an30","0","24","1","1","3","2","","0","1","0","null","","","<div class = 'row'><div class = 'column'><img src = 'usneg/9290.bmp' width = '100%;'></div><div class = 'column'><img src = 'category4/CS2.png' width = '70%;'></div></div>","null","neg","CS","CS","4","category4/CS2.png","","","","",""
"","html-keyboard-response","65","251822","0.0-6.0-4.0-0.17","dekgjrbh10","many_one","0","indirect_first","0","er05an30","0","24","1","1","3","2","","0","1","0","null","","","<div class = 'row'><div class = 'column'><img src = 'category1/CS6.png' width = '70%;'></div><div class = 'column'><img src = 'uspos/5600.bmp' width = '100%;'></div></div>","null","pos","CS","CS","1","category1/CS6.png","","","","",""
"","html-keyboard-response","66","254340","0.0-6.0-4.0-0.18","dekgjrbh10","many_one","0","indirect_first","0","er05an30","0","24","1","1","3","2","","0","1","0","null","","","<div class = 'row'><div class = 'column'><img src = 'uspos/2165.bmp' width = '100%;'></div><div class = 'column'><img src = 'category1/CS3.png' width = '70%;'></div></div>","null","pos","CS","CS","1","category1/CS3.png","","","","",""
"","html-keyboard-response","67","256855","0.0-6.0-4.0-0.19","dekgjrbh10","many_one","0","indirect_first","0","er05an30","0","24","1","1","3","2","","0","1","0","null","","","<div class = 'row'><div class = 'column'><img src = 'category2/CS2.png' width = '70%;'></div><div class = 'column'><img src = 'usneg/9182.bmp' width = '100%;'></div></div>","null","neg","CS","CS","2","category2/CS2.png","","","","",""
"","survey-html-form","68","258740","0.0-6.0-5.0","dekgjrbh10","many_one","0","indirect_first","0","er05an30","0","24","1","1","3","2","","0","1","0","1381.760000018403","","{}","","","","","","","","","","","",""
"","html-keyboard-response","69","262778","0.0-6.0-6.0-0.0","dekgjrbh10","many_one","0","indirect_first","0","er05an30","0","24","1","1","3","2","","0","1","0","null","","","<div class = 'row'><div class = 'column'><img src = 'category3/CS1.png' width = '70%;'></div><div class = 'column'><img src = 'uspos/2150.bmp' width = '100%;'></div></div>","null","pos","CS","CS","3","category3/CS1.png","","","","",""
"","html-keyboard-response","70","265296","0.0-6.0-6.0-0.1","dekgjrbh10","many_one","0","indirect_first","0","er05an30","0","24","1","1","3","2","","0","1","0","null","","","<div class = 'row'><div class = 'column'><img src = 'category4/CS2.png' width = '70%;'></div><div class = 'column'><img src = 'usneg/9290.bmp' width = '100%;'></div></div>","null","neg","CS","CS","4","category4/CS2.png","","","","",""
"","html-keyboard-response","71","267813","0.0-6.0-6.0-0.2","dekgjrbh10","many_one","0","indirect_first","0","er05an30","0","24","1","1","3","2","","0","1","0","null","","","<div class = 'row'><div class = 'column'><img src = 'usneg/9180.bmp' width = '100%;'></div><div class = 'column'><img src = 'category4/CS4.png' width = '70%;'></div></div>","null","neg","CS","CS","4","category4/CS4.png","","","","",""
"","html-keyboard-response","72","270329","0.0-6.0-6.0-0.3","dekgjrbh10","many_one","0","indirect_first","0","er05an30","0","24","1","1","3","2","","0","1","0","null","","","<div class = 'row'><div class = 'column'><img src = 'category1/CS6.png' width = '70%;'></div><div class = 'column'><img src = 'uspos/5600.bmp' width = '100%;'></div></div>","null","pos","CS","CS","1","category1/CS6.png","","","","",""
"","html-keyboard-response","73","272846","0.0-6.0-6.0-0.4","dekgjrbh10","many_one","0","indirect_first","0","er05an30","0","24","1","1","3","2","","0","1","0","null","","","<div class = 'row'><div class = 'column'><img src = 'uspos/2530.bmp' width = '100%;'></div><div class = 'column'><img src = 'category3/CS5.png' width = '70%;'></div></div>","null","pos","CS","CS","3","category3/CS5.png","","","","",""
"","html-keyboard-response","74","275362","0.0-6.0-6.0-0.5","dekgjrbh10","many_one","0","indirect_first","0","er05an30","0","24","1","1","3","2","","0","1","0","null","","","<div class = 'row'><div class = 'column'><img src = 'category3/CS10.png' width = '70%;'></div><div class = 'column'><img src = 'uspos/2340.bmp' width = '100%;'></div></div>","null","pos","CS","CS","3","category3/CS10.png","","","","",""
"","html-keyboard-response","75","277868","0.0-6.0-6.0-0.6","dekgjrbh10","many_one","0","indirect_first","0","er05an30","0","24","1","1","3","2","","0","1","0","null","","","<div class = 'row'><div class = 'column'><img src = 'usneg/9182.bmp' width = '100%;'></div><div class = 'column'><img src = 'category2/CS2.png' width = '70%;'></div></div>","null","neg","CS","CS","2","category2/CS2.png","","","","",""
"","html-keyboard-response","76","280385","0.0-6.0-6.0-0.7","dekgjrbh10","many_one","0","indirect_first","0","er05an30","0","24","1","1","3","2","","0","1","0","null","","","<div class = 'row'><div class = 'column'><img src = 'category1/CS3.png' width = '70%;'></div><div class = 'column'><img src = 'uspos/2165.bmp' width = '100%;'></div></div>","null","pos","CS","CS","1","category1/CS3.png","","","","",""
"","html-keyboard-response","77","282912","0.0-6.0-6.0-0.8","dekgjrbh10","many_one","0","indirect_first","0","er05an30","0","24","1","1","3","2","","0","1","0","null","","","<div class = 'row'><div class = 'column'><img src = 'usneg/6020.bmp' width = '100%;'></div><div class = 'column'><img src = 'category2/CS9.png' width = '70%;'></div></div>","null","neg","CS","CS","2","category2/CS9.png","","","","",""
"","html-keyboard-response","78","285430","0.0-6.0-6.0-0.9","dekgjrbh10","many_one","0","indirect_first","0","er05an30","0","24","1","1","3","2","","0","1","0","null","","","<div class = 'row'><div class = 'column'><img src = 'uspos/1463.bmp' width = '100%;'></div><div class = 'column'><img src = 'category1/CS1.png' width = '70%;'></div></div>","null","pos","CS","CS","1","category1/CS1.png","","","","",""
"","html-keyboard-response","79","287962","0.0-6.0-6.0-0.10","dekgjrbh10","many_one","0","indirect_first","0","er05an30","0","24","1","1","3","2","","0","1","0","null","","","<div class = 'row'><div class = 'column'><img src = 'category4/CS1.png' width = '70%;'></div><div class = 'column'><img src = 'usneg/9342.bmp' width = '100%;'></div></div>","null","neg","CS","CS","4","category4/CS1.png","","","","",""
"","html-keyboard-response","80","290477","0.0-6.0-6.0-0.11","dekgjrbh10","many_one","0","indirect_first","0","er05an30","0","24","1","1","3","2","","0","1","0","null","","","<div class = 'row'><div class = 'column'><img src = 'uspos/2057.bmp' width = '100%;'></div><div class = 'column'><img src = 'category3/CS8.png' width = '70%;'></div></div>","null","pos","CS","CS","3","category3/CS8.png","","","","",""
"","html-keyboard-response","81","292993","0.0-6.0-6.0-0.12","dekgjrbh10","many_one","0","indirect_first","0","er05an30","0","24","1","1","3","2","","0","1","0","null","","","<div class = 'row'><div class = 'column'><img src = 'category2/CS10.png' width = '70%;'></div><div class = 'column'><img src = 'usneg/6570.1.bmp' width = '100%;'></div></div>","null","neg","CS","CS","2","category2/CS10.png","","","","",""
"","html-keyboard-response","82","295509","0.0-6.0-6.0-0.13","dekgjrbh10","many_one","0","indirect_first","0","er05an30","0","24","1","1","3","2","","0","1","0","null","","","<div class = 'row'><div class = 'column'><img src = 'usneg/9920.bmp' width = '100%;'></div><div class = 'column'><img src = 'category2/CS3.png' width = '70%;'></div></div>","null","neg","CS","CS","2","category2/CS3.png","","","","",""
"","html-keyboard-response","83","298028","0.0-6.0-6.0-0.14","dekgjrbh10","many_one","0","indirect_first","0","er05an30","0","24","1","1","3","2","","0","1","0","null","","","<div class = 'row'><div class = 'column'><img src = 'category1/CS8.png' width = '70%;'></div><div class = 'column'><img src = 'uspos/8190.bmp' width = '100%;'></div></div>","null","pos","CS","CS","1","category1/CS8.png","","","","",""
"","html-keyboard-response","84","300545","0.0-6.0-6.0-0.15","dekgjrbh10","many_one","0","indirect_first","0","er05an30","0","24","1","1","3","2","","0","1","0","null","","","<div class = 'row'><div class = 'column'><img src = 'category3/CS3.png' width = '70%;'></div><div class = 'column'><img src = 'uspos/2160.bmp' width = '100%;'></div></div>","null","pos","CS","CS","3","category3/CS3.png","","","","",""
"","html-keyboard-response","85","303063","0.0-6.0-6.0-0.16","dekgjrbh10","many_one","0","indirect_first","0","er05an30","0","24","1","1","3","2","","0","1","0","null","","","<div class = 'row'><div class = 'column'><img src = 'category1/CS5.png' width = '70%;'></div><div class = 'column'><img src = 'uspos/7580.bmp' width = '100%;'></div></div>","null","pos","CS","CS","1","category1/CS5.png","","","","",""
"","html-keyboard-response","86","305580","0.0-6.0-6.0-0.17","dekgjrbh10","many_one","0","indirect_first","0","er05an30","0","24","1","1","3","2","","0","1","0","null","","","<div class = 'row'><div class = 'column'><img src = 'category4/CS6.png' width = '70%;'></div><div class = 'column'><img src = 'usneg/9421.bmp' width = '100%;'></div></div>","null","neg","CS","CS","4","category4/CS6.png","","","","",""
"","html-keyboard-response","87","308107","0.0-6.0-6.0-0.18","dekgjrbh10","many_one","0","indirect_first","0","er05an30","0","24","1","1","3","2","","0","1","0","null","","","<div class = 'row'><div class = 'column'><img src = 'category2/CS1.png' width = '70%;'></div><div class = 'column'><img src = 'usneg/9181.bmp' width = '100%;'></div></div>","null","neg","CS","CS","2","category2/CS1.png","","","","",""
"","html-keyboard-response","88","310616","0.0-6.0-6.0-0.19","dekgjrbh10","many_one","0","indirect_first","0","er05an30","0","24","1","1","3","2","","0","1","0","null","","","<div class = 'row'><div class = 'column'><img src = 'category4/CS7.png' width = '70%;'></div><div class = 'column'><img src = 'usneg/9435.bmp' width = '100%;'></div></div>","null","neg","CS","CS","4","category4/CS7.png","","","","",""
"","html-keyboard-response","89","366430","0.0-7.0","dekgjrbh10","many_one","0","indirect_first","0","er05an30","0","24","1","1","3","2","","0","1","0","55305.1549999509","","","<p>Sie sehen nun die chinesischen Zeichen nur ganz kurz. Danach sehen Sie die jeweilige Aussprache der Zeichen als Silbe auf dem Bildschrim. Ihre Aufgabe ist es, für jede Silbe anzugeben, ob diese etwas angenehmes, oder unangenehmes bedeuten könnte. Verlassen Sie sich hier vor allem auf Ihre Intuition.<br><br>Die Zeichen werden nur zur Orientierung dargestellt, beachten Sie sie deshalb nicht. Konzentrieren Sie sich vor allem auf die Silben. <br>Reagieren Sie mit folgenden zwei Tasten: <br><br><b>'D' </b> wenn die Silbe etwas <b>unangenehmes</b> bedeuten könnte. <br><b>'K'</b> wenn die Silbe etwas <b>angenehmes</b> bedeuten könnte. <br><br>Bitte legen Sie nun den Zeigefinger der linken Hand auf die Taste 'D' und den Zeigefinger der rechten Hand auf die Taste 'K'. <br>Reagieren Sie auf jede Silbe so schnell wie möglich. Uns interessiert Ihre spontane Reaktion. <br> <br> <br>Drücken Sie 'D' oder 'K', um die nächste Aufgabe zu starten. </p>","68","","","","","","","","","",""
"","html-keyboard-response","90","369446","0.0-8.0-0.0","dekgjrbh10","many_one","0","indirect_first","0","er05an30","0","24","1","1","3","2","","0","1","0","null","","","<div style=""font-size:60px;"">+</div>","null","","","","","","","","","",""
"","html-keyboard-response","91","369549","0.0-8.0-1.0","dekgjrbh10","many_one","0","indirect_first","0","er05an30","0","24","1","1","3","2","","0","1","0","null","","","<img src = 'category2/CS9.png' width = '100%;'>","null","","","","","","","","","",""
"","html-keyboard-response","92","369816","0.0-8.0-2.0","dekgjrbh10","many_one","0","indirect_first","0","er05an30","0","24","1","1","3","2","","0","1","0","null","","","<img src = 'targets/40.png' width = '100%;'>","null","","","","","","","","","",""
"","html-keyboard-response","93","374470","0.0-8.0-3.0","dekgjrbh10","many_one","0","indirect_first","0","er05an30","0","24","1","1","3","2","","0","1","0","4652.200000011362","","","<img src = 'targets/mask.png' width = '100%;'>","75","neg","CS","CS","2","category2/CS9.png","targets/40.png","1","indirect","0",""
"","html-keyboard-response","94","375985","0.0-8.0-0.1","dekgjrbh10","many_one","0","indirect_first","0","er05an30","0","24","1","1","3","2","","0","1","0","null","","","<div style=""font-size:60px;"">+</div>","null","","","","","","","","","",""
"","html-keyboard-response","95","376090","0.0-8.0-1.1","dekgjrbh10","many_one","0","indirect_first","0","er05an30","0","24","1","1","3","2","","0","1","0","null","","","<img src = 'category1/CS5.png' width = '100%;'>","null","","","","","","","","","",""
"","html-keyboard-response","96","376355","0.0-8.0-2.1","dekgjrbh10","many_one","0","indirect_first","0","er05an30","0","24","1","1","3","2","","0","1","0","null","","","<img src = 'targets/48.png' width = '100%;'>","null","","","","","","","","","",""
"","html-keyboard-response","97","379739","0.0-8.0-3.1","dekgjrbh10","many_one","0","indirect_first","0","er05an30","0","24","1","1","3","2","","0","1","0","3381.950000068173","","","<img src = 'targets/mask.png' width = '100%;'>","75","pos","CS","CS","1","category1/CS5.png","targets/48.png","1","indirect","1",""
"","html-keyboard-response","98","381247","0.0-8.0-0.2","dekgjrbh10","many_one","0","indirect_first","0","er05an30","0","24","1","1","3","2","","0","1","0","null","","","<div style=""font-size:60px;"">+</div>","null","","","","","","","","","",""
"","html-keyboard-response","99","381352","0.0-8.0-1.2","dekgjrbh10","many_one","0","indirect_first","0","er05an30","0","24","1","1","3","2","","0","1","0","null","","","<img src = 'category2/CS1.png' width = '100%;'>","null","","","","","","","","","",""
"","html-keyboard-response","100","381626","0.0-8.0-2.2","dekgjrbh10","many_one","0","indirect_first","0","er05an30","0","24","1","1","3","2","","0","1","0","null","","","<img src = 'targets/8.png' width = '100%;'>","null","","","","","","","","","",""
"","html-keyboard-response","101","384253","0.0-8.0-3.2","dekgjrbh10","many_one","0","indirect_first","0","er05an30","0","24","1","1","3","2","","0","1","0","2624.145000008866","","","<img src = 'targets/mask.png' width = '100%;'>","75","neg","CS","CS","2","category2/CS1.png","targets/8.png","1","indirect","2",""
"","html-keyboard-response","102","385771","0.0-8.0-0.3","dekgjrbh10","many_one","0","indirect_first","0","er05an30","0","24","1","1","3","2","","0","1","0","null","","","<div style=""font-size:60px;"">+</div>","null","","","","","","","","","",""
"","html-keyboard-response","103","385868","0.0-8.0-1.3","dekgjrbh10","many_one","0","indirect_first","0","er05an30","0","24","1","1","3","2","","0","1","0","null","","","<img src = 'category3/CS8.png' width = '100%;'>","null","","","","","","","","","",""
"","html-keyboard-response","104","386146","0.0-8.0-2.3","dekgjrbh10","many_one","0","indirect_first","0","er05an30","0","24","1","1","3","2","","0","1","0","null","","","<img src = 'targets/43.png' width = '100%;'>","null","","","","","","","","","",""
"","html-keyboard-response","105","388058","0.0-8.0-3.3","dekgjrbh10","many_one","0","indirect_first","0","er05an30","0","24","1","1","3","2","","0","1","0","1909.1950000729412","","","<img src = 'targets/mask.png' width = '100%;'>","68","pos","CS","CS","3","category3/CS8.png","targets/43.png","0","indirect","3",""
"","html-keyboard-response","106","389571","0.0-8.0-0.4","dekgjrbh10","many_one","0","indirect_first","0","er05an30","0","24","1","1","3","2","","0","1","0","null","","","<div style=""font-size:60px;"">+</div>","null","","","","","","","","","",""
"","html-keyboard-response","107","389668","0.0-8.0-1.4","dekgjrbh10","many_one","0","indirect_first","0","er05an30","0","24","1","1","3","2","","0","1","0","null","","","<img src = 'category3/CS1.png' width = '100%;'>","null","","","","","","","","","",""
"","html-keyboard-response","108","389932","0.0-8.0-2.4","dekgjrbh10","many_one","0","indirect_first","0","er05an30","0","24","1","1","3","2","","0","1","0","null","","","<img src = 'targets/32.png' width = '100%;'>","null","","","","","","","","","",""
"","html-keyboard-response","109","391046","0.0-8.0-3.4","dekgjrbh10","many_one","0","indirect_first","0","er05an30","0","24","1","1","3","2","","0","1","0","1110.4550000745803","","","<img src = 'targets/mask.png' width = '100%;'>","68","pos","CS","CS","3","category3/CS1.png","targets/32.png","0","indirect","4",""
"","html-keyboard-response","110","392560","0.0-8.0-0.5","dekgjrbh10","many_one","0","indirect_first","0","er05an30","0","24","1","1","3","2","","0","1","0","null","","","<div style=""font-size:60px;"">+</div>","null","","","","","","","","","",""
"","html-keyboard-response","111","392656","0.0-8.0-1.5","dekgjrbh10","many_one","0","indirect_first","0","er05an30","0","24","1","1","3","2","","0","1","0","null","","","<img src = 'category3/CS5.png' width = '100%;'>","null","","","","","","","","","",""
"","html-keyboard-response","112","392917","0.0-8.0-2.5","dekgjrbh10","many_one","0","indirect_first","0","er05an30","0","24","1","1","3","2","","0","1","0","null","","","<img src = 'targets/24.png' width = '100%;'>","null","","","","","","","","","",""
"","html-keyboard-response","113","393515","0.0-8.0-3.5","dekgjrbh10","many_one","0","indirect_first","0","er05an30","0","24","1","1","3","2","","0","1","0","594.1599999787286","","","<img src = 'targets/mask.png' width = '100%;'>","68","pos","CS","CS","3","category3/CS5.png","targets/24.png","0","indirect","5",""
"","html-keyboard-response","114","395029","0.0-8.0-0.6","dekgjrbh10","many_one","0","indirect_first","0","er05an30","0","24","1","1","3","2","","0","1","0","null","","","<div style=""font-size:60px;"">+</div>","null","","","","","","","","","",""
"","html-keyboard-response","115","395131","0.0-8.0-1.6","dekgjrbh10","many_one","0","indirect_first","0","er05an30","0","24","1","1","3","2","","0","1","0","null","","","<img src = 'category2/CS2.png' width = '100%;'>","null","","","","","","","","","",""
"","html-keyboard-response","116","395399","0.0-8.0-2.6","dekgjrbh10","many_one","0","indirect_first","0","er05an30","0","24","1","1","3","2","","0","1","0","null","","","<img src = 'targets/33.png' width = '100%;'>","null","","","","","","","","","",""
"","html-keyboard-response","117","397371","0.0-8.0-3.6","dekgjrbh10","many_one","0","indirect_first","0","er05an30","0","24","1","1","3","2","","0","1","0","1969.4499999750406","","","<img src = 'targets/mask.png' width = '100%;'>","68","neg","CS","CS","2","category2/CS2.png","targets/33.png","0","indirect","6",""
"","html-keyboard-response","118","398877","0.0-8.0-0.7","dekgjrbh10","many_one","0","indirect_first","0","er05an30","0","24","1","1","3","2","","0","1","0","null","","","<div style=""font-size:60px;"">+</div>","null","","","","","","","","","",""
"","html-keyboard-response","119","398981","0.0-8.0-1.7","dekgjrbh10","many_one","0","indirect_first","0","er05an30","0","24","1","1","3","2","","0","1","0","null","","","<img src = 'category2/CS3.png' width = '100%;'>","null","","","","","","","","","",""
"","html-keyboard-response","120","399249","0.0-8.0-2.7","dekgjrbh10","many_one","0","indirect_first","0","er05an30","0","24","1","1","3","2","","0","1","0","null","","","<img src = 'targets/22.png' width = '100%;'>","null","","","","","","","","","",""
"","html-keyboard-response","121","401071","0.0-8.0-3.7","dekgjrbh10","many_one","0","indirect_first","0","er05an30","0","24","1","1","3","2","","0","1","0","1818.7949999701232","","","<img src = 'targets/mask.png' width = '100%;'>","68","neg","CS","CS","2","category2/CS3.png","targets/22.png","0","indirect","7",""
"","html-keyboard-response","122","402588","0.0-8.0-0.8","dekgjrbh10","many_one","0","indirect_first","0","er05an30","0","24","1","1","3","2","","0","1","0","null","","","<div style=""font-size:60px;"">+</div>","null","","","","","","","","","",""
"","html-keyboard-response","123","402686","0.0-8.0-1.8","dekgjrbh10","many_one","0","indirect_first","0","er05an30","0","24","1","1","3","2","","0","1","0","null","","","<img src = 'category1/CS1.png' width = '100%;'>","null","","","","","","","","","",""
"","html-keyboard-response","124","402950","0.0-8.0-2.8","dekgjrbh10","many_one","0","indirect_first","0","er05an30","0","24","1","1","3","2","","0","1","0","null","","","<img src = 'targets/30.png' width = '100%;'>","null","","","","","","","","","",""
"","html-keyboard-response","125","404043","0.0-8.0-3.8","dekgjrbh10","many_one","0","indirect_first","0","er05an30","0","24","1","1","3","2","","0","1","0","1089.7600000025705","","","<img src = 'targets/mask.png' width = '100%;'>","75","pos","CS","CS","1","category1/CS1.png","targets/30.png","1","indirect","8",""
"","html-keyboard-response","126","405556","0.0-8.0-0.9","dekgjrbh10","many_one","0","indirect_first","0","er05an30","0","24","1","1","3","2","","0","1","0","null","","","<div style=""font-size:60px;"">+</div>","null","","","","","","","","","",""
"","html-keyboard-response","127","405652","0.0-8.0-1.9","dekgjrbh10","many_one","0","indirect_first","0","er05an30","0","24","1","1","3","2","","0","1","0","null","","","<img src = 'category3/CS10.png' width = '100%;'>","null","","","","","","","","","",""
"","html-keyboard-response","128","405916","0.0-8.0-2.9","dekgjrbh10","many_one","0","indirect_first","0","er05an30","0","24","1","1","3","2","","0","1","0","null","","","<img src = 'targets/2.png' width = '100%;'>","null","","","","","","","","","",""
"","html-keyboard-response","129","406536","0.0-8.0-3.9","dekgjrbh10","many_one","0","indirect_first","0","er05an30","0","24","1","1","3","2","","0","1","0","617.2650000080466","","","<img src = 'targets/mask.png' width = '100%;'>","68","pos","CS","CS","3","category3/CS10.png","targets/2.png","0","indirect","9",""
"","html-keyboard-response","130","408055","0.0-8.0-0.10","dekgjrbh10","many_one","0","indirect_first","0","er05an30","0","24","1","1","3","2","","0","1","0","null","","","<div style=""font-size:60px;"">+</div>","null","","","","","","","","","",""
"","html-keyboard-response","131","408151","0.0-8.0-1.10","dekgjrbh10","many_one","0","indirect_first","0","er05an30","0","24","1","1","3","2","","0","1","0","null","","","<img src = 'category1/CS3.png' width = '100%;'>","null","","","","","","","","","",""
"","html-keyboard-response","132","408416","0.0-8.0-2.10","dekgjrbh10","many_one","0","indirect_first","0","er05an30","0","24","1","1","3","2","","0","1","0","null","","","<img src = 'targets/29.png' width = '100%;'>","null","","","","","","","","","",""
"","html-keyboard-response","133","410175","0.0-8.0-3.10","dekgjrbh10","many_one","0","indirect_first","0","er05an30","0","24","1","1","3","2","","0","1","0","1756.569999968633","","","<img src = 'targets/mask.png' width = '100%;'>","75","pos","CS","CS","1","category1/CS3.png","targets/29.png","1","indirect","10",""
"","html-keyboard-response","134","411682","0.0-8.0-0.11","dekgjrbh10","many_one","0","indirect_first","0","er05an30","0","24","1","1","3","2","","0","1","0","null","","","<div style=""font-size:60px;"">+</div>","null","","","","","","","","","",""
"","html-keyboard-response","135","411787","0.0-8.0-1.11","dekgjrbh10","many_one","0","indirect_first","0","er05an30","0","24","1","1","3","2","","0","1","0","null","","","<img src = 'category3/CS3.png' width = '100%;'>","null","","","","","","","","","",""
"","html-keyboard-response","136","412050","0.0-8.0-2.11","dekgjrbh10","many_one","0","indirect_first","0","er05an30","0","24","1","1","3","2","","0","1","0","null","","","<img src = 'targets/28.png' width = '100%;'>","null","","","","","","","","","",""
"","html-keyboard-response","137","412515","0.0-8.0-3.11","dekgjrbh10","many_one","0","indirect_first","0","er05an30","0","24","1","1","3","2","","0","1","0","461.600000038743","","","<img src = 'targets/mask.png' width = '100%;'>","68","pos","CS","CS","3","category3/CS3.png","targets/28.png","0","indirect","11",""
"","html-keyboard-response","138","414028","0.0-8.0-0.12","dekgjrbh10","many_one","0","indirect_first","0","er05an30","0","24","1","1","3","2","","0","1","0","null","","","<div style=""font-size:60px;"">+</div>","null","","","","","","","","","",""
"","html-keyboard-response","139","414132","0.0-8.0-1.12","dekgjrbh10","many_one","0","indirect_first","0","er05an30","0","24","1","1","3","2","","0","1","0","null","","","<img src = 'category2/CS5.png' width = '100%;'>","null","","","","","","","","","",""
"","html-keyboard-response","140","414404","0.0-8.0-2.12","dekgjrbh10","many_one","0","indirect_first","0","er05an30","0","24","1","1","3","2","","0","1","0","null","","","<img src = 'targets/1.png' width = '100%;'>","null","","","","","","","","","",""
"","html-keyboard-response","141","415179","0.0-8.0-3.12","dekgjrbh10","many_one","0","indirect_first","0","er05an30","0","24","1","1","3","2","","0","1","0","773.5249999677762","","","<img src = 'targets/mask.png' width = '100%;'>","75","neg","GS","GSold","2","category2/CS5.png","targets/1.png","1","indirect","12",""
"","html-keyboard-response","142","416699","0.0-8.0-0.13","dekgjrbh10","many_one","0","indirect_first","0","er05an30","0","24","1","1","3","2","","0","1","0","null","","","<div style=""font-size:60px;"">+</div>","null","","","","","","","","","",""
"","html-keyboard-response","143","416807","0.0-8.0-1.13","dekgjrbh10","many_one","0","indirect_first","0","er05an30","0","24","1","1","3","2","","0","1","0","null","","","<img src = 'category1/CS6.png' width = '100%;'>","null","","","","","","","","","",""
"","html-keyboard-response","144","417064","0.0-8.0-2.13","dekgjrbh10","many_one","0","indirect_first","0","er05an30","0","24","1","1","3","2","","0","1","0","null","","","<img src = 'targets/6.png' width = '100%;'>","null","","","","","","","","","",""
"","html-keyboard-response","145","418298","0.0-8.0-3.13","dekgjrbh10","many_one","0","indirect_first","0","er05an30","0","24","1","1","3","2","","0","1","0","1230.9799999929965","","","<img src = 'targets/mask.png' width = '100%;'>","68","pos","CS","CS","1","category1/CS6.png","targets/6.png","0","indirect","13",""
"","html-keyboard-response","146","419811","0.0-8.0-0.14","dekgjrbh10","many_one","0","indirect_first","0","er05an30","0","24","1","1","3","2","","0","1","0","null","","","<div style=""font-size:60px;"">+</div>","null","","","","","","","","","",""
"","html-keyboard-response","147","419916","0.0-8.0-1.14","dekgjrbh10","many_one","0","indirect_first","0","er05an30","0","24","1","1","3","2","","0","1","0","null","","","<img src = 'category1/CS8.png' width = '100%;'>","null","","","","","","","","","",""
"","html-keyboard-response","148","420182","0.0-8.0-2.14","dekgjrbh10","many_one","0","indirect_first","0","er05an30","0","24","1","1","3","2","","0","1","0","null","","","<img src = 'targets/45.png' width = '100%;'>","null","","","","","","","","","",""
"","html-keyboard-response","149","421634","0.0-8.0-3.14","dekgjrbh10","many_one","0","indirect_first","0","er05an30","0","24","1","1","3","2","","0","1","0","1449.0950000472367","","","<img src = 'targets/mask.png' width = '100%;'>","68","pos","CS","CS","1","category1/CS8.png","targets/45.png","0","indirect","14",""
"","html-keyboard-response","150","423154","0.0-8.0-0.15","dekgjrbh10","many_one","0","indirect_first","0","er05an30","0","24","1","1","3","2","","0","1","0","null","","","<div style=""font-size:60px;"">+</div>","null","","","","","","","","","",""
"","html-keyboard-response","151","423251","0.0-8.0-1.15","dekgjrbh10","many_one","0","indirect_first","0","er05an30","0","24","1","1","3","2","","0","1","0","null","","","<img src = 'category4/CS7.png' width = '100%;'>","null","","","","","","","","","",""
"","html-keyboard-response","152","423528","0.0-8.0-2.15","dekgjrbh10","many_one","0","indirect_first","0","er05an30","0","24","1","1","3","2","","0","1","0","null","","","<img src = 'targets/35.png' width = '100%;'>","null","","","","","","","","","",""
"","html-keyboard-response","153","424691","0.0-8.0-3.15","dekgjrbh10","many_one","0","indirect_first","0","er05an30","0","24","1","1","3","2","","0","1","0","1160.4349999688566","","","<img src = 'targets/mask.png' width = '100%;'>","68","neg","CS","CS","4","category4/CS7.png","targets/35.png","0","indirect","15",""
"","html-keyboard-response","154","426196","0.0-8.0-0.16","dekgjrbh10","many_one","0","indirect_first","0","er05an30","0","24","1","1","3","2","","0","1","0","null","","","<div style=""font-size:60px;"">+</div>","null","","","","","","","","","",""
"","html-keyboard-response","155","426302","0.0-8.0-1.16","dekgjrbh10","many_one","0","indirect_first","0","er05an30","0","24","1","1","3","2","","0","1","0","null","","","<img src = 'category2/CS4.png' width = '100%;'>","null","","","","","","","","","",""
"","html-keyboard-response","156","426565","0.0-8.0-2.16","dekgjrbh10","many_one","0","indirect_first","0","er05an30","0","24","1","1","3","2","","0","1","0","null","","","<img src = 'targets/42.png' width = '100%;'>","null","","","","","","","","","",""
"","html-keyboard-response","157","429365","0.0-8.0-3.16","dekgjrbh10","many_one","0","indirect_first","0","er05an30","0","24","1","1","3","2","","0","1","0","2797.0300000160933","","","<img src = 'targets/mask.png' width = '100%;'>","75","neg","GS","GSold","2","category2/CS4.png","targets/42.png","1","indirect","16",""
"","html-keyboard-response","158","430874","0.0-8.0-0.17","dekgjrbh10","many_one","0","indirect_first","0","er05an30","0","24","1","1","3","2","","0","1","0","null","","","<div style=""font-size:60px;"">+</div>","null","","","","","","","","","",""
"","html-keyboard-response","159","430970","0.0-8.0-1.17","dekgjrbh10","many_one","0","indirect_first","0","er05an30","0","24","1","1","3","2","","0","1","0","null","","","<img src = 'category2/CS10.png' width = '100%;'>","null","","","","","","","","","",""
"","html-keyboard-response","160","431230","0.0-8.0-2.17","dekgjrbh10","many_one","0","indirect_first","0","er05an30","0","24","1","1","3","2","","0","1","0","null","","","<img src = 'targets/37.png' width = '100%;'>","null","","","","","","","","","",""
"","html-keyboard-response","161","433004","0.0-8.0-3.17","dekgjrbh10","many_one","0","indirect_first","0","er05an30","0","24","1","1","3","2","","0","1","0","1770.4399999929592","","","<img src = 'targets/mask.png' width = '100%;'>","75","neg","CS","CS","2","category2/CS10.png","targets/37.png","1","indirect","17",""
"","html-keyboard-response","162","434519","0.0-8.0-0.18","dekgjrbh10","many_one","0","indirect_first","0","er05an30","0","24","1","1","3","2","","0","1","0","null","","","<div style=""font-size:60px;"">+</div>","null","","","","","","","","","",""
"","html-keyboard-response","163","434616","0.0-8.0-1.18","dekgjrbh10","many_one","0","indirect_first","0","er05an30","0","24","1","1","3","2","","0","1","0","null","","","<img src = 'category2/CS6.png' width = '100%;'>","null","","","","","","","","","",""
"","html-keyboard-response","164","434881","0.0-8.0-2.18","dekgjrbh10","many_one","0","indirect_first","0","er05an30","0","24","1","1","3","2","","0","1","0","null","","","<img src = 'targets/12.png' width = '100%;'>","null","","","","","","","","","",""
"","html-keyboard-response","165","436239","0.0-8.0-3.18","dekgjrbh10","many_one","0","indirect_first","0","er05an30","0","24","1","1","3","2","","0","1","0","1354.5850000809878","","","<img src = 'targets/mask.png' width = '100%;'>","75","neg","GS","GSold","2","category2/CS6.png","targets/12.png","1","indirect","18",""
"","html-keyboard-response","166","437752","0.0-8.0-0.19","dekgjrbh10","many_one","0","indirect_first","0","er05an30","0","24","1","1","3","2","","0","1","0","null","","","<div style=""font-size:60px;"">+</div>","null","","","","","","","","","",""
"","html-keyboard-response","167","437849","0.0-8.0-1.19","dekgjrbh10","many_one","0","indirect_first","0","er05an30","0","24","1","1","3","2","","0","1","0","null","","","<img src = 'category4/CS6.png' width = '100%;'>","null","","","","","","","","","",""
"","html-keyboard-response","168","438127","0.0-8.0-2.19","dekgjrbh10","many_one","0","indirect_first","0","er05an30","0","24","1","1","3","2","","0","1","0","null","","","<img src = 'targets/44.png' width = '100%;'>","null","","","","","","","","","",""
"","html-keyboard-response","169","439876","0.0-8.0-3.19","dekgjrbh10","many_one","0","indirect_first","0","er05an30","0","24","1","1","3","2","","0","1","0","1746.6599999461323","","","<img src = 'targets/mask.png' width = '100%;'>","68","neg","CS","CS","4","category4/CS6.png","targets/44.png","0","indirect","19",""
"","html-keyboard-response","170","441402","0.0-8.0-0.20","dekgjrbh10","many_one","0","indirect_first","0","er05an30","0","24","1","1","3","2","","0","1","0","null","","","<div style=""font-size:60px;"">+</div>","null","","","","","","","","","",""
"","html-keyboard-response","171","441499","0.0-8.0-1.20","dekgjrbh10","many_one","0","indirect_first","0","er05an30","0","24","1","1","3","2","","0","1","0","null","","","<img src = 'category4/CS1.png' width = '100%;'>","null","","","","","","","","","",""
"","html-keyboard-response","172","441764","0.0-8.0-2.20","dekgjrbh10","many_one","0","indirect_first","0","er05an30","0","24","1","1","3","2","","0","1","0","null","","","<img src = 'targets/13.png' width = '100%;'>","null","","","","","","","","","",""
"","html-keyboard-response","173","444052","0.0-8.0-3.20","dekgjrbh10","many_one","0","indirect_first","0","er05an30","0","24","1","1","3","2","","0","1","0","2283.9399999938905","","","<img src = 'targets/mask.png' width = '100%;'>","75","neg","CS","CS","4","category4/CS1.png","targets/13.png","1","indirect","20",""
"","html-keyboard-response","174","445562","0.0-8.0-0.21","dekgjrbh10","many_one","0","indirect_first","0","er05an30","0","24","1","1","3","2","","0","1","0","null","","","<div style=""font-size:60px;"">+</div>","null","","","","","","","","","",""
"","html-keyboard-response","175","445666","0.0-8.0-1.21","dekgjrbh10","many_one","0","indirect_first","0","er05an30","0","24","1","1","3","2","","0","1","0","null","","","<img src = 'category4/CS2.png' width = '100%;'>","null","","","","","","","","","",""
"","html-keyboard-response","176","445931","0.0-8.0-2.21","dekgjrbh10","many_one","0","indirect_first","0","er05an30","0","24","1","1","3","2","","0","1","0","null","","","<img src = 'targets/9.png' width = '100%;'>","null","","","","","","","","","",""
"","html-keyboard-response","177","446450","0.0-8.0-3.21","dekgjrbh10","many_one","0","indirect_first","0","er05an30","0","24","1","1","3","2","","0","1","0","515.804999973625","","","<img src = 'targets/mask.png' width = '100%;'>","75","neg","CS","CS","4","category4/CS2.png","targets/9.png","1","indirect","21",""
"","html-keyboard-response","178","447974","0.0-8.0-0.22","dekgjrbh10","many_one","0","indirect_first","0","er05an30","0","24","1","1","3","2","","0","1","0","null","","","<div style=""font-size:60px;"">+</div>","null","","","","","","","","","",""
"","html-keyboard-response","179","448070","0.0-8.0-1.22","dekgjrbh10","many_one","0","indirect_first","0","er05an30","0","24","1","1","3","2","","0","1","0","null","","","<img src = 'category4/CS4.png' width = '100%;'>","null","","","","","","","","","",""
"","html-keyboard-response","180","448336","0.0-8.0-2.22","dekgjrbh10","many_one","0","indirect_first","0","er05an30","0","24","1","1","3","2","","0","1","0","null","","","<img src = 'targets/25.png' width = '100%;'>","null","","","","","","","","","",""
"","html-keyboard-response","181","450265","0.0-8.0-3.22","dekgjrbh10","many_one","0","indirect_first","0","er05an30","0","24","1","1","3","2","","0","1","0","1926.5049999812618","","","<img src = 'targets/mask.png' width = '100%;'>","68","neg","CS","CS","4","category4/CS4.png","targets/25.png","0","indirect","22",""
"","html-keyboard-response","182","451773","0.0-8.0-0.23","dekgjrbh10","many_one","0","indirect_first","0","er05an30","0","24","1","1","3","2","","0","1","0","null","","","<div style=""font-size:60px;"">+</div>","null","","","","","","","","","",""
"","html-keyboard-response","183","451879","0.0-8.0-1.23","dekgjrbh10","many_one","0","indirect_first","0","er05an30","0","24","1","1","3","2","","0","1","0","null","","","<img src = 'category3/CS4.png' width = '100%;'>","null","","","","","","","","","",""
"","html-keyboard-response","184","452147","0.0-8.0-2.23","dekgjrbh10","many_one","0","indirect_first","0","er05an30","0","24","1","1","3","2","","0","1","0","null","","","<img src = 'targets/27.png' width = '100%;'>","null","","","","","","","","","",""
"","html-keyboard-response","185","453133","0.0-8.0-3.23","dekgjrbh10","many_one","0","indirect_first","0","er05an30","0","24","1","1","3","2","","0","1","0","983.2450000103563","","","<img src = 'targets/mask.png' width = '100%;'>","68","pos","GS","GSold","3","category3/CS4.png","targets/27.png","0","indirect","23",""
"","survey-html-form","186","455229","0.0-9.0","dekgjrbh10","many_one","0","indirect_first","0","er05an30","0","24","1","1","3","2","","0","1","0","1579.700000002049","","{}","","","","","","","","","","","",""
"","html-keyboard-response","187","458260","0.0-10.0-0.0","dekgjrbh10","many_one","0","indirect_first","0","er05an30","0","24","1","1","3","2","","0","1","0","null","","","<div style=""font-size:60px;"">+</div>","null","","","","","","","","","",""
"","html-keyboard-response","188","458353","0.0-10.0-1.0","dekgjrbh10","many_one","0","indirect_first","0","er05an30","0","24","1","1","3","2","","0","1","0","null","","","<img src = 'category4/lin.png' width = '100%;'>","null","","","","","","","","","",""
"","html-keyboard-response","189","458615","0.0-10.0-2.0","dekgjrbh10","many_one","0","indirect_first","0","er05an30","0","24","1","1","3","2","","0","1","0","null","","","<img src = 'targets/18.png' width = '100%;'>","null","","","","","","","","","",""
"","html-keyboard-response","190","459759","0.0-10.0-3.0","dekgjrbh10","many_one","0","indirect_first","0","er05an30","0","24","1","1","3","2","","0","1","0","1141.0150000592694","","","<img src = 'targets/mask.png' width = '100%;'>","75","neg","GS","abstract","4","category4/lin.png","targets/18.png","1","indirect","24",""
"","html-keyboard-response","191","461275","0.0-10.0-0.1","dekgjrbh10","many_one","0","indirect_first","0","er05an30","0","24","1","1","3","2","","0","1","0","null","","","<div style=""font-size:60px;"">+</div>","null","","","","","","","","","",""
"","html-keyboard-response","192","461372","0.0-10.0-1.1","dekgjrbh10","many_one","0","indirect_first","0","er05an30","0","24","1","1","3","2","","0","1","0","null","","","<img src = 'category3/GS2.png' width = '100%;'>","null","","","","","","","","","",""
"","html-keyboard-response","193","461628","0.0-10.0-2.1","dekgjrbh10","many_one","0","indirect_first","0","er05an30","0","24","1","1","3","2","","0","1","0","null","","","<img src = 'targets/19.png' width = '100%;'>","null","","","","","","","","","",""
"","html-keyboard-response","194","462265","0.0-10.0-3.1","dekgjrbh10","many_one","0","indirect_first","0","er05an30","0","24","1","1","3","2","","0","1","0","633.4049999713898","","","<img src = 'targets/mask.png' width = '100%;'>","68","pos","GS","GSnew","3","category3/GS2.png","targets/19.png","0","indirect","25",""
"","html-keyboard-response","195","463774","0.0-10.0-0.2","dekgjrbh10","many_one","0","indirect_first","0","er05an30","0","24","1","1","3","2","","0","1","0","null","","","<div style=""font-size:60px;"">+</div>","null","","","","","","","","","",""
"","html-keyboard-response","196","463879","0.0-10.0-1.2","dekgjrbh10","many_one","0","indirect_first","0","er05an30","0","24","1","1","3","2","","0","1","0","null","","","<img src = 'category1/GS1.png' width = '100%;'>","null","","","","","","","","","",""
"","html-keyboard-response","197","464154","0.0-10.0-2.2","dekgjrbh10","many_one","0","indirect_first","0","er05an30","0","24","1","1","3","2","","0","1","0","null","","","<img src = 'targets/17.png' width = '100%;'>","null","","","","","","","","","",""
"","html-keyboard-response","198","464721","0.0-10.0-3.2","dekgjrbh10","many_one","0","indirect_first","0","er05an30","0","24","1","1","3","2","","0","1","0","565.3799999272451","","","<img src = 'targets/mask.png' width = '100%;'>","68","pos","GS","GSnew","1","category1/GS1.png","targets/17.png","0","indirect","26",""
"","html-keyboard-response","199","466230","0.0-10.0-0.3","dekgjrbh10","many_one","0","indirect_first","0","er05an30","0","24","1","1","3","2","","0","1","0","null","","","<div style=""font-size:60px;"">+</div>","null","","","","","","","","","",""
"","html-keyboard-response","200","466335","0.0-10.0-1.3","dekgjrbh10","many_one","0","indirect_first","0","er05an30","0","24","1","1","3","2","","0","1","0","null","","","<img src = 'category4/CS8.png' width = '100%;'>","null","","","","","","","","","",""
"","html-keyboard-response","201","466599","0.0-10.0-2.3","dekgjrbh10","many_one","0","indirect_first","0","er05an30","0","24","1","1","3","2","","0","1","0","null","","","<img src = 'targets/5.png' width = '100%;'>","null","","","","","","","","","",""
"","html-keyboard-response","202","467008","0.0-10.0-3.3","dekgjrbh10","many_one","0","indirect_first","0","er05an30","0","24","1","1","3","2","","0","1","0","406.37999994214624","","","<img src = 'targets/mask.png' width = '100%;'>","75","neg","GS","GSold","4","category4/CS8.png","targets/5.png","1","indirect","27",""
"","html-keyboard-response","203","468518","0.0-10.0-0.4","dekgjrbh10","many_one","0","indirect_first","0","er05an30","0","24","1","1","3","2","","0","1","0","null","","","<div style=""font-size:60px;"">+</div>","null","","","","","","","","","",""
"","html-keyboard-response","204","468620","0.0-10.0-1.4","dekgjrbh10","many_one","0","indirect_first","0","er05an30","0","24","1","1","3","2","","0","1","0","null","","","<img src = 'category2/men.png' width = '100%;'>","null","","","","","","","","","",""
"","html-keyboard-response","205","468896","0.0-10.0-2.4","dekgjrbh10","many_one","0","indirect_first","0","er05an30","0","24","1","1","3","2","","0","1","0","null","","","<img src = 'targets/7.png' width = '100%;'>","null","","","","","","","","","",""
"","html-keyboard-response","206","470449","0.0-10.0-3.4","dekgjrbh10","many_one","0","indirect_first","0","er05an30","0","24","1","1","3","2","","0","1","0","1550.2400000113994","","","<img src = 'targets/mask.png' width = '100%;'>","68","neg","GS","abstract","2","category2/men.png","targets/7.png","0","indirect","28",""
"","html-keyboard-response","207","471963","0.0-10.0-0.5","dekgjrbh10","many_one","0","indirect_first","0","er05an30","0","24","1","1","3","2","","0","1","0","null","","","<div style=""font-size:60px;"">+</div>","null","","","","","","","","","",""
"","html-keyboard-response","208","472068","0.0-10.0-1.5","dekgjrbh10","many_one","0","indirect_first","0","er05an30","0","24","1","1","3","2","","0","1","0","null","","","<img src = 'category1/GS3.png' width = '100%;'>","null","","","","","","","","","",""
"","html-keyboard-response","209","472332","0.0-10.0-2.5","dekgjrbh10","many_one","0","indirect_first","0","er05an30","0","24","1","1","3","2","","0","1","0","null","","","<img src = 'targets/38.png' width = '100%;'>","null","","","","","","","","","",""
"","html-keyboard-response","210","472857","0.0-10.0-3.5","dekgjrbh10","many_one","0","indirect_first","0","er05an30","0","24","1","1","3","2","","0","1","0","522.41000009235","","","<img src = 'targets/mask.png' width = '100%;'>","68","pos","GS","GSnew","1","category1/GS3.png","targets/38.png","0","indirect","29",""
"","html-keyboard-response","211","474368","0.0-10.0-0.6","dekgjrbh10","many_one","0","indirect_first","0","er05an30","0","24","1","1","3","2","","0","1","0","null","","","<div style=""font-size:60px;"">+</div>","null","","","","","","","","","",""
"","html-keyboard-response","212","474464","0.0-10.0-1.6","dekgjrbh10","many_one","0","indirect_first","0","er05an30","0","24","1","1","3","2","","0","1","0","null","","","<img src = 'category4/GS2.png' width = '100%;'>","null","","","","","","","","","",""
"","html-keyboard-response","213","474731","0.0-10.0-2.6","dekgjrbh10","many_one","0","indirect_first","0","er05an30","0","24","1","1","3","2","","0","1","0","null","","","<img src = 'targets/10.png' width = '100%;'>","null","","","","","","","","","",""
"","html-keyboard-response","214","477467","0.0-10.0-3.6","dekgjrbh10","many_one","0","indirect_first","0","er05an30","0","24","1","1","3","2","","0","1","0","2733.3450000733137","","","<img src = 'targets/mask.png' width = '100%;'>","75","neg","GS","GSnew","4","category4/GS2.png","targets/10.png","1","indirect","30",""
"","html-keyboard-response","215","478984","0.0-10.0-0.7","dekgjrbh10","many_one","0","indirect_first","0","er05an30","0","24","1","1","3","2","","0","1","0","null","","","<div style=""font-size:60px;"">+</div>","null","","","","","","","","","",""
"","html-keyboard-response","216","479081","0.0-10.0-1.7","dekgjrbh10","many_one","0","indirect_first","0","er05an30","0","24","1","1","3","2","","0","1","0","null","","","<img src = 'category2/GS2.png' width = '100%;'>","null","","","","","","","","","",""
"","html-keyboard-response","217","479346","0.0-10.0-2.7","dekgjrbh10","many_one","0","indirect_first","0","er05an30","0","24","1","1","3","2","","0","1","0","null","","","<img src = 'targets/21.png' width = '100%;'>","null","","","","","","","","","",""
"","html-keyboard-response","218","480158","0.0-10.0-3.7","dekgjrbh10","many_one","0","indirect_first","0","er05an30","0","24","1","1","3","2","","0","1","0","808.1450000172481","","","<img src = 'targets/mask.png' width = '100%;'>","68","neg","GS","GSnew","2","category2/GS2.png","targets/21.png","0","indirect","31",""
"","html-keyboard-response","219","481683","0.0-10.0-0.8","dekgjrbh10","many_one","0","indirect_first","0","er05an30","0","24","1","1","3","2","","0","1","0","null","","","<div style=""font-size:60px;"">+</div>","null","","","","","","","","","",""
"","html-keyboard-response","220","481787","0.0-10.0-1.8","dekgjrbh10","many_one","0","indirect_first","0","er05an30","0","24","1","1","3","2","","0","1","0","null","","","<img src = 'category4/CS5.png' width = '100%;'>","null","","","","","","","","","",""
"","html-keyboard-response","221","482045","0.0-10.0-2.8","dekgjrbh10","many_one","0","indirect_first","0","er05an30","0","24","1","1","3","2","","0","1","0","null","","","<img src = 'targets/39.png' width = '100%;'>","null","","","","","","","","","",""
"","html-keyboard-response","222","482515","0.0-10.0-3.8","dekgjrbh10","many_one","0","indirect_first","0","er05an30","0","24","1","1","3","2","","0","1","0","468.44500000588596","","","<img src = 'targets/mask.png' width = '100%;'>","68","neg","GS","GSold","4","category4/CS5.png","targets/39.png","0","indirect","32",""
"","html-keyboard-response","223","484035","0.0-10.0-0.9","dekgjrbh10","many_one","0","indirect_first","0","er05an30","0","24","1","1","3","2","","0","1","0","null","","","<div style=""font-size:60px;"">+</div>","null","","","","","","","","","",""
"","html-keyboard-response","224","484131","0.0-10.0-1.9","dekgjrbh10","many_one","0","indirect_first","0","er05an30","0","24","1","1","3","2","","0","1","0","null","","","<img src = 'category1/CS2.png' width = '100%;'>","null","","","","","","","","","",""
"","html-keyboard-response","225","484398","0.0-10.0-2.9","dekgjrbh10","many_one","0","indirect_first","0","er05an30","0","24","1","1","3","2","","0","1","0","null","","","<img src = 'targets/47.png' width = '100%;'>","null","","","","","","","","","",""
"","html-keyboard-response","226","485032","0.0-10.0-3.9","dekgjrbh10","many_one","0","indirect_first","0","er05an30","0","24","1","1","3","2","","0","1","0","631.3549999613315","","","<img src = 'targets/mask.png' width = '100%;'>","68","pos","GS","GSold","1","category1/CS2.png","targets/47.png","0","indirect","33",""
"","html-keyboard-response","227","486558","0.0-10.0-0.10","dekgjrbh10","many_one","0","indirect_first","0","er05an30","0","24","1","1","3","2","","0","1","0","null","","","<div style=""font-size:60px;"">+</div>","null","","","","","","","","","",""
"","html-keyboard-response","228","486655","0.0-10.0-1.10","dekgjrbh10","many_one","0","indirect_first","0","er05an30","0","24","1","1","3","2","","0","1","0","null","","","<img src = 'category2/GS3.png' width = '100%;'>","null","","","","","","","","","",""
"","html-keyboard-response","229","486918","0.0-10.0-2.10","dekgjrbh10","many_one","0","indirect_first","0","er05an30","0","24","1","1","3","2","","0","1","0","null","","","<img src = 'targets/23.png' width = '100%;'>","null","","","","","","","","","",""
"","html-keyboard-response","230","488311","0.0-10.0-3.10","dekgjrbh10","many_one","0","indirect_first","0","er05an30","0","24","1","1","3","2","","0","1","0","1390.5599999707192","","","<img src = 'targets/mask.png' width = '100%;'>","75","neg","GS","GSnew","2","category2/GS3.png","targets/23.png","1","indirect","34",""
"","html-keyboard-response","231","489823","0.0-10.0-0.11","dekgjrbh10","many_one","0","indirect_first","0","er05an30","0","24","1","1","3","2","","0","1","0","null","","","<div style=""font-size:60px;"">+</div>","null","","","","","","","","","",""
"","html-keyboard-response","232","489920","0.0-10.0-1.11","dekgjrbh10","many_one","0","indirect_first","0","er05an30","0","24","1","1","3","2","","0","1","0","null","","","<img src = 'category3/GS3.png' width = '100%;'>","null","","","","","","","","","",""
"","html-keyboard-response","233","490185","0.0-10.0-2.11","dekgjrbh10","many_one","0","indirect_first","0","er05an30","0","24","1","1","3","2","","0","1","0","null","","","<img src = 'targets/4.png' width = '100%;'>","null","","","","","","","","","",""
"","html-keyboard-response","234","490589","0.0-10.0-3.11","dekgjrbh10","many_one","0","indirect_first","0","er05an30","0","24","1","1","3","2","","0","1","0","400.6650000810623","","","<img src = 'targets/mask.png' width = '100%;'>","68","pos","GS","GSnew","3","category3/GS3.png","targets/4.png","0","indirect","35",""
"","html-keyboard-response","235","492106","0.0-10.0-0.12","dekgjrbh10","many_one","0","indirect_first","0","er05an30","0","24","1","1","3","2","","0","1","0","null","","","<div style=""font-size:60px;"">+</div>","null","","","","","","","","","",""
"","html-keyboard-response","236","492212","0.0-10.0-1.12","dekgjrbh10","many_one","0","indirect_first","0","er05an30","0","24","1","1","3","2","","0","1","0","null","","","<img src = 'category4/GS1.png' width = '100%;'>","null","","","","","","","","","",""
"","html-keyboard-response","237","492479","0.0-10.0-2.12","dekgjrbh10","many_one","0","indirect_first","0","er05an30","0","24","1","1","3","2","","0","1","0","null","","","<img src = 'targets/26.png' width = '100%;'>","null","","","","","","","","","",""
"","html-keyboard-response","238","492912","0.0-10.0-3.12","dekgjrbh10","many_one","0","indirect_first","0","er05an30","0","24","1","1","3","2","","0","1","0","430.6649999925867","","","<img src = 'targets/mask.png' width = '100%;'>","75","neg","GS","GSnew","4","category4/GS1.png","targets/26.png","1","indirect","36",""
"","html-keyboard-response","239","494426","0.0-10.0-0.13","dekgjrbh10","many_one","0","indirect_first","0","er05an30","0","24","1","1","3","2","","0","1","0","null","","","<div style=""font-size:60px;"">+</div>","null","","","","","","","","","",""
"","html-keyboard-response","240","494520","0.0-10.0-1.13","dekgjrbh10","many_one","0","indirect_first","0","er05an30","0","24","1","1","3","2","","0","1","0","null","","","<img src = 'category1/CS10.png' width = '100%;'>","null","","","","","","","","","",""
"","html-keyboard-response","241","494778","0.0-10.0-2.13","dekgjrbh10","many_one","0","indirect_first","0","er05an30","0","24","1","1","3","2","","0","1","0","null","","","<img src = 'targets/46.png' width = '100%;'>","null","","","","","","","","","",""
"","html-keyboard-response","242","495172","0.0-10.0-3.13","dekgjrbh10","many_one","0","indirect_first","0","er05an30","0","24","1","1","3","2","","0","1","0","391.24999998603016","","","<img src = 'targets/mask.png' width = '100%;'>","68","pos","GS","GSold","1","category1/CS10.png","targets/46.png","0","indirect","37",""
"","html-keyboard-response","243","496685","0.0-10.0-0.14","dekgjrbh10","many_one","0","indirect_first","0","er05an30","0","24","1","1","3","2","","0","1","0","null","","","<div style=""font-size:60px;"">+</div>","null","","","","","","","","","",""
"","html-keyboard-response","244","496781","0.0-10.0-1.14","dekgjrbh10","many_one","0","indirect_first","0","er05an30","0","24","1","1","3","2","","0","1","0","null","","","<img src = 'category4/GS3.png' width = '100%;'>","null","","","","","","","","","",""
"","html-keyboard-response","245","497047","0.0-10.0-2.14","dekgjrbh10","many_one","0","indirect_first","0","er05an30","0","24","1","1","3","2","","0","1","0","null","","","<img src = 'targets/14.png' width = '100%;'>","null","","","","","","","","","",""
"","html-keyboard-response","246","497530","0.0-10.0-3.14","dekgjrbh10","many_one","0","indirect_first","0","er05an30","0","24","1","1","3","2","","0","1","0","479.87499996088445","","","<img src = 'targets/mask.png' width = '100%;'>","68","neg","GS","GSnew","4","category4/GS3.png","targets/14.png","0","indirect","38",""
"","html-keyboard-response","247","499051","0.0-10.0-0.15","dekgjrbh10","many_one","0","indirect_first","0","er05an30","0","24","1","1","3","2","","0","1","0","null","","","<div style=""font-size:60px;"">+</div>","null","","","","","","","","","",""
"","html-keyboard-response","248","499148","0.0-10.0-1.15","dekgjrbh10","many_one","0","indirect_first","0","er05an30","0","24","1","1","3","2","","0","1","0","null","","","<img src = 'category1/CS9.png' width = '100%;'>","null","","","","","","","","","",""
"","html-keyboard-response","249","499413","0.0-10.0-2.15","dekgjrbh10","many_one","0","indirect_first","0","er05an30","0","24","1","1","3","2","","0","1","0","null","","","<img src = 'targets/41.png' width = '100%;'>","null","","","","","","","","","",""
"","html-keyboard-response","250","500683","0.0-10.0-3.15","dekgjrbh10","many_one","0","indirect_first","0","er05an30","0","24","1","1","3","2","","0","1","0","1266.6399999288842","","","<img src = 'targets/mask.png' width = '100%;'>","68","pos","GS","GSold","1","category1/CS9.png","targets/41.png","0","indirect","39",""
"","html-keyboard-response","251","502197","0.0-10.0-0.16","dekgjrbh10","many_one","0","indirect_first","0","er05an30","0","24","1","1","3","2","","0","1","0","null","","","<div style=""font-size:60px;"">+</div>","null","","","","","","","","","",""
"","html-keyboard-response","252","502294","0.0-10.0-1.16","dekgjrbh10","many_one","0","indirect_first","0","er05an30","0","24","1","1","3","2","","0","1","0","null","","","<img src = 'category1/ma.png' width = '100%;'>","null","","","","","","","","","",""
"","html-keyboard-response","253","502565","0.0-10.0-2.16","dekgjrbh10","many_one","0","indirect_first","0","er05an30","0","24","1","1","3","2","","0","1","0","null","","","<img src = 'targets/34.png' width = '100%;'>","null","","","","","","","","","",""
"","html-keyboard-response","254","503194","0.0-10.0-3.16","dekgjrbh10","many_one","0","indirect_first","0","er05an30","0","24","1","1","3","2","","0","1","0","626.1950000189245","","","<img src = 'targets/mask.png' width = '100%;'>","68","pos","GS","abstract","1","category1/ma.png","targets/34.png","0","indirect","40",""
"","html-keyboard-response","255","504707","0.0-10.0-0.17","dekgjrbh10","many_one","0","indirect_first","0","er05an30","0","24","1","1","3","2","","0","1","0","null","","","<div style=""font-size:60px;"">+</div>","null","","","","","","","","","",""
"","html-keyboard-response","256","504811","0.0-10.0-1.17","dekgjrbh10","many_one","0","indirect_first","0","er05an30","0","24","1","1","3","2","","0","1","0","null","","","<img src = 'category2/GS1.png' width = '100%;'>","null","","","","","","","","","",""
"","html-keyboard-response","257","505079","0.0-10.0-2.17","dekgjrbh10","many_one","0","indirect_first","0","er05an30","0","24","1","1","3","2","","0","1","0","null","","","<img src = 'targets/3.png' width = '100%;'>","null","","","","","","","","","",""
"","html-keyboard-response","258","506041","0.0-10.0-3.17","dekgjrbh10","many_one","0","indirect_first","0","er05an30","0","24","1","1","3","2","","0","1","0","958.5699999006465","","","<img src = 'targets/mask.png' width = '100%;'>","75","neg","GS","GSnew","2","category2/GS1.png","targets/3.png","1","indirect","41",""
"","html-keyboard-response","259","507554","0.0-10.0-0.18","dekgjrbh10","many_one","0","indirect_first","0","er05an30","0","24","1","1","3","2","","0","1","0","null","","","<div style=""font-size:60px;"">+</div>","null","","","","","","","","","",""
"","html-keyboard-response","260","507647","0.0-10.0-1.18","dekgjrbh10","many_one","0","indirect_first","0","er05an30","0","24","1","1","3","2","","0","1","0","null","","","<img src = 'category3/CS6.png' width = '100%;'>","null","","","","","","","","","",""
"","html-keyboard-response","261","507914","0.0-10.0-2.18","dekgjrbh10","many_one","0","indirect_first","0","er05an30","0","24","1","1","3","2","","0","1","0","null","","","<img src = 'targets/31.png' width = '100%;'>","null","","","","","","","","","",""
"","html-keyboard-response","262","508829","0.0-10.0-3.18","dekgjrbh10","many_one","0","indirect_first","0","er05an30","0","24","1","1","3","2","","0","1","0","912.6649999525398","","","<img src = 'targets/mask.png' width = '100%;'>","75","pos","GS","GSold","3","category3/CS6.png","targets/31.png","1","indirect","42",""
"","html-keyboard-response","263","510343","0.0-10.0-0.19","dekgjrbh10","many_one","0","indirect_first","0","er05an30","0","24","1","1","3","2","","0","1","0","null","","","<div style=""font-size:60px;"">+</div>","null","","","","","","","","","",""
"","html-keyboard-response","264","510447","0.0-10.0-1.19","dekgjrbh10","many_one","0","indirect_first","0","er05an30","0","24","1","1","3","2","","0","1","0","null","","","<img src = 'category3/GS1.png' width = '100%;'>","null","","","","","","","","","",""
"","html-keyboard-response","265","510710","0.0-10.0-2.19","dekgjrbh10","many_one","0","indirect_first","0","er05an30","0","24","1","1","3","2","","0","1","0","null","","","<img src = 'targets/15.png' width = '100%;'>","null","","","","","","","","","",""
"","html-keyboard-response","266","511086","0.0-10.0-3.19","dekgjrbh10","many_one","0","indirect_first","0","er05an30","0","24","1","1","3","2","","0","1","0","374.05999994371086","","","<img src = 'targets/mask.png' width = '100%;'>","68","pos","GS","GSnew","3","category3/GS1.png","targets/15.png","0","indirect","43",""
"","html-keyboard-response","267","512591","0.0-10.0-0.20","dekgjrbh10","many_one","0","indirect_first","0","er05an30","0","24","1","1","3","2","","0","1","0","null","","","<div style=""font-size:60px;"">+</div>","null","","","","","","","","","",""
"","html-keyboard-response","268","512687","0.0-10.0-1.20","dekgjrbh10","many_one","0","indirect_first","0","er05an30","0","24","1","1","3","2","","0","1","0","null","","","<img src = 'category4/CS3.png' width = '100%;'>","null","","","","","","","","","",""
"","html-keyboard-response","269","512951","0.0-10.0-2.20","dekgjrbh10","many_one","0","indirect_first","0","er05an30","0","24","1","1","3","2","","0","1","0","null","","","<img src = 'targets/16.png' width = '100%;'>","null","","","","","","","","","",""
"","html-keyboard-response","270","516714","0.0-10.0-3.20","dekgjrbh10","many_one","0","indirect_first","0","er05an30","0","24","1","1","3","2","","0","1","0","3761.034999974072","","","<img src = 'targets/mask.png' width = '100%;'>","75","neg","GS","GSold","4","category4/CS3.png","targets/16.png","1","indirect","44",""
"","html-keyboard-response","271","518234","0.0-10.0-0.21","dekgjrbh10","many_one","0","indirect_first","0","er05an30","0","24","1","1","3","2","","0","1","0","null","","","<div style=""font-size:60px;"">+</div>","null","","","","","","","","","",""
"","html-keyboard-response","272","518329","0.0-10.0-1.21","dekgjrbh10","many_one","0","indirect_first","0","er05an30","0","24","1","1","3","2","","0","1","0","null","","","<img src = 'category1/GS2.png' width = '100%;'>","null","","","","","","","","","",""
"","html-keyboard-response","273","518595","0.0-10.0-2.21","dekgjrbh10","many_one","0","indirect_first","0","er05an30","0","24","1","1","3","2","","0","1","0","null","","","<img src = 'targets/36.png' width = '100%;'>","null","","","","","","","","","",""
"","html-keyboard-response","274","519200","0.0-10.0-3.21","dekgjrbh10","many_one","0","indirect_first","0","er05an30","0","24","1","1","3","2","","0","1","0","600.6449999986216","","","<img src = 'targets/mask.png' width = '100%;'>","68","pos","GS","GSnew","1","category1/GS2.png","targets/36.png","0","indirect","45",""
"","html-keyboard-response","275","520706","0.0-10.0-0.22","dekgjrbh10","many_one","0","indirect_first","0","er05an30","0","24","1","1","3","2","","0","1","0","null","","","<div style=""font-size:60px;"">+</div>","null","","","","","","","","","",""
"","html-keyboard-response","276","520805","0.0-10.0-1.22","dekgjrbh10","many_one","0","indirect_first","0","er05an30","0","24","1","1","3","2","","0","1","0","null","","","<img src = 'category3/wang.png' width = '100%;'>","null","","","","","","","","","",""
"","html-keyboard-response","277","521078","0.0-10.0-2.22","dekgjrbh10","many_one","0","indirect_first","0","er05an30","0","24","1","1","3","2","","0","1","0","null","","","<img src = 'targets/20.png' width = '100%;'>","null","","","","","","","","","",""
"","html-keyboard-response","278","522953","0.0-10.0-3.22","dekgjrbh10","many_one","0","indirect_first","0","er05an30","0","24","1","1","3","2","","0","1","0","1871.9699999783188","","","<img src = 'targets/mask.png' width = '100%;'>","68","pos","GS","abstract","3","category3/wang.png","targets/20.png","0","indirect","46",""
"","html-keyboard-response","279","524459","0.0-10.0-0.23","dekgjrbh10","many_one","0","indirect_first","0","er05an30","0","24","1","1","3","2","","0","1","0","null","","","<div style=""font-size:60px;"">+</div>","null","","","","","","","","","",""
"","html-keyboard-response","280","524565","0.0-10.0-1.23","dekgjrbh10","many_one","0","indirect_first","0","er05an30","0","24","1","1","3","2","","0","1","0","null","","","<img src = 'category3/CS9.png' width = '100%;'>","null","","","","","","","","","",""
"","html-keyboard-response","281","524830","0.0-10.0-2.23","dekgjrbh10","many_one","0","indirect_first","0","er05an30","0","24","1","1","3","2","","0","1","0","null","","","<img src = 'targets/11.png' width = '100%;'>","null","","","","","","","","","",""
"","html-keyboard-response","282","525373","0.0-10.0-3.23","dekgjrbh10","many_one","0","indirect_first","0","er05an30","0","24","1","1","3","2","","0","1","0","540.6499999808148","","","<img src = 'targets/mask.png' width = '100%;'>","68","pos","GS","GSold","3","category3/CS9.png","targets/11.png","0","indirect","47",""
"","survey-html-form","283","534943","0.0-11.0","dekgjrbh10","many_one","0","indirect_first","0","er05an30","0","24","1","1","3","2","","0","1","0","9067.460000049323","","{}","","","","","","","","","","","",""
"","image-slider-response","284","542753","0.0-12.0-0.0","dekgjrbh10","many_one","0","indirect_first","0","er05an30","0","24","1","1","3","2","","0","1","0","5799.714999971911","","","","","pos","GS","abstract","3","category3/wang.png","targets/20.png","","direct","","94"
"","image-slider-response","285","548654","0.0-12.0-0.1","dekgjrbh10","many_one","0","indirect_first","0","er05an30","0","24","1","1","3","2","","0","1","0","5897.899999981746","","","","","pos","GS","GSnew","3","category3/GS3.png","targets/4.png","","direct","","16"
"","image-slider-response","286","554468","0.0-12.0-0.2","dekgjrbh10","many_one","0","indirect_first","0","er05an30","0","24","1","1","3","2","","0","1","0","5810.715000028722","","","","","neg","GS","GSold","2","category2/CS4.png","targets/42.png","","direct","","-31"
"","image-slider-response","287","569491","0.0-12.0-0.3","dekgjrbh10","many_one","0","indirect_first","0","er05an30","0","24","1","1","3","2","","0","1","0","15021.049999981187","","","","","neg","CS","CS","2","category2/CS10.png","targets/37.png","","direct","","-10"
"","image-slider-response","288","574626","0.0-12.0-0.4","dekgjrbh10","many_one","0","indirect_first","0","er05an30","0","24","1","1","3","2","","0","1","0","5130.669999984093","","","","","neg","GS","GSold","2","category2/CS6.png","targets/12.png","","direct","","-38"
"","image-slider-response","289","580912","0.0-12.0-0.5","dekgjrbh10","many_one","0","indirect_first","0","er05an30","0","24","1","1","3","2","","0","1","0","6283.359999884851","","","","","neg","CS","CS","2","category2/CS2.png","targets/33.png","","direct","","-70"
"","image-slider-response","290","584822","0.0-12.0-0.6","dekgjrbh10","many_one","0","indirect_first","0","er05an30","0","24","1","1","3","2","","0","1","0","3907.2799999266863","","","","","neg","CS","CS","2","category2/CS1.png","targets/8.png","","direct","","-61"
"","image-slider-response","291","590607","0.0-12.0-0.7","dekgjrbh10","many_one","0","indirect_first","0","er05an30","0","24","1","1","3","2","","0","1","0","5782.759999972768","","","","","pos","CS","CS","1","category1/CS6.png","targets/6.png","","direct","","-1"
"","image-slider-response","292","595483","0.0-12.0-0.8","dekgjrbh10","many_one","0","indirect_first","0","er05an30","0","24","1","1","3","2","","0","1","0","4871.794999926351","","","","","neg","CS","CS","4","category4/CS6.png","targets/44.png","","direct","","-64"
"","image-slider-response","293","599727","0.0-12.0-0.9","dekgjrbh10","many_one","0","indirect_first","0","er05an30","0","24","1","1","3","2","","0","1","0","4241.800000076182","","","","","neg","GS","GSnew","2","category2/GS1.png","targets/3.png","","direct","","-19"
"","image-slider-response","294","607573","0.0-12.0-0.10","dekgjrbh10","many_one","0","indirect_first","0","er05an30","0","24","1","1","3","2","","0","1","0","7842.03499997966","","","","","neg","GS","GSnew","4","category4/GS3.png","targets/14.png","","direct","","-9"
"","image-slider-response","295","611064","0.0-12.0-0.11","dekgjrbh10","many_one","0","indirect_first","0","er05an30","0","24","1","1","3","2","","0","1","0","3487.859999993816","","","","","neg","GS","GSnew","4","category4/GS1.png","targets/26.png","","direct","","-38"
"","image-slider-response","296","616736","0.0-12.0-0.12","dekgjrbh10","many_one","0","indirect_first","0","er05an30","0","24","1","1","3","2","","0","1","0","5668.80499990657","","","","","pos","GS","GSnew","1","category1/GS1.png","targets/17.png","","direct","","-72"
"","image-slider-response","297","620400","0.0-12.0-0.13","dekgjrbh10","many_one","0","indirect_first","0","er05an30","0","24","1","1","3","2","","0","1","0","3661.2800000002608","","","","","pos","GS","GSold","1","category1/CS10.png","targets/46.png","","direct","","-54"
"","image-slider-response","298","627566","0.0-12.0-0.14","dekgjrbh10","many_one","0","indirect_first","0","er05an30","0","24","1","1","3","2","","0","1","0","7162.599999923259","","","","","pos","CS","CS","1","category1/CS5.png","targets/48.png","","direct","","25"
"","image-slider-response","299","633767","0.0-12.0-0.15","dekgjrbh10","many_one","0","indirect_first","0","er05an30","0","24","1","1","3","2","","0","1","0","6197.679999982938","","","","","neg","CS","CS","2","category2/CS3.png","targets/22.png","","direct","","58"
"","image-slider-response","300","640425","0.0-12.0-0.16","dekgjrbh10","many_one","0","indirect_first","0","er05an30","0","24","1","1","3","2","","0","1","0","6656.4249999355525","","","","","pos","CS","CS","3","category3/CS5.png","targets/24.png","","direct","","100"
"","image-slider-response","301","643853","0.0-12.0-0.17","dekgjrbh10","many_one","0","indirect_first","0","er05an30","0","24","1","1","3","2","","0","1","0","3425.4900000523776","","","","","pos","CS","CS","1","category1/CS3.png","targets/29.png","","direct","","-66"
"","image-slider-response","302","647059","0.0-12.0-0.18","dekgjrbh10","many_one","0","indirect_first","0","er05an30","0","24","1","1","3","2","","0","1","0","3203.6999999545515","","","","","pos","CS","CS","3","category3/CS10.png","targets/2.png","","direct","","95"
"","image-slider-response","303","651527","0.0-12.0-0.19","dekgjrbh10","many_one","0","indirect_first","0","er05an30","0","24","1","1","3","2","","0","1","0","4465.460000094026","","","","","neg","CS","CS","4","category4/CS1.png","targets/13.png","","direct","","-67"
"","image-slider-response","304","660000","0.0-12.0-0.20","dekgjrbh10","many_one","0","indirect_first","0","er05an30","0","24","1","1","3","2","","0","1","0","8468.819999950938","","","","","neg","GS","abstract","2","category2/men.png","targets/7.png","","direct","","-86"
"","image-slider-response","305","663440","0.0-12.0-0.21","dekgjrbh10","many_one","0","indirect_first","0","er05an30","0","24","1","1","3","2","","0","1","0","3437.910000095144","","","","","neg","GS","GSold","4","category4/CS5.png","targets/39.png","","direct","","-69"
"","image-slider-response","306","667760","0.0-12.0-0.22","dekgjrbh10","many_one","0","indirect_first","0","er05an30","0","24","1","1","3","2","","0","1","0","4317.2649999614805","","","","","neg","CS","CS","4","category4/CS7.png","targets/35.png","","direct","","-92"
"","image-slider-response","307","671942","0.0-12.0-0.23","dekgjrbh10","many_one","0","indirect_first","0","er05an30","0","24","1","1","3","2","","0","1","0","4179.755000048317","","","","","pos","CS","CS","1","category1/CS8.png","targets/45.png","","direct","","-20"
"","image-slider-response","308","674938","0.0-12.0-0.24","dekgjrbh10","many_one","0","indirect_first","0","er05an30","0","24","1","1","3","2","","0","1","0","2993.194999988191","","","","","pos","GS","GSold","3","category3/CS4.png","targets/27.png","","direct","","50"
"","image-slider-response","309","678540","0.0-12.0-0.25","dekgjrbh10","many_one","0","indirect_first","0","er05an30","0","24","1","1","3","2","","0","1","0","3598.5850000288337","","","","","pos","CS","CS","3","category3/CS1.png","targets/32.png","","direct","","72"
"","image-slider-response","310","684108","0.0-12.0-0.26","dekgjrbh10","many_one","0","indirect_first","0","er05an30","0","24","1","1","3","2","","0","1","0","5564.505000016652","","","","","neg","CS","CS","2","category2/CS9.png","targets/40.png","","direct","","34"
"","image-slider-response","311","688750","0.0-12.0-0.27","dekgjrbh10","many_one","0","indirect_first","0","er05an30","0","24","1","1","3","2","","0","1","0","4639.500000048429","","","","","pos","GS","GSnew","3","category3/GS2.png","targets/19.png","","direct","","33"
"","image-slider-response","312","693070","0.0-12.0-0.28","dekgjrbh10","many_one","0","indirect_first","0","er05an30","0","24","1","1","3","2","","0","1","0","4315.874999971129","","","","","pos","GS","GSnew","1","category1/GS3.png","targets/38.png","","direct","","6"
"","image-slider-response","313","700356","0.0-12.0-0.29","dekgjrbh10","many_one","0","indirect_first","0","er05an30","0","24","1","1","3","2","","0","1","0","7282.740000053309","","","","","neg","GS","GSold","4","category4/CS8.png","targets/5.png","","direct","","12"
"","image-slider-response","314","704045","0.0-12.0-0.30","dekgjrbh10","many_one","0","indirect_first","0","er05an30","0","24","1","1","3","2","","0","1","0","3686.3049999810755","","","","","pos","GS","GSold","3","category3/CS9.png","targets/11.png","","direct","","58"
"","image-slider-response","315","707350","0.0-12.0-0.31","dekgjrbh10","many_one","0","indirect_first","0","er05an30","0","24","1","1","3","2","","0","1","0","3302.5500000221655","","","","","pos","GS","GSnew","3","category3/GS1.png","targets/15.png","","direct","","9"
"","image-slider-response","316","712879","0.0-12.0-0.32","dekgjrbh10","many_one","0","indirect_first","0","er05an30","0","24","1","1","3","2","","0","1","0","5528.015000047162","","","","","pos","CS","CS","1","category1/CS1.png","targets/30.png","","direct","","-26"
"","image-slider-response","317","716147","0.0-12.0-0.33","dekgjrbh10","many_one","0","indirect_first","0","er05an30","0","24","1","1","3","2","","0","1","0","3265.6349999597296","","","","","neg","GS","GSnew","4","category4/GS2.png","targets/10.png","","direct","","-57"
"","image-slider-response","318","719626","0.0-12.0-0.34","dekgjrbh10","many_one","0","indirect_first","0","er05an30","0","24","1","1","3","2","","0","1","0","3477.4550000438467","","","","","neg","GS","GSold","4","category4/CS3.png","targets/16.png","","direct","","-28"
"","image-slider-response","319","723612","0.0-12.0-0.35","dekgjrbh10","many_one","0","indirect_first","0","er05an30","0","24","1","1","3","2","","0","1","0","3982.9299999400973","","","","","neg","GS","GSnew","2","category2/GS2.png","targets/21.png","","direct","","-54"
"","image-slider-response","320","727202","0.0-12.0-0.36","dekgjrbh10","many_one","0","indirect_first","0","er05an30","0","24","1","1","3","2","","0","1","0","3587.2299999464303","","","","","pos","GS","abstract","1","category1/ma.png","targets/34.png","","direct","","-62"
"","image-slider-response","321","730706","0.0-12.0-0.37","dekgjrbh10","many_one","0","indirect_first","0","er05an30","0","24","1","1","3","2","","0","1","0","3500.9700000518933","","","","","pos","GS","GSold","3","category3/CS6.png","targets/31.png","","direct","","48"
"","image-slider-response","322","736579","0.0-12.0-0.38","dekgjrbh10","many_one","0","indirect_first","0","er05an30","0","24","1","1","3","2","","0","1","0","5871.169999940321","","","","","pos","GS","GSnew","1","category1/GS2.png","targets/36.png","","direct","","-1"
"","image-slider-response","323","740219","0.0-12.0-0.39","dekgjrbh10","many_one","0","indirect_first","0","er05an30","0","24","1","1","3","2","","0","1","0","3637.8699999768287","","","","","pos","CS","CS","3","category3/CS8.png","targets/43.png","","direct","","89"
"","image-slider-response","324","747643","0.0-12.0-0.40","dekgjrbh10","many_one","0","indirect_first","0","er05an30","0","24","1","1","3","2","","0","1","0","7422.195000108331","","","","","neg","GS","abstract","4","category4/lin.png","targets/18.png","","direct","","2"
