"success","trial_type","trial_index","time_elapsed","internal_node_id","subject","condition","condition_code","measure","measure_code","codeword","gender","age","education","chinese","fach","handedness","comment","hinschauen","ablenkung","gewissenhaft","rt","url","responses","stimulus","key_press","val","type","type_specific","category","cs_selected","target","indirect","task","nr_pres","response"
"true","fullscreen","0","4815","0.0-0.0","0m0jrs2srj","many_one","0","indirect_first","0","er06rd03","0","23","1","1","3","1","","0","1","0","","","","","","","","","","","","","","",""
"","external-html","1","32109","0.0-1.0","0m0jrs2srj","many_one","0","indirect_first","0","er06rd03","0","23","1","1","3","1","","0","1","0","27077","text/information.html","","","","","","","","","","","","",""
"","external-html","2","41575","0.0-2.0","0m0jrs2srj","many_one","0","indirect_first","0","er06rd03","0","23","1","1","3","1","","0","1","0","9340","text/consent.html","","","","","","","","","","","","",""
"","survey-html-form","3","78543","0.0-3.0","0m0jrs2srj","many_one","0","indirect_first","0","er06rd03","0","23","1","1","3","1","","0","1","0","36959","","{""codeword_enter"":""er06rd03""}","","","","","","","","","","","",""
"","survey-html-form","4","97288","0.0-4.0","0m0jrs2srj","many_one","0","indirect_first","0","er06rd03","0","23","1","1","3","1","","0","1","0","18739","","{""age"":""23"",""education"":""1"",""subject"":""3"",""gender"":""0"",""handedness"":""1"",""chinese"":""1""}","","","","","","","","","","","",""
"","survey-html-form","5","109791","0.0-5.0","0m0jrs2srj","many_one","0","indirect_first","0","er06rd03","0","23","1","1","3","1","","0","1","0","12500","","{}","","","","","","","","","","","",""
"","html-keyboard-response","6","113814","0.0-6.0-0.0-0.0","0m0jrs2srj","many_one","0","indirect_first","0","er06rd03","0","23","1","1","3","1","","0","1","0","null","","","<div class = 'row'><div class = 'column'><img src = 'usneg/2750.bmp' width = '100%;'></div><div class = 'column'><img src = 'category1/CS6.png' width = '70%;'></div></div>","null","neg","CS","CS","1","category1/CS6.png","","","","",""
"","html-keyboard-response","7","116323","0.0-6.0-0.0-0.1","0m0jrs2srj","many_one","0","indirect_first","0","er06rd03","0","23","1","1","3","1","","0","1","0","null","","","<div class = 'row'><div class = 'column'><img src = 'category2/CS1.png' width = '70%;'></div><div class = 'column'><img src = 'uspos/8350.bmp' width = '100%;'></div></div>","null","pos","CS","CS","2","category2/CS1.png","","","","",""
"","html-keyboard-response","8","118845","0.0-6.0-0.0-0.2","0m0jrs2srj","many_one","0","indirect_first","0","er06rd03","0","23","1","1","3","1","","0","1","0","null","","","<div class = 'row'><div class = 'column'><img src = 'usneg/9180.bmp' width = '100%;'></div><div class = 'column'><img src = 'category3/CS10.png' width = '70%;'></div></div>","null","neg","CS","CS","3","category3/CS10.png","","","","",""
"","html-keyboard-response","9","121360","0.0-6.0-0.0-0.3","0m0jrs2srj","many_one","0","indirect_first","0","er06rd03","0","23","1","1","3","1","","0","1","0","null","","","<div class = 'row'><div class = 'column'><img src = 'usneg/1280.bmp' width = '100%;'></div><div class = 'column'><img src = 'category3/CS8.png' width = '70%;'></div></div>","null","neg","CS","CS","3","category3/CS8.png","","","","",""
"","html-keyboard-response","10","123876","0.0-6.0-0.0-0.4","0m0jrs2srj","many_one","0","indirect_first","0","er06rd03","0","23","1","1","3","1","","0","1","0","null","","","<div class = 'row'><div class = 'column'><img src = 'category2/CS3.png' width = '70%;'></div><div class = 'column'><img src = 'uspos/1710.bmp' width = '100%;'></div></div>","null","pos","CS","CS","2","category2/CS3.png","","","","",""
"","html-keyboard-response","11","126395","0.0-6.0-0.0-0.5","0m0jrs2srj","many_one","0","indirect_first","0","er06rd03","0","23","1","1","3","1","","0","1","0","null","","","<div class = 'row'><div class = 'column'><img src = 'category1/CS8.png' width = '70%;'></div><div class = 'column'><img src = 'usneg/9584.bmp' width = '100%;'></div></div>","null","neg","CS","CS","1","category1/CS8.png","","","","",""
"","html-keyboard-response","12","128914","0.0-6.0-0.0-0.6","0m0jrs2srj","many_one","0","indirect_first","0","er06rd03","0","23","1","1","3","1","","0","1","0","null","","","<div class = 'row'><div class = 'column'><img src = 'category4/CS4.png' width = '70%;'></div><div class = 'column'><img src = 'uspos/4599.bmp' width = '100%;'></div></div>","null","pos","CS","CS","4","category4/CS4.png","","","","",""
"","html-keyboard-response","13","131431","0.0-6.0-0.0-0.7","0m0jrs2srj","many_one","0","indirect_first","0","er06rd03","0","23","1","1","3","1","","0","1","0","null","","","<div class = 'row'><div class = 'column'><img src = 'usneg/9435.bmp' width = '100%;'></div><div class = 'column'><img src = 'category3/CS3.png' width = '70%;'></div></div>","null","neg","CS","CS","3","category3/CS3.png","","","","",""
"","html-keyboard-response","14","133956","0.0-6.0-0.0-0.8","0m0jrs2srj","many_one","0","indirect_first","0","er06rd03","0","23","1","1","3","1","","0","1","0","null","","","<div class = 'row'><div class = 'column'><img src = 'usneg/6838.bmp' width = '100%;'></div><div class = 'column'><img src = 'category1/CS5.png' width = '70%;'></div></div>","null","neg","CS","CS","1","category1/CS5.png","","","","",""
"","html-keyboard-response","15","136479","0.0-6.0-0.0-0.9","0m0jrs2srj","many_one","0","indirect_first","0","er06rd03","0","23","1","1","3","1","","0","1","0","null","","","<div class = 'row'><div class = 'column'><img src = 'category3/CS1.png' width = '70%;'></div><div class = 'column'><img src = 'usneg/8485.bmp' width = '100%;'></div></div>","null","neg","CS","CS","3","category3/CS1.png","","","","",""
"","html-keyboard-response","16","139005","0.0-6.0-0.0-0.10","0m0jrs2srj","many_one","0","indirect_first","0","er06rd03","0","23","1","1","3","1","","0","1","0","null","","","<div class = 'row'><div class = 'column'><img src = 'category4/CS8.png' width = '70%;'></div><div class = 'column'><img src = 'uspos/5830.bmp' width = '100%;'></div></div>","null","pos","CS","CS","4","category4/CS8.png","","","","",""
"","html-keyboard-response","17","141513","0.0-6.0-0.0-0.11","0m0jrs2srj","many_one","0","indirect_first","0","er06rd03","0","23","1","1","3","1","","0","1","0","null","","","<div class = 'row'><div class = 'column'><img src = 'uspos/8190.bmp' width = '100%;'></div><div class = 'column'><img src = 'category2/CS8.png' width = '70%;'></div></div>","null","pos","CS","CS","2","category2/CS8.png","","","","",""
"","html-keyboard-response","18","144028","0.0-6.0-0.0-0.12","0m0jrs2srj","many_one","0","indirect_first","0","er06rd03","0","23","1","1","3","1","","0","1","0","null","","","<div class = 'row'><div class = 'column'><img src = 'uspos/2165.bmp' width = '100%;'></div><div class = 'column'><img src = 'category4/CS3.png' width = '70%;'></div></div>","null","pos","CS","CS","4","category4/CS3.png","","","","",""
"","html-keyboard-response","19","146552","0.0-6.0-0.0-0.13","0m0jrs2srj","many_one","0","indirect_first","0","er06rd03","0","23","1","1","3","1","","0","1","0","null","","","<div class = 'row'><div class = 'column'><img src = 'uspos/2341.bmp' width = '100%;'></div><div class = 'column'><img src = 'category4/CS2.png' width = '70%;'></div></div>","null","pos","CS","CS","4","category4/CS2.png","","","","",""
"","html-keyboard-response","20","149059","0.0-6.0-0.0-0.14","0m0jrs2srj","many_one","0","indirect_first","0","er06rd03","0","23","1","1","3","1","","0","1","0","null","","","<div class = 'row'><div class = 'column'><img src = 'category1/CS2.png' width = '70%;'></div><div class = 'column'><img src = 'usneg/6020.bmp' width = '100%;'></div></div>","null","neg","CS","CS","1","category1/CS2.png","","","","",""
"","html-keyboard-response","21","151572","0.0-6.0-0.0-0.15","0m0jrs2srj","many_one","0","indirect_first","0","er06rd03","0","23","1","1","3","1","","0","1","0","null","","","<div class = 'row'><div class = 'column'><img src = 'category3/CS2.png' width = '70%;'></div><div class = 'column'><img src = 'usneg/9000.bmp' width = '100%;'></div></div>","null","neg","CS","CS","3","category3/CS2.png","","","","",""
"","html-keyboard-response","22","154090","0.0-6.0-0.0-0.16","0m0jrs2srj","many_one","0","indirect_first","0","er06rd03","0","23","1","1","3","1","","0","1","0","null","","","<div class = 'row'><div class = 'column'><img src = 'uspos/2208.bmp' width = '100%;'></div><div class = 'column'><img src = 'category2/CS10.png' width = '70%;'></div></div>","null","pos","CS","CS","2","category2/CS10.png","","","","",""
"","html-keyboard-response","23","156610","0.0-6.0-0.0-0.17","0m0jrs2srj","many_one","0","indirect_first","0","er06rd03","0","23","1","1","3","1","","0","1","0","null","","","<div class = 'row'><div class = 'column'><img src = 'category4/CS9.png' width = '70%;'></div><div class = 'column'><img src = 'uspos/8540.bmp' width = '100%;'></div></div>","null","pos","CS","CS","4","category4/CS9.png","","","","",""
"","html-keyboard-response","24","159123","0.0-6.0-0.0-0.18","0m0jrs2srj","many_one","0","indirect_first","0","er06rd03","0","23","1","1","3","1","","0","1","0","null","","","<div class = 'row'><div class = 'column'><img src = 'category1/CS7.png' width = '70%;'></div><div class = 'column'><img src = 'usneg/2205.bmp' width = '100%;'></div></div>","null","neg","CS","CS","1","category1/CS7.png","","","","",""
"","html-keyboard-response","25","161639","0.0-6.0-0.0-0.19","0m0jrs2srj","many_one","0","indirect_first","0","er06rd03","0","23","1","1","3","1","","0","1","0","null","","","<div class = 'row'><div class = 'column'><img src = 'uspos/5600.bmp' width = '100%;'></div><div class = 'column'><img src = 'category2/CS5.png' width = '70%;'></div></div>","null","pos","CS","CS","2","category2/CS5.png","","","","",""
"","survey-html-form","26","164939","0.0-6.0-1.0","0m0jrs2srj","many_one","0","indirect_first","0","er06rd03","0","23","1","1","3","1","","0","1","0","2787","","{}","","","","","","","","","","","",""
"","html-keyboard-response","27","168953","0.0-6.0-2.0-0.0","0m0jrs2srj","many_one","0","indirect_first","0","er06rd03","0","23","1","1","3","1","","0","1","0","null","","","<div class = 'row'><div class = 'column'><img src = 'category4/CS9.png' width = '70%;'></div><div class = 'column'><img src = 'uspos/8540.bmp' width = '100%;'></div></div>","null","pos","CS","CS","4","category4/CS9.png","","","","",""
"","html-keyboard-response","28","171465","0.0-6.0-2.0-0.1","0m0jrs2srj","many_one","0","indirect_first","0","er06rd03","0","23","1","1","3","1","","0","1","0","null","","","<div class = 'row'><div class = 'column'><img src = 'category1/CS6.png' width = '70%;'></div><div class = 'column'><img src = 'usneg/2750.bmp' width = '100%;'></div></div>","null","neg","CS","CS","1","category1/CS6.png","","","","",""
"","html-keyboard-response","29","173983","0.0-6.0-2.0-0.2","0m0jrs2srj","many_one","0","indirect_first","0","er06rd03","0","23","1","1","3","1","","0","1","0","null","","","<div class = 'row'><div class = 'column'><img src = 'uspos/4599.bmp' width = '100%;'></div><div class = 'column'><img src = 'category4/CS4.png' width = '70%;'></div></div>","null","pos","CS","CS","4","category4/CS4.png","","","","",""
"","html-keyboard-response","30","176503","0.0-6.0-2.0-0.3","0m0jrs2srj","many_one","0","indirect_first","0","er06rd03","0","23","1","1","3","1","","0","1","0","null","","","<div class = 'row'><div class = 'column'><img src = 'category3/CS3.png' width = '70%;'></div><div class = 'column'><img src = 'usneg/9435.bmp' width = '100%;'></div></div>","null","neg","CS","CS","3","category3/CS3.png","","","","",""
"","html-keyboard-response","31","179021","0.0-6.0-2.0-0.4","0m0jrs2srj","many_one","0","indirect_first","0","er06rd03","0","23","1","1","3","1","","0","1","0","null","","","<div class = 'row'><div class = 'column'><img src = 'category1/CS7.png' width = '70%;'></div><div class = 'column'><img src = 'usneg/2205.bmp' width = '100%;'></div></div>","null","neg","CS","CS","1","category1/CS7.png","","","","",""
"","html-keyboard-response","32","181533","0.0-6.0-2.0-0.5","0m0jrs2srj","many_one","0","indirect_first","0","er06rd03","0","23","1","1","3","1","","0","1","0","null","","","<div class = 'row'><div class = 'column'><img src = 'category2/CS5.png' width = '70%;'></div><div class = 'column'><img src = 'uspos/5600.bmp' width = '100%;'></div></div>","null","pos","CS","CS","2","category2/CS5.png","","","","",""
"","html-keyboard-response","33","184055","0.0-6.0-2.0-0.6","0m0jrs2srj","many_one","0","indirect_first","0","er06rd03","0","23","1","1","3","1","","0","1","0","null","","","<div class = 'row'><div class = 'column'><img src = 'usneg/9584.bmp' width = '100%;'></div><div class = 'column'><img src = 'category1/CS8.png' width = '70%;'></div></div>","null","neg","CS","CS","1","category1/CS8.png","","","","",""
"","html-keyboard-response","34","186573","0.0-6.0-2.0-0.7","0m0jrs2srj","many_one","0","indirect_first","0","er06rd03","0","23","1","1","3","1","","0","1","0","null","","","<div class = 'row'><div class = 'column'><img src = 'category2/CS1.png' width = '70%;'></div><div class = 'column'><img src = 'uspos/8350.bmp' width = '100%;'></div></div>","null","pos","CS","CS","2","category2/CS1.png","","","","",""
"","html-keyboard-response","35","189093","0.0-6.0-2.0-0.8","0m0jrs2srj","many_one","0","indirect_first","0","er06rd03","0","23","1","1","3","1","","0","1","0","null","","","<div class = 'row'><div class = 'column'><img src = 'category3/CS1.png' width = '70%;'></div><div class = 'column'><img src = 'usneg/8485.bmp' width = '100%;'></div></div>","null","neg","CS","CS","3","category3/CS1.png","","","","",""
"","html-keyboard-response","36","191612","0.0-6.0-2.0-0.9","0m0jrs2srj","many_one","0","indirect_first","0","er06rd03","0","23","1","1","3","1","","0","1","0","null","","","<div class = 'row'><div class = 'column'><img src = 'category4/CS3.png' width = '70%;'></div><div class = 'column'><img src = 'uspos/2165.bmp' width = '100%;'></div></div>","null","pos","CS","CS","4","category4/CS3.png","","","","",""
"","html-keyboard-response","37","194128","0.0-6.0-2.0-0.10","0m0jrs2srj","many_one","0","indirect_first","0","er06rd03","0","23","1","1","3","1","","0","1","0","null","","","<div class = 'row'><div class = 'column'><img src = 'category1/CS5.png' width = '70%;'></div><div class = 'column'><img src = 'usneg/6838.bmp' width = '100%;'></div></div>","null","neg","CS","CS","1","category1/CS5.png","","","","",""
"","html-keyboard-response","38","196637","0.0-6.0-2.0-0.11","0m0jrs2srj","many_one","0","indirect_first","0","er06rd03","0","23","1","1","3","1","","0","1","0","null","","","<div class = 'row'><div class = 'column'><img src = 'usneg/6020.bmp' width = '100%;'></div><div class = 'column'><img src = 'category1/CS2.png' width = '70%;'></div></div>","null","neg","CS","CS","1","category1/CS2.png","","","","",""
"","html-keyboard-response","39","199164","0.0-6.0-2.0-0.12","0m0jrs2srj","many_one","0","indirect_first","0","er06rd03","0","23","1","1","3","1","","0","1","0","null","","","<div class = 'row'><div class = 'column'><img src = 'category2/CS10.png' width = '70%;'></div><div class = 'column'><img src = 'uspos/2208.bmp' width = '100%;'></div></div>","null","pos","CS","CS","2","category2/CS10.png","","","","",""
"","html-keyboard-response","40","201678","0.0-6.0-2.0-0.13","0m0jrs2srj","many_one","0","indirect_first","0","er06rd03","0","23","1","1","3","1","","0","1","0","null","","","<div class = 'row'><div class = 'column'><img src = 'usneg/9180.bmp' width = '100%;'></div><div class = 'column'><img src = 'category3/CS10.png' width = '70%;'></div></div>","null","neg","CS","CS","3","category3/CS10.png","","","","",""
"","html-keyboard-response","41","204196","0.0-6.0-2.0-0.14","0m0jrs2srj","many_one","0","indirect_first","0","er06rd03","0","23","1","1","3","1","","0","1","0","null","","","<div class = 'row'><div class = 'column'><img src = 'usneg/9000.bmp' width = '100%;'></div><div class = 'column'><img src = 'category3/CS2.png' width = '70%;'></div></div>","null","neg","CS","CS","3","category3/CS2.png","","","","",""
"","html-keyboard-response","42","206717","0.0-6.0-2.0-0.15","0m0jrs2srj","many_one","0","indirect_first","0","er06rd03","0","23","1","1","3","1","","0","1","0","null","","","<div class = 'row'><div class = 'column'><img src = 'uspos/5830.bmp' width = '100%;'></div><div class = 'column'><img src = 'category4/CS8.png' width = '70%;'></div></div>","null","pos","CS","CS","4","category4/CS8.png","","","","",""
"","html-keyboard-response","43","209231","0.0-6.0-2.0-0.16","0m0jrs2srj","many_one","0","indirect_first","0","er06rd03","0","23","1","1","3","1","","0","1","0","null","","","<div class = 'row'><div class = 'column'><img src = 'category2/CS8.png' width = '70%;'></div><div class = 'column'><img src = 'uspos/8190.bmp' width = '100%;'></div></div>","null","pos","CS","CS","2","category2/CS8.png","","","","",""
"","html-keyboard-response","44","211754","0.0-6.0-2.0-0.17","0m0jrs2srj","many_one","0","indirect_first","0","er06rd03","0","23","1","1","3","1","","0","1","0","null","","","<div class = 'row'><div class = 'column'><img src = 'uspos/1710.bmp' width = '100%;'></div><div class = 'column'><img src = 'category2/CS3.png' width = '70%;'></div></div>","null","pos","CS","CS","2","category2/CS3.png","","","","",""
"","html-keyboard-response","45","214274","0.0-6.0-2.0-0.18","0m0jrs2srj","many_one","0","indirect_first","0","er06rd03","0","23","1","1","3","1","","0","1","0","null","","","<div class = 'row'><div class = 'column'><img src = 'category3/CS8.png' width = '70%;'></div><div class = 'column'><img src = 'usneg/1280.bmp' width = '100%;'></div></div>","null","neg","CS","CS","3","category3/CS8.png","","","","",""
"","html-keyboard-response","46","216794","0.0-6.0-2.0-0.19","0m0jrs2srj","many_one","0","indirect_first","0","er06rd03","0","23","1","1","3","1","","0","1","0","null","","","<div class = 'row'><div class = 'column'><img src = 'category4/CS2.png' width = '70%;'></div><div class = 'column'><img src = 'uspos/2341.bmp' width = '100%;'></div></div>","null","pos","CS","CS","4","category4/CS2.png","","","","",""
"","survey-html-form","47","219638","0.0-6.0-3.0","0m0jrs2srj","many_one","0","indirect_first","0","er06rd03","0","23","1","1","3","1","","0","1","0","2325","","{}","","","","","","","","","","","",""
"","html-keyboard-response","48","223662","0.0-6.0-4.0-0.0","0m0jrs2srj","many_one","0","indirect_first","0","er06rd03","0","23","1","1","3","1","","0","1","0","null","","","<div class = 'row'><div class = 'column'><img src = 'usneg/9584.bmp' width = '100%;'></div><div class = 'column'><img src = 'category1/CS8.png' width = '70%;'></div></div>","null","neg","CS","CS","1","category1/CS8.png","","","","",""
"","html-keyboard-response","49","226175","0.0-6.0-4.0-0.1","0m0jrs2srj","many_one","0","indirect_first","0","er06rd03","0","23","1","1","3","1","","0","1","0","null","","","<div class = 'row'><div class = 'column'><img src = 'uspos/2165.bmp' width = '100%;'></div><div class = 'column'><img src = 'category4/CS3.png' width = '70%;'></div></div>","null","pos","CS","CS","4","category4/CS3.png","","","","",""
"","html-keyboard-response","50","228690","0.0-6.0-4.0-0.2","0m0jrs2srj","many_one","0","indirect_first","0","er06rd03","0","23","1","1","3","1","","0","1","0","null","","","<div class = 'row'><div class = 'column'><img src = 'category3/CS10.png' width = '70%;'></div><div class = 'column'><img src = 'usneg/9180.bmp' width = '100%;'></div></div>","null","neg","CS","CS","3","category3/CS10.png","","","","",""
"","html-keyboard-response","51","231214","0.0-6.0-4.0-0.3","0m0jrs2srj","many_one","0","indirect_first","0","er06rd03","0","23","1","1","3","1","","0","1","0","null","","","<div class = 'row'><div class = 'column'><img src = 'category2/CS5.png' width = '70%;'></div><div class = 'column'><img src = 'uspos/5600.bmp' width = '100%;'></div></div>","null","pos","CS","CS","2","category2/CS5.png","","","","",""
"","html-keyboard-response","52","233720","0.0-6.0-4.0-0.4","0m0jrs2srj","many_one","0","indirect_first","0","er06rd03","0","23","1","1","3","1","","0","1","0","null","","","<div class = 'row'><div class = 'column'><img src = 'category3/CS8.png' width = '70%;'></div><div class = 'column'><img src = 'usneg/1280.bmp' width = '100%;'></div></div>","null","neg","CS","CS","3","category3/CS8.png","","","","",""
"","html-keyboard-response","53","236234","0.0-6.0-4.0-0.5","0m0jrs2srj","many_one","0","indirect_first","0","er06rd03","0","23","1","1","3","1","","0","1","0","null","","","<div class = 'row'><div class = 'column'><img src = 'usneg/9435.bmp' width = '100%;'></div><div class = 'column'><img src = 'category3/CS3.png' width = '70%;'></div></div>","null","neg","CS","CS","3","category3/CS3.png","","","","",""
"","html-keyboard-response","54","238749","0.0-6.0-4.0-0.6","0m0jrs2srj","many_one","0","indirect_first","0","er06rd03","0","23","1","1","3","1","","0","1","0","null","","","<div class = 'row'><div class = 'column'><img src = 'uspos/2341.bmp' width = '100%;'></div><div class = 'column'><img src = 'category4/CS2.png' width = '70%;'></div></div>","null","pos","CS","CS","4","category4/CS2.png","","","","",""
"","html-keyboard-response","55","241268","0.0-6.0-4.0-0.7","0m0jrs2srj","many_one","0","indirect_first","0","er06rd03","0","23","1","1","3","1","","0","1","0","null","","","<div class = 'row'><div class = 'column'><img src = 'uspos/8350.bmp' width = '100%;'></div><div class = 'column'><img src = 'category2/CS1.png' width = '70%;'></div></div>","null","pos","CS","CS","2","category2/CS1.png","","","","",""
"","html-keyboard-response","56","243785","0.0-6.0-4.0-0.8","0m0jrs2srj","many_one","0","indirect_first","0","er06rd03","0","23","1","1","3","1","","0","1","0","null","","","<div class = 'row'><div class = 'column'><img src = 'category4/CS4.png' width = '70%;'></div><div class = 'column'><img src = 'uspos/4599.bmp' width = '100%;'></div></div>","null","pos","CS","CS","4","category4/CS4.png","","","","",""
"","html-keyboard-response","57","246296","0.0-6.0-4.0-0.9","0m0jrs2srj","many_one","0","indirect_first","0","er06rd03","0","23","1","1","3","1","","0","1","0","null","","","<div class = 'row'><div class = 'column'><img src = 'usneg/2750.bmp' width = '100%;'></div><div class = 'column'><img src = 'category1/CS6.png' width = '70%;'></div></div>","null","neg","CS","CS","1","category1/CS6.png","","","","",""
"","html-keyboard-response","58","248820","0.0-6.0-4.0-0.10","0m0jrs2srj","many_one","0","indirect_first","0","er06rd03","0","23","1","1","3","1","","0","1","0","null","","","<div class = 'row'><div class = 'column'><img src = 'category4/CS8.png' width = '70%;'></div><div class = 'column'><img src = 'uspos/5830.bmp' width = '100%;'></div></div>","null","pos","CS","CS","4","category4/CS8.png","","","","",""
"","html-keyboard-response","59","251340","0.0-6.0-4.0-0.11","0m0jrs2srj","many_one","0","indirect_first","0","er06rd03","0","23","1","1","3","1","","0","1","0","null","","","<div class = 'row'><div class = 'column'><img src = 'uspos/8190.bmp' width = '100%;'></div><div class = 'column'><img src = 'category2/CS8.png' width = '70%;'></div></div>","null","pos","CS","CS","2","category2/CS8.png","","","","",""
"","html-keyboard-response","60","253859","0.0-6.0-4.0-0.12","0m0jrs2srj","many_one","0","indirect_first","0","er06rd03","0","23","1","1","3","1","","0","1","0","null","","","<div class = 'row'><div class = 'column'><img src = 'category4/CS9.png' width = '70%;'></div><div class = 'column'><img src = 'uspos/8540.bmp' width = '100%;'></div></div>","null","pos","CS","CS","4","category4/CS9.png","","","","",""
"","html-keyboard-response","61","256378","0.0-6.0-4.0-0.13","0m0jrs2srj","many_one","0","indirect_first","0","er06rd03","0","23","1","1","3","1","","0","1","0","null","","","<div class = 'row'><div class = 'column'><img src = 'category2/CS10.png' width = '70%;'></div><div class = 'column'><img src = 'uspos/2208.bmp' width = '100%;'></div></div>","null","pos","CS","CS","2","category2/CS10.png","","","","",""
"","html-keyboard-response","62","258891","0.0-6.0-4.0-0.14","0m0jrs2srj","many_one","0","indirect_first","0","er06rd03","0","23","1","1","3","1","","0","1","0","null","","","<div class = 'row'><div class = 'column'><img src = 'category3/CS2.png' width = '70%;'></div><div class = 'column'><img src = 'usneg/9000.bmp' width = '100%;'></div></div>","null","neg","CS","CS","3","category3/CS2.png","","","","",""
"","html-keyboard-response","63","261404","0.0-6.0-4.0-0.15","0m0jrs2srj","many_one","0","indirect_first","0","er06rd03","0","23","1","1","3","1","","0","1","0","null","","","<div class = 'row'><div class = 'column'><img src = 'category1/CS2.png' width = '70%;'></div><div class = 'column'><img src = 'usneg/6020.bmp' width = '100%;'></div></div>","null","neg","CS","CS","1","category1/CS2.png","","","","",""
"","html-keyboard-response","64","263923","0.0-6.0-4.0-0.16","0m0jrs2srj","many_one","0","indirect_first","0","er06rd03","0","23","1","1","3","1","","0","1","0","null","","","<div class = 'row'><div class = 'column'><img src = 'category3/CS1.png' width = '70%;'></div><div class = 'column'><img src = 'usneg/8485.bmp' width = '100%;'></div></div>","null","neg","CS","CS","3","category3/CS1.png","","","","",""
"","html-keyboard-response","65","266450","0.0-6.0-4.0-0.17","0m0jrs2srj","many_one","0","indirect_first","0","er06rd03","0","23","1","1","3","1","","0","1","0","null","","","<div class = 'row'><div class = 'column'><img src = 'category2/CS3.png' width = '70%;'></div><div class = 'column'><img src = 'uspos/1710.bmp' width = '100%;'></div></div>","null","pos","CS","CS","2","category2/CS3.png","","","","",""
"","html-keyboard-response","66","268959","0.0-6.0-4.0-0.18","0m0jrs2srj","many_one","0","indirect_first","0","er06rd03","0","23","1","1","3","1","","0","1","0","null","","","<div class = 'row'><div class = 'column'><img src = 'category1/CS7.png' width = '70%;'></div><div class = 'column'><img src = 'usneg/2205.bmp' width = '100%;'></div></div>","null","neg","CS","CS","1","category1/CS7.png","","","","",""
"","html-keyboard-response","67","271470","0.0-6.0-4.0-0.19","0m0jrs2srj","many_one","0","indirect_first","0","er06rd03","0","23","1","1","3","1","","0","1","0","null","","","<div class = 'row'><div class = 'column'><img src = 'category1/CS5.png' width = '70%;'></div><div class = 'column'><img src = 'usneg/6838.bmp' width = '100%;'></div></div>","null","neg","CS","CS","1","category1/CS5.png","","","","",""
"","survey-html-form","68","273657","0.0-6.0-5.0","0m0jrs2srj","many_one","0","indirect_first","0","er06rd03","0","23","1","1","3","1","","0","1","0","1674","","{}","","","","","","","","","","","",""
"","html-keyboard-response","69","277675","0.0-6.0-6.0-0.0","0m0jrs2srj","many_one","0","indirect_first","0","er06rd03","0","23","1","1","3","1","","0","1","0","null","","","<div class = 'row'><div class = 'column'><img src = 'usneg/2750.bmp' width = '100%;'></div><div class = 'column'><img src = 'category1/CS6.png' width = '70%;'></div></div>","null","neg","CS","CS","1","category1/CS6.png","","","","",""
"","html-keyboard-response","70","280195","0.0-6.0-6.0-0.1","0m0jrs2srj","many_one","0","indirect_first","0","er06rd03","0","23","1","1","3","1","","0","1","0","null","","","<div class = 'row'><div class = 'column'><img src = 'category2/CS8.png' width = '70%;'></div><div class = 'column'><img src = 'uspos/8190.bmp' width = '100%;'></div></div>","null","pos","CS","CS","2","category2/CS8.png","","","","",""
"","html-keyboard-response","71","282701","0.0-6.0-6.0-0.2","0m0jrs2srj","many_one","0","indirect_first","0","er06rd03","0","23","1","1","3","1","","0","1","0","null","","","<div class = 'row'><div class = 'column'><img src = 'uspos/2208.bmp' width = '100%;'></div><div class = 'column'><img src = 'category2/CS10.png' width = '70%;'></div></div>","null","pos","CS","CS","2","category2/CS10.png","","","","",""
"","html-keyboard-response","72","285214","0.0-6.0-6.0-0.3","0m0jrs2srj","many_one","0","indirect_first","0","er06rd03","0","23","1","1","3","1","","0","1","0","null","","","<div class = 'row'><div class = 'column'><img src = 'category1/CS8.png' width = '70%;'></div><div class = 'column'><img src = 'usneg/9584.bmp' width = '100%;'></div></div>","null","neg","CS","CS","1","category1/CS8.png","","","","",""
"","html-keyboard-response","73","287732","0.0-6.0-6.0-0.4","0m0jrs2srj","many_one","0","indirect_first","0","er06rd03","0","23","1","1","3","1","","0","1","0","null","","","<div class = 'row'><div class = 'column'><img src = 'uspos/4599.bmp' width = '100%;'></div><div class = 'column'><img src = 'category4/CS4.png' width = '70%;'></div></div>","null","pos","CS","CS","4","category4/CS4.png","","","","",""
"","html-keyboard-response","74","290270","0.0-6.0-6.0-0.5","0m0jrs2srj","many_one","0","indirect_first","0","er06rd03","0","23","1","1","3","1","","0","1","0","null","","","<div class = 'row'><div class = 'column'><img src = 'usneg/9435.bmp' width = '100%;'></div><div class = 'column'><img src = 'category3/CS3.png' width = '70%;'></div></div>","null","neg","CS","CS","3","category3/CS3.png","","","","",""
"","html-keyboard-response","75","292784","0.0-6.0-6.0-0.6","0m0jrs2srj","many_one","0","indirect_first","0","er06rd03","0","23","1","1","3","1","","0","1","0","null","","","<div class = 'row'><div class = 'column'><img src = 'category1/CS2.png' width = '70%;'></div><div class = 'column'><img src = 'usneg/6020.bmp' width = '100%;'></div></div>","null","neg","CS","CS","1","category1/CS2.png","","","","",""
"","html-keyboard-response","76","295296","0.0-6.0-6.0-0.7","0m0jrs2srj","many_one","0","indirect_first","0","er06rd03","0","23","1","1","3","1","","0","1","0","null","","","<div class = 'row'><div class = 'column'><img src = 'uspos/8540.bmp' width = '100%;'></div><div class = 'column'><img src = 'category4/CS9.png' width = '70%;'></div></div>","null","pos","CS","CS","4","category4/CS9.png","","","","",""
"","html-keyboard-response","77","297817","0.0-6.0-6.0-0.8","0m0jrs2srj","many_one","0","indirect_first","0","er06rd03","0","23","1","1","3","1","","0","1","0","null","","","<div class = 'row'><div class = 'column'><img src = 'category2/CS3.png' width = '70%;'></div><div class = 'column'><img src = 'uspos/1710.bmp' width = '100%;'></div></div>","null","pos","CS","CS","2","category2/CS3.png","","","","",""
"","html-keyboard-response","78","300325","0.0-6.0-6.0-0.9","0m0jrs2srj","many_one","0","indirect_first","0","er06rd03","0","23","1","1","3","1","","0","1","0","null","","","<div class = 'row'><div class = 'column'><img src = 'category3/CS1.png' width = '70%;'></div><div class = 'column'><img src = 'usneg/8485.bmp' width = '100%;'></div></div>","null","neg","CS","CS","3","category3/CS1.png","","","","",""
"","html-keyboard-response","79","302848","0.0-6.0-6.0-0.10","0m0jrs2srj","many_one","0","indirect_first","0","er06rd03","0","23","1","1","3","1","","0","1","0","null","","","<div class = 'row'><div class = 'column'><img src = 'uspos/5600.bmp' width = '100%;'></div><div class = 'column'><img src = 'category2/CS5.png' width = '70%;'></div></div>","null","pos","CS","CS","2","category2/CS5.png","","","","",""
"","html-keyboard-response","80","305369","0.0-6.0-6.0-0.11","0m0jrs2srj","many_one","0","indirect_first","0","er06rd03","0","23","1","1","3","1","","0","1","0","null","","","<div class = 'row'><div class = 'column'><img src = 'category1/CS5.png' width = '70%;'></div><div class = 'column'><img src = 'usneg/6838.bmp' width = '100%;'></div></div>","null","neg","CS","CS","1","category1/CS5.png","","","","",""
"","html-keyboard-response","81","307884","0.0-6.0-6.0-0.12","0m0jrs2srj","many_one","0","indirect_first","0","er06rd03","0","23","1","1","3","1","","0","1","0","null","","","<div class = 'row'><div class = 'column'><img src = 'category4/CS8.png' width = '70%;'></div><div class = 'column'><img src = 'uspos/5830.bmp' width = '100%;'></div></div>","null","pos","CS","CS","4","category4/CS8.png","","","","",""
"","html-keyboard-response","82","310397","0.0-6.0-6.0-0.13","0m0jrs2srj","many_one","0","indirect_first","0","er06rd03","0","23","1","1","3","1","","0","1","0","null","","","<div class = 'row'><div class = 'column'><img src = 'usneg/1280.bmp' width = '100%;'></div><div class = 'column'><img src = 'category3/CS8.png' width = '70%;'></div></div>","null","neg","CS","CS","3","category3/CS8.png","","","","",""
"","html-keyboard-response","83","312910","0.0-6.0-6.0-0.14","0m0jrs2srj","many_one","0","indirect_first","0","er06rd03","0","23","1","1","3","1","","0","1","0","null","","","<div class = 'row'><div class = 'column'><img src = 'category3/CS2.png' width = '70%;'></div><div class = 'column'><img src = 'usneg/9000.bmp' width = '100%;'></div></div>","null","neg","CS","CS","3","category3/CS2.png","","","","",""
"","html-keyboard-response","84","315438","0.0-6.0-6.0-0.15","0m0jrs2srj","many_one","0","indirect_first","0","er06rd03","0","23","1","1","3","1","","0","1","0","null","","","<div class = 'row'><div class = 'column'><img src = 'usneg/9180.bmp' width = '100%;'></div><div class = 'column'><img src = 'category3/CS10.png' width = '70%;'></div></div>","null","neg","CS","CS","3","category3/CS10.png","","","","",""
"","html-keyboard-response","85","317962","0.0-6.0-6.0-0.16","0m0jrs2srj","many_one","0","indirect_first","0","er06rd03","0","23","1","1","3","1","","0","1","0","null","","","<div class = 'row'><div class = 'column'><img src = 'category1/CS7.png' width = '70%;'></div><div class = 'column'><img src = 'usneg/2205.bmp' width = '100%;'></div></div>","null","neg","CS","CS","1","category1/CS7.png","","","","",""
"","html-keyboard-response","86","320483","0.0-6.0-6.0-0.17","0m0jrs2srj","many_one","0","indirect_first","0","er06rd03","0","23","1","1","3","1","","0","1","0","null","","","<div class = 'row'><div class = 'column'><img src = 'uspos/2341.bmp' width = '100%;'></div><div class = 'column'><img src = 'category4/CS2.png' width = '70%;'></div></div>","null","pos","CS","CS","4","category4/CS2.png","","","","",""
"","html-keyboard-response","87","323008","0.0-6.0-6.0-0.18","0m0jrs2srj","many_one","0","indirect_first","0","er06rd03","0","23","1","1","3","1","","0","1","0","null","","","<div class = 'row'><div class = 'column'><img src = 'uspos/8350.bmp' width = '100%;'></div><div class = 'column'><img src = 'category2/CS1.png' width = '70%;'></div></div>","null","pos","CS","CS","2","category2/CS1.png","","","","",""
"","html-keyboard-response","88","325531","0.0-6.0-6.0-0.19","0m0jrs2srj","many_one","0","indirect_first","0","er06rd03","0","23","1","1","3","1","","0","1","0","null","","","<div class = 'row'><div class = 'column'><img src = 'category4/CS3.png' width = '70%;'></div><div class = 'column'><img src = 'uspos/2165.bmp' width = '100%;'></div></div>","null","pos","CS","CS","4","category4/CS3.png","","","","",""
"","html-keyboard-response","89","368986","0.0-7.0","0m0jrs2srj","many_one","0","indirect_first","0","er06rd03","0","23","1","1","3","1","","0","1","0","42950","","","<p>Sie sehen nun die chinesischen Zeichen nur ganz kurz. Danach sehen Sie die jeweilige Aussprache der Zeichen als Silbe auf dem Bildschrim. Ihre Aufgabe ist es, für jede Silbe anzugeben, ob diese etwas angenehmes, oder unangenehmes bedeuten könnte. Verlassen Sie sich hier vor allem auf Ihre Intuition.<br><br>Die Zeichen werden nur zur Orientierung dargestellt, beachten Sie sie deshalb nicht. Konzentrieren Sie sich vor allem auf die Silben. <br>Reagieren Sie mit folgenden zwei Tasten: <br><br><b>'D' </b> wenn die Silbe etwas <b>unangenehmes</b> bedeuten könnte. <br><b>'K'</b> wenn die Silbe etwas <b>angenehmes</b> bedeuten könnte. <br><br>Bitte legen Sie nun den Zeigefinger der linken Hand auf die Taste 'D' und den Zeigefinger der rechten Hand auf die Taste 'K'. <br>Reagieren Sie auf jede Silbe so schnell wie möglich. Uns interessiert Ihre spontane Reaktion. <br> <br> <br>Drücken Sie 'D' oder 'K', um die nächste Aufgabe zu starten. </p>","68","","","","","","","","","",""
"","html-keyboard-response","90","372005","0.0-8.0-0.0","0m0jrs2srj","many_one","0","indirect_first","0","er06rd03","0","23","1","1","3","1","","0","1","0","null","","","<div style=""font-size:60px;"">+</div>","null","","","","","","","","","",""
"","html-keyboard-response","91","372103","0.0-8.0-1.0","0m0jrs2srj","many_one","0","indirect_first","0","er06rd03","0","23","1","1","3","1","","0","1","0","null","","","<img src = 'category3/CS3.png' width = '100%;'>","null","","","","","","","","","",""
"","html-keyboard-response","92","372381","0.0-8.0-2.0","0m0jrs2srj","many_one","0","indirect_first","0","er06rd03","0","23","1","1","3","1","","0","1","0","null","","","<img src = 'targets/42.png' width = '100%;'>","null","","","","","","","","","",""
"","html-keyboard-response","93","375021","0.0-8.0-3.0","0m0jrs2srj","many_one","0","indirect_first","0","er06rd03","0","23","1","1","3","1","","0","1","0","2636","","","<img src = 'targets/mask.png' width = '100%;'>","75","neg","CS","CS","3","category3/CS3.png","targets/42.png","1","indirect","0",""
"","html-keyboard-response","94","376550","0.0-8.0-0.1","0m0jrs2srj","many_one","0","indirect_first","0","er06rd03","0","23","1","1","3","1","","0","1","0","null","","","<div style=""font-size:60px;"">+</div>","null","","","","","","","","","",""
"","html-keyboard-response","95","376645","0.0-8.0-1.1","0m0jrs2srj","many_one","0","indirect_first","0","er06rd03","0","23","1","1","3","1","","0","1","0","null","","","<img src = 'category2/CS1.png' width = '100%;'>","null","","","","","","","","","",""
"","html-keyboard-response","96","376925","0.0-8.0-2.1","0m0jrs2srj","many_one","0","indirect_first","0","er06rd03","0","23","1","1","3","1","","0","1","0","null","","","<img src = 'targets/47.png' width = '100%;'>","null","","","","","","","","","",""
"","html-keyboard-response","97","379498","0.0-8.0-3.1","0m0jrs2srj","many_one","0","indirect_first","0","er06rd03","0","23","1","1","3","1","","0","1","0","2569","","","<img src = 'targets/mask.png' width = '100%;'>","68","pos","CS","CS","2","category2/CS1.png","targets/47.png","0","indirect","1",""
"","html-keyboard-response","98","381012","0.0-8.0-0.2","0m0jrs2srj","many_one","0","indirect_first","0","er06rd03","0","23","1","1","3","1","","0","1","0","null","","","<div style=""font-size:60px;"">+</div>","null","","","","","","","","","",""
"","html-keyboard-response","99","381108","0.0-8.0-1.2","0m0jrs2srj","many_one","0","indirect_first","0","er06rd03","0","23","1","1","3","1","","0","1","0","null","","","<img src = 'category4/CS9.png' width = '100%;'>","null","","","","","","","","","",""
"","html-keyboard-response","100","381389","0.0-8.0-2.2","0m0jrs2srj","many_one","0","indirect_first","0","er06rd03","0","23","1","1","3","1","","0","1","0","null","","","<img src = 'targets/18.png' width = '100%;'>","null","","","","","","","","","",""
"","html-keyboard-response","101","383025","0.0-8.0-3.2","0m0jrs2srj","many_one","0","indirect_first","0","er06rd03","0","23","1","1","3","1","","0","1","0","1634","","","<img src = 'targets/mask.png' width = '100%;'>","68","pos","CS","CS","4","category4/CS9.png","targets/18.png","0","indirect","2",""
"","html-keyboard-response","102","384533","0.0-8.0-0.3","0m0jrs2srj","many_one","0","indirect_first","0","er06rd03","0","23","1","1","3","1","","0","1","0","null","","","<div style=""font-size:60px;"">+</div>","null","","","","","","","","","",""
"","html-keyboard-response","103","384628","0.0-8.0-1.3","0m0jrs2srj","many_one","0","indirect_first","0","er06rd03","0","23","1","1","3","1","","0","1","0","null","","","<img src = 'category2/CS3.png' width = '100%;'>","null","","","","","","","","","",""
"","html-keyboard-response","104","384880","0.0-8.0-2.3","0m0jrs2srj","many_one","0","indirect_first","0","er06rd03","0","23","1","1","3","1","","0","1","0","null","","","<img src = 'targets/32.png' width = '100%;'>","null","","","","","","","","","",""
"","html-keyboard-response","105","386551","0.0-8.0-3.3","0m0jrs2srj","many_one","0","indirect_first","0","er06rd03","0","23","1","1","3","1","","0","1","0","1668","","","<img src = 'targets/mask.png' width = '100%;'>","75","pos","CS","CS","2","category2/CS3.png","targets/32.png","1","indirect","3",""
"","html-keyboard-response","106","388077","0.0-8.0-0.4","0m0jrs2srj","many_one","0","indirect_first","0","er06rd03","0","23","1","1","3","1","","0","1","0","null","","","<div style=""font-size:60px;"">+</div>","null","","","","","","","","","",""
"","html-keyboard-response","107","388172","0.0-8.0-1.4","0m0jrs2srj","many_one","0","indirect_first","0","er06rd03","0","23","1","1","3","1","","0","1","0","null","","","<img src = 'category3/CS8.png' width = '100%;'>","null","","","","","","","","","",""
"","html-keyboard-response","108","388445","0.0-8.0-2.4","0m0jrs2srj","many_one","0","indirect_first","0","er06rd03","0","23","1","1","3","1","","0","1","0","null","","","<img src = 'targets/35.png' width = '100%;'>","null","","","","","","","","","",""
"","html-keyboard-response","109","389236","0.0-8.0-3.4","0m0jrs2srj","many_one","0","indirect_first","0","er06rd03","0","23","1","1","3","1","","0","1","0","789","","","<img src = 'targets/mask.png' width = '100%;'>","75","neg","CS","CS","3","category3/CS8.png","targets/35.png","1","indirect","4",""
"","html-keyboard-response","110","390754","0.0-8.0-0.5","0m0jrs2srj","many_one","0","indirect_first","0","er06rd03","0","23","1","1","3","1","","0","1","0","null","","","<div style=""font-size:60px;"">+</div>","null","","","","","","","","","",""
"","html-keyboard-response","111","390850","0.0-8.0-1.5","0m0jrs2srj","many_one","0","indirect_first","0","er06rd03","0","23","1","1","3","1","","0","1","0","null","","","<img src = 'category1/CS10.png' width = '100%;'>","null","","","","","","","","","",""
"","html-keyboard-response","112","391122","0.0-8.0-2.5","0m0jrs2srj","many_one","0","indirect_first","0","er06rd03","0","23","1","1","3","1","","0","1","0","null","","","<img src = 'targets/9.png' width = '100%;'>","null","","","","","","","","","",""
"","html-keyboard-response","113","392654","0.0-8.0-3.5","0m0jrs2srj","many_one","0","indirect_first","0","er06rd03","0","23","1","1","3","1","","0","1","0","1530","","","<img src = 'targets/mask.png' width = '100%;'>","75","neg","GS","GSold","1","category1/CS10.png","targets/9.png","1","indirect","5",""
"","html-keyboard-response","114","394167","0.0-8.0-0.6","0m0jrs2srj","many_one","0","indirect_first","0","er06rd03","0","23","1","1","3","1","","0","1","0","null","","","<div style=""font-size:60px;"">+</div>","null","","","","","","","","","",""
"","html-keyboard-response","115","394268","0.0-8.0-1.6","0m0jrs2srj","many_one","0","indirect_first","0","er06rd03","0","23","1","1","3","1","","0","1","0","null","","","<img src = 'category1/CS6.png' width = '100%;'>","null","","","","","","","","","",""
"","html-keyboard-response","116","394549","0.0-8.0-2.6","0m0jrs2srj","many_one","0","indirect_first","0","er06rd03","0","23","1","1","3","1","","0","1","0","null","","","<img src = 'targets/36.png' width = '100%;'>","null","","","","","","","","","",""
"","html-keyboard-response","117","395796","0.0-8.0-3.6","0m0jrs2srj","many_one","0","indirect_first","0","er06rd03","0","23","1","1","3","1","","0","1","0","1245","","","<img src = 'targets/mask.png' width = '100%;'>","68","neg","CS","CS","1","category1/CS6.png","targets/36.png","0","indirect","6",""
"","html-keyboard-response","118","397322","0.0-8.0-0.7","0m0jrs2srj","many_one","0","indirect_first","0","er06rd03","0","23","1","1","3","1","","0","1","0","null","","","<div style=""font-size:60px;"">+</div>","null","","","","","","","","","",""
"","html-keyboard-response","119","397416","0.0-8.0-1.7","0m0jrs2srj","many_one","0","indirect_first","0","er06rd03","0","23","1","1","3","1","","0","1","0","null","","","<img src = 'category3/CS1.png' width = '100%;'>","null","","","","","","","","","",""
"","html-keyboard-response","120","397689","0.0-8.0-2.7","0m0jrs2srj","many_one","0","indirect_first","0","er06rd03","0","23","1","1","3","1","","0","1","0","null","","","<img src = 'targets/25.png' width = '100%;'>","null","","","","","","","","","",""
"","html-keyboard-response","121","399059","0.0-8.0-3.7","0m0jrs2srj","many_one","0","indirect_first","0","er06rd03","0","23","1","1","3","1","","0","1","0","1368","","","<img src = 'targets/mask.png' width = '100%;'>","75","neg","CS","CS","3","category3/CS1.png","targets/25.png","1","indirect","7",""
"","html-keyboard-response","122","400577","0.0-8.0-0.8","0m0jrs2srj","many_one","0","indirect_first","0","er06rd03","0","23","1","1","3","1","","0","1","0","null","","","<div style=""font-size:60px;"">+</div>","null","","","","","","","","","",""
"","html-keyboard-response","123","400669","0.0-8.0-1.8","0m0jrs2srj","many_one","0","indirect_first","0","er06rd03","0","23","1","1","3","1","","0","1","0","null","","","<img src = 'category1/CS3.png' width = '100%;'>","null","","","","","","","","","",""
"","html-keyboard-response","124","400934","0.0-8.0-2.8","0m0jrs2srj","many_one","0","indirect_first","0","er06rd03","0","23","1","1","3","1","","0","1","0","null","","","<img src = 'targets/14.png' width = '100%;'>","null","","","","","","","","","",""
"","html-keyboard-response","125","402269","0.0-8.0-3.8","0m0jrs2srj","many_one","0","indirect_first","0","er06rd03","0","23","1","1","3","1","","0","1","0","1334","","","<img src = 'targets/mask.png' width = '100%;'>","75","neg","GS","GSold","1","category1/CS3.png","targets/14.png","1","indirect","8",""
"","html-keyboard-response","126","403779","0.0-8.0-0.9","0m0jrs2srj","many_one","0","indirect_first","0","er06rd03","0","23","1","1","3","1","","0","1","0","null","","","<div style=""font-size:60px;"">+</div>","null","","","","","","","","","",""
"","html-keyboard-response","127","403871","0.0-8.0-1.9","0m0jrs2srj","many_one","0","indirect_first","0","er06rd03","0","23","1","1","3","1","","0","1","0","null","","","<img src = 'category1/CS4.png' width = '100%;'>","null","","","","","","","","","",""
"","html-keyboard-response","128","404139","0.0-8.0-2.9","0m0jrs2srj","many_one","0","indirect_first","0","er06rd03","0","23","1","1","3","1","","0","1","0","null","","","<img src = 'targets/44.png' width = '100%;'>","null","","","","","","","","","",""
"","html-keyboard-response","129","405438","0.0-8.0-3.9","0m0jrs2srj","many_one","0","indirect_first","0","er06rd03","0","23","1","1","3","1","","0","1","0","1297","","","<img src = 'targets/mask.png' width = '100%;'>","75","neg","GS","GSold","1","category1/CS4.png","targets/44.png","1","indirect","9",""
"","html-keyboard-response","130","406958","0.0-8.0-0.10","0m0jrs2srj","many_one","0","indirect_first","0","er06rd03","0","23","1","1","3","1","","0","1","0","null","","","<div style=""font-size:60px;"">+</div>","null","","","","","","","","","",""
"","html-keyboard-response","131","407052","0.0-8.0-1.10","0m0jrs2srj","many_one","0","indirect_first","0","er06rd03","0","23","1","1","3","1","","0","1","0","null","","","<img src = 'category4/CS3.png' width = '100%;'>","null","","","","","","","","","",""
"","html-keyboard-response","132","407334","0.0-8.0-2.10","0m0jrs2srj","many_one","0","indirect_first","0","er06rd03","0","23","1","1","3","1","","0","1","0","null","","","<img src = 'targets/6.png' width = '100%;'>","null","","","","","","","","","",""
"","html-keyboard-response","133","408197","0.0-8.0-3.10","0m0jrs2srj","many_one","0","indirect_first","0","er06rd03","0","23","1","1","3","1","","0","1","0","862","","","<img src = 'targets/mask.png' width = '100%;'>","68","pos","CS","CS","4","category4/CS3.png","targets/6.png","0","indirect","10",""
"","html-keyboard-response","134","409723","0.0-8.0-0.11","0m0jrs2srj","many_one","0","indirect_first","0","er06rd03","0","23","1","1","3","1","","0","1","0","null","","","<div style=""font-size:60px;"">+</div>","null","","","","","","","","","",""
"","html-keyboard-response","135","409817","0.0-8.0-1.11","0m0jrs2srj","many_one","0","indirect_first","0","er06rd03","0","23","1","1","3","1","","0","1","0","null","","","<img src = 'category4/CS4.png' width = '100%;'>","null","","","","","","","","","",""
"","html-keyboard-response","136","410075","0.0-8.0-2.11","0m0jrs2srj","many_one","0","indirect_first","0","er06rd03","0","23","1","1","3","1","","0","1","0","null","","","<img src = 'targets/4.png' width = '100%;'>","null","","","","","","","","","",""
"","html-keyboard-response","137","410891","0.0-8.0-3.11","0m0jrs2srj","many_one","0","indirect_first","0","er06rd03","0","23","1","1","3","1","","0","1","0","814","","","<img src = 'targets/mask.png' width = '100%;'>","68","pos","CS","CS","4","category4/CS4.png","targets/4.png","0","indirect","11",""
"","html-keyboard-response","138","412423","0.0-8.0-0.12","0m0jrs2srj","many_one","0","indirect_first","0","er06rd03","0","23","1","1","3","1","","0","1","0","null","","","<div style=""font-size:60px;"">+</div>","null","","","","","","","","","",""
"","html-keyboard-response","139","412515","0.0-8.0-1.12","0m0jrs2srj","many_one","0","indirect_first","0","er06rd03","0","23","1","1","3","1","","0","1","0","null","","","<img src = 'category4/CS2.png' width = '100%;'>","null","","","","","","","","","",""
"","html-keyboard-response","140","412776","0.0-8.0-2.12","0m0jrs2srj","many_one","0","indirect_first","0","er06rd03","0","23","1","1","3","1","","0","1","0","null","","","<img src = 'targets/27.png' width = '100%;'>","null","","","","","","","","","",""
"","html-keyboard-response","141","413550","0.0-8.0-3.12","0m0jrs2srj","many_one","0","indirect_first","0","er06rd03","0","23","1","1","3","1","","0","1","0","773","","","<img src = 'targets/mask.png' width = '100%;'>","75","pos","CS","CS","4","category4/CS2.png","targets/27.png","1","indirect","12",""
"","html-keyboard-response","142","415065","0.0-8.0-0.13","0m0jrs2srj","many_one","0","indirect_first","0","er06rd03","0","23","1","1","3","1","","0","1","0","null","","","<div style=""font-size:60px;"">+</div>","null","","","","","","","","","",""
"","html-keyboard-response","143","415160","0.0-8.0-1.13","0m0jrs2srj","many_one","0","indirect_first","0","er06rd03","0","23","1","1","3","1","","0","1","0","null","","","<img src = 'category2/CS5.png' width = '100%;'>","null","","","","","","","","","",""
"","html-keyboard-response","144","415439","0.0-8.0-2.13","0m0jrs2srj","many_one","0","indirect_first","0","er06rd03","0","23","1","1","3","1","","0","1","0","null","","","<img src = 'targets/1.png' width = '100%;'>","null","","","","","","","","","",""
"","html-keyboard-response","145","416293","0.0-8.0-3.13","0m0jrs2srj","many_one","0","indirect_first","0","er06rd03","0","23","1","1","3","1","","0","1","0","852","","","<img src = 'targets/mask.png' width = '100%;'>","75","pos","CS","CS","2","category2/CS5.png","targets/1.png","1","indirect","13",""
"","html-keyboard-response","146","417806","0.0-8.0-0.14","0m0jrs2srj","many_one","0","indirect_first","0","er06rd03","0","23","1","1","3","1","","0","1","0","null","","","<div style=""font-size:60px;"">+</div>","null","","","","","","","","","",""
"","html-keyboard-response","147","417899","0.0-8.0-1.14","0m0jrs2srj","many_one","0","indirect_first","0","er06rd03","0","23","1","1","3","1","","0","1","0","null","","","<img src = 'category1/CS2.png' width = '100%;'>","null","","","","","","","","","",""
"","html-keyboard-response","148","418167","0.0-8.0-2.14","0m0jrs2srj","many_one","0","indirect_first","0","er06rd03","0","23","1","1","3","1","","0","1","0","null","","","<img src = 'targets/41.png' width = '100%;'>","null","","","","","","","","","",""
"","html-keyboard-response","149","419739","0.0-8.0-3.14","0m0jrs2srj","many_one","0","indirect_first","0","er06rd03","0","23","1","1","3","1","","0","1","0","1568","","","<img src = 'targets/mask.png' width = '100%;'>","75","neg","CS","CS","1","category1/CS2.png","targets/41.png","1","indirect","14",""
"","html-keyboard-response","150","421252","0.0-8.0-0.15","0m0jrs2srj","many_one","0","indirect_first","0","er06rd03","0","23","1","1","3","1","","0","1","0","null","","","<div style=""font-size:60px;"">+</div>","null","","","","","","","","","",""
"","html-keyboard-response","151","421351","0.0-8.0-1.15","0m0jrs2srj","many_one","0","indirect_first","0","er06rd03","0","23","1","1","3","1","","0","1","0","null","","","<img src = 'category1/CS7.png' width = '100%;'>","null","","","","","","","","","",""
"","html-keyboard-response","152","421616","0.0-8.0-2.15","0m0jrs2srj","many_one","0","indirect_first","0","er06rd03","0","23","1","1","3","1","","0","1","0","null","","","<img src = 'targets/40.png' width = '100%;'>","null","","","","","","","","","",""
"","html-keyboard-response","153","422044","0.0-8.0-3.15","0m0jrs2srj","many_one","0","indirect_first","0","er06rd03","0","23","1","1","3","1","","0","1","0","429","","","<img src = 'targets/mask.png' width = '100%;'>","68","neg","CS","CS","1","category1/CS7.png","targets/40.png","0","indirect","15",""
"","html-keyboard-response","154","423565","0.0-8.0-0.16","0m0jrs2srj","many_one","0","indirect_first","0","er06rd03","0","23","1","1","3","1","","0","1","0","null","","","<div style=""font-size:60px;"">+</div>","null","","","","","","","","","",""
"","html-keyboard-response","155","423660","0.0-8.0-1.16","0m0jrs2srj","many_one","0","indirect_first","0","er06rd03","0","23","1","1","3","1","","0","1","0","null","","","<img src = 'category3/CS2.png' width = '100%;'>","null","","","","","","","","","",""
"","html-keyboard-response","156","423937","0.0-8.0-2.16","0m0jrs2srj","many_one","0","indirect_first","0","er06rd03","0","23","1","1","3","1","","0","1","0","null","","","<img src = 'targets/38.png' width = '100%;'>","null","","","","","","","","","",""
"","html-keyboard-response","157","424371","0.0-8.0-3.16","0m0jrs2srj","many_one","0","indirect_first","0","er06rd03","0","23","1","1","3","1","","0","1","0","432","","","<img src = 'targets/mask.png' width = '100%;'>","68","neg","CS","CS","3","category3/CS2.png","targets/38.png","0","indirect","16",""
"","html-keyboard-response","158","425889","0.0-8.0-0.17","0m0jrs2srj","many_one","0","indirect_first","0","er06rd03","0","23","1","1","3","1","","0","1","0","null","","","<div style=""font-size:60px;"">+</div>","null","","","","","","","","","",""
"","html-keyboard-response","159","425983","0.0-8.0-1.17","0m0jrs2srj","many_one","0","indirect_first","0","er06rd03","0","23","1","1","3","1","","0","1","0","null","","","<img src = 'category2/CS10.png' width = '100%;'>","null","","","","","","","","","",""
"","html-keyboard-response","160","426263","0.0-8.0-2.17","0m0jrs2srj","many_one","0","indirect_first","0","er06rd03","0","23","1","1","3","1","","0","1","0","null","","","<img src = 'targets/21.png' width = '100%;'>","null","","","","","","","","","",""
"","html-keyboard-response","161","426807","0.0-8.0-3.17","0m0jrs2srj","many_one","0","indirect_first","0","er06rd03","0","23","1","1","3","1","","0","1","0","542","","","<img src = 'targets/mask.png' width = '100%;'>","68","pos","CS","CS","2","category2/CS10.png","targets/21.png","0","indirect","17",""
"","html-keyboard-response","162","428320","0.0-8.0-0.18","0m0jrs2srj","many_one","0","indirect_first","0","er06rd03","0","23","1","1","3","1","","0","1","0","null","","","<div style=""font-size:60px;"">+</div>","null","","","","","","","","","",""
"","html-keyboard-response","163","428412","0.0-8.0-1.18","0m0jrs2srj","many_one","0","indirect_first","0","er06rd03","0","23","1","1","3","1","","0","1","0","null","","","<img src = 'category2/CS6.png' width = '100%;'>","null","","","","","","","","","",""
"","html-keyboard-response","164","428679","0.0-8.0-2.18","0m0jrs2srj","many_one","0","indirect_first","0","er06rd03","0","23","1","1","3","1","","0","1","0","null","","","<img src = 'targets/17.png' width = '100%;'>","null","","","","","","","","","",""
"","html-keyboard-response","165","429804","0.0-8.0-3.18","0m0jrs2srj","many_one","0","indirect_first","0","er06rd03","0","23","1","1","3","1","","0","1","0","1124","","","<img src = 'targets/mask.png' width = '100%;'>","68","pos","GS","GSold","2","category2/CS6.png","targets/17.png","0","indirect","18",""
"","html-keyboard-response","166","431325","0.0-8.0-0.19","0m0jrs2srj","many_one","0","indirect_first","0","er06rd03","0","23","1","1","3","1","","0","1","0","null","","","<div style=""font-size:60px;"">+</div>","null","","","","","","","","","",""
"","html-keyboard-response","167","431432","0.0-8.0-1.19","0m0jrs2srj","many_one","0","indirect_first","0","er06rd03","0","23","1","1","3","1","","0","1","0","null","","","<img src = 'category1/CS8.png' width = '100%;'>","null","","","","","","","","","",""
"","html-keyboard-response","168","431691","0.0-8.0-2.19","0m0jrs2srj","many_one","0","indirect_first","0","er06rd03","0","23","1","1","3","1","","0","1","0","null","","","<img src = 'targets/16.png' width = '100%;'>","null","","","","","","","","","",""
"","html-keyboard-response","169","432515","0.0-8.0-3.19","0m0jrs2srj","many_one","0","indirect_first","0","er06rd03","0","23","1","1","3","1","","0","1","0","823","","","<img src = 'targets/mask.png' width = '100%;'>","75","neg","CS","CS","1","category1/CS8.png","targets/16.png","1","indirect","19",""
"","html-keyboard-response","170","434026","0.0-8.0-0.20","0m0jrs2srj","many_one","0","indirect_first","0","er06rd03","0","23","1","1","3","1","","0","1","0","null","","","<div style=""font-size:60px;"">+</div>","null","","","","","","","","","",""
"","html-keyboard-response","171","434134","0.0-8.0-1.20","0m0jrs2srj","many_one","0","indirect_first","0","er06rd03","0","23","1","1","3","1","","0","1","0","null","","","<img src = 'category2/CS8.png' width = '100%;'>","null","","","","","","","","","",""
"","html-keyboard-response","172","434413","0.0-8.0-2.20","0m0jrs2srj","many_one","0","indirect_first","0","er06rd03","0","23","1","1","3","1","","0","1","0","null","","","<img src = 'targets/45.png' width = '100%;'>","null","","","","","","","","","",""
"","html-keyboard-response","173","435082","0.0-8.0-3.20","0m0jrs2srj","many_one","0","indirect_first","0","er06rd03","0","23","1","1","3","1","","0","1","0","667","","","<img src = 'targets/mask.png' width = '100%;'>","75","pos","CS","CS","2","category2/CS8.png","targets/45.png","1","indirect","20",""
"","html-keyboard-response","174","436589","0.0-8.0-0.21","0m0jrs2srj","many_one","0","indirect_first","0","er06rd03","0","23","1","1","3","1","","0","1","0","null","","","<div style=""font-size:60px;"">+</div>","null","","","","","","","","","",""
"","html-keyboard-response","175","436682","0.0-8.0-1.21","0m0jrs2srj","many_one","0","indirect_first","0","er06rd03","0","23","1","1","3","1","","0","1","0","null","","","<img src = 'category3/CS10.png' width = '100%;'>","null","","","","","","","","","",""
"","html-keyboard-response","176","436963","0.0-8.0-2.21","0m0jrs2srj","many_one","0","indirect_first","0","er06rd03","0","23","1","1","3","1","","0","1","0","null","","","<img src = 'targets/30.png' width = '100%;'>","null","","","","","","","","","",""
"","html-keyboard-response","177","437838","0.0-8.0-3.21","0m0jrs2srj","many_one","0","indirect_first","0","er06rd03","0","23","1","1","3","1","","0","1","0","873","","","<img src = 'targets/mask.png' width = '100%;'>","68","neg","CS","CS","3","category3/CS10.png","targets/30.png","0","indirect","21",""
"","html-keyboard-response","178","439355","0.0-8.0-0.22","0m0jrs2srj","many_one","0","indirect_first","0","er06rd03","0","23","1","1","3","1","","0","1","0","null","","","<div style=""font-size:60px;"">+</div>","null","","","","","","","","","",""
"","html-keyboard-response","179","439451","0.0-8.0-1.22","0m0jrs2srj","many_one","0","indirect_first","0","er06rd03","0","23","1","1","3","1","","0","1","0","null","","","<img src = 'category1/CS5.png' width = '100%;'>","null","","","","","","","","","",""
"","html-keyboard-response","180","439724","0.0-8.0-2.22","0m0jrs2srj","many_one","0","indirect_first","0","er06rd03","0","23","1","1","3","1","","0","1","0","null","","","<img src = 'targets/37.png' width = '100%;'>","null","","","","","","","","","",""
"","html-keyboard-response","181","440286","0.0-8.0-3.22","0m0jrs2srj","many_one","0","indirect_first","0","er06rd03","0","23","1","1","3","1","","0","1","0","561","","","<img src = 'targets/mask.png' width = '100%;'>","68","neg","CS","CS","1","category1/CS5.png","targets/37.png","0","indirect","22",""
"","html-keyboard-response","182","441809","0.0-8.0-0.23","0m0jrs2srj","many_one","0","indirect_first","0","er06rd03","0","23","1","1","3","1","","0","1","0","null","","","<div style=""font-size:60px;"">+</div>","null","","","","","","","","","",""
"","html-keyboard-response","183","441909","0.0-8.0-1.23","0m0jrs2srj","many_one","0","indirect_first","0","er06rd03","0","23","1","1","3","1","","0","1","0","null","","","<img src = 'category4/CS8.png' width = '100%;'>","null","","","","","","","","","",""
"","html-keyboard-response","184","442191","0.0-8.0-2.23","0m0jrs2srj","many_one","0","indirect_first","0","er06rd03","0","23","1","1","3","1","","0","1","0","null","","","<img src = 'targets/48.png' width = '100%;'>","null","","","","","","","","","",""
"","html-keyboard-response","185","442603","0.0-8.0-3.23","0m0jrs2srj","many_one","0","indirect_first","0","er06rd03","0","23","1","1","3","1","","0","1","0","411","","","<img src = 'targets/mask.png' width = '100%;'>","75","pos","CS","CS","4","category4/CS8.png","targets/48.png","1","indirect","23",""
"","survey-html-form","186","444375","0.0-9.0","0m0jrs2srj","many_one","0","indirect_first","0","er06rd03","0","23","1","1","3","1","","0","1","0","1269","","{}","","","","","","","","","","","",""
"","html-keyboard-response","187","447388","0.0-10.0-0.0","0m0jrs2srj","many_one","0","indirect_first","0","er06rd03","0","23","1","1","3","1","","0","1","0","null","","","<div style=""font-size:60px;"">+</div>","null","","","","","","","","","",""
"","html-keyboard-response","188","447481","0.0-10.0-1.0","0m0jrs2srj","many_one","0","indirect_first","0","er06rd03","0","23","1","1","3","1","","0","1","0","null","","","<img src = 'category4/CS6.png' width = '100%;'>","null","","","","","","","","","",""
"","html-keyboard-response","189","447762","0.0-10.0-2.0","0m0jrs2srj","many_one","0","indirect_first","0","er06rd03","0","23","1","1","3","1","","0","1","0","null","","","<img src = 'targets/12.png' width = '100%;'>","null","","","","","","","","","",""
"","html-keyboard-response","190","448351","0.0-10.0-3.0","0m0jrs2srj","many_one","0","indirect_first","0","er06rd03","0","23","1","1","3","1","","0","1","0","586","","","<img src = 'targets/mask.png' width = '100%;'>","75","pos","GS","GSold","4","category4/CS6.png","targets/12.png","1","indirect","24",""
"","html-keyboard-response","191","449864","0.0-10.0-0.1","0m0jrs2srj","many_one","0","indirect_first","0","er06rd03","0","23","1","1","3","1","","0","1","0","null","","","<div style=""font-size:60px;"">+</div>","null","","","","","","","","","",""
"","html-keyboard-response","192","449959","0.0-10.0-1.1","0m0jrs2srj","many_one","0","indirect_first","0","er06rd03","0","23","1","1","3","1","","0","1","0","null","","","<img src = 'category2/CS4.png' width = '100%;'>","null","","","","","","","","","",""
"","html-keyboard-response","193","450239","0.0-10.0-2.1","0m0jrs2srj","many_one","0","indirect_first","0","er06rd03","0","23","1","1","3","1","","0","1","0","null","","","<img src = 'targets/46.png' width = '100%;'>","null","","","","","","","","","",""
"","html-keyboard-response","194","450802","0.0-10.0-3.1","0m0jrs2srj","many_one","0","indirect_first","0","er06rd03","0","23","1","1","3","1","","0","1","0","559","","","<img src = 'targets/mask.png' width = '100%;'>","75","pos","GS","GSold","2","category2/CS4.png","targets/46.png","1","indirect","25",""
"","html-keyboard-response","195","452309","0.0-10.0-0.2","0m0jrs2srj","many_one","0","indirect_first","0","er06rd03","0","23","1","1","3","1","","0","1","0","null","","","<div style=""font-size:60px;"">+</div>","null","","","","","","","","","",""
"","html-keyboard-response","196","452408","0.0-10.0-1.2","0m0jrs2srj","many_one","0","indirect_first","0","er06rd03","0","23","1","1","3","1","","0","1","0","null","","","<img src = 'category3/wang.png' width = '100%;'>","null","","","","","","","","","",""
"","html-keyboard-response","197","452690","0.0-10.0-2.2","0m0jrs2srj","many_one","0","indirect_first","0","er06rd03","0","23","1","1","3","1","","0","1","0","null","","","<img src = 'targets/19.png' width = '100%;'>","null","","","","","","","","","",""
"","html-keyboard-response","198","453437","0.0-10.0-3.2","0m0jrs2srj","many_one","0","indirect_first","0","er06rd03","0","23","1","1","3","1","","0","1","0","745","","","<img src = 'targets/mask.png' width = '100%;'>","68","neg","GS","abstract","3","category3/wang.png","targets/19.png","0","indirect","26",""
"","html-keyboard-response","199","454949","0.0-10.0-0.3","0m0jrs2srj","many_one","0","indirect_first","0","er06rd03","0","23","1","1","3","1","","0","1","0","null","","","<div style=""font-size:60px;"">+</div>","null","","","","","","","","","",""
"","html-keyboard-response","200","455042","0.0-10.0-1.3","0m0jrs2srj","many_one","0","indirect_first","0","er06rd03","0","23","1","1","3","1","","0","1","0","null","","","<img src = 'category2/GS3.png' width = '100%;'>","null","","","","","","","","","",""
"","html-keyboard-response","201","455313","0.0-10.0-2.3","0m0jrs2srj","many_one","0","indirect_first","0","er06rd03","0","23","1","1","3","1","","0","1","0","null","","","<img src = 'targets/2.png' width = '100%;'>","null","","","","","","","","","",""
"","html-keyboard-response","202","455839","0.0-10.0-3.3","0m0jrs2srj","many_one","0","indirect_first","0","er06rd03","0","23","1","1","3","1","","0","1","0","523","","","<img src = 'targets/mask.png' width = '100%;'>","75","pos","GS","GSnew","2","category2/GS3.png","targets/2.png","1","indirect","27",""
"","html-keyboard-response","203","457362","0.0-10.0-0.4","0m0jrs2srj","many_one","0","indirect_first","0","er06rd03","0","23","1","1","3","1","","0","1","0","null","","","<div style=""font-size:60px;"">+</div>","null","","","","","","","","","",""
"","html-keyboard-response","204","457458","0.0-10.0-1.4","0m0jrs2srj","many_one","0","indirect_first","0","er06rd03","0","23","1","1","3","1","","0","1","0","null","","","<img src = 'category3/CS6.png' width = '100%;'>","null","","","","","","","","","",""
"","html-keyboard-response","205","457743","0.0-10.0-2.4","0m0jrs2srj","many_one","0","indirect_first","0","er06rd03","0","23","1","1","3","1","","0","1","0","null","","","<img src = 'targets/33.png' width = '100%;'>","null","","","","","","","","","",""
"","html-keyboard-response","206","458381","0.0-10.0-3.4","0m0jrs2srj","many_one","0","indirect_first","0","er06rd03","0","23","1","1","3","1","","0","1","0","637","","","<img src = 'targets/mask.png' width = '100%;'>","68","neg","GS","GSold","3","category3/CS6.png","targets/33.png","0","indirect","28",""
"","html-keyboard-response","207","459903","0.0-10.0-0.5","0m0jrs2srj","many_one","0","indirect_first","0","er06rd03","0","23","1","1","3","1","","0","1","0","null","","","<div style=""font-size:60px;"">+</div>","null","","","","","","","","","",""
"","html-keyboard-response","208","459996","0.0-10.0-1.5","0m0jrs2srj","many_one","0","indirect_first","0","er06rd03","0","23","1","1","3","1","","0","1","0","null","","","<img src = 'category3/CS7.png' width = '100%;'>","null","","","","","","","","","",""
"","html-keyboard-response","209","460262","0.0-10.0-2.5","0m0jrs2srj","many_one","0","indirect_first","0","er06rd03","0","23","1","1","3","1","","0","1","0","null","","","<img src = 'targets/10.png' width = '100%;'>","null","","","","","","","","","",""
"","html-keyboard-response","210","460760","0.0-10.0-3.5","0m0jrs2srj","many_one","0","indirect_first","0","er06rd03","0","23","1","1","3","1","","0","1","0","497","","","<img src = 'targets/mask.png' width = '100%;'>","75","neg","GS","GSold","3","category3/CS7.png","targets/10.png","1","indirect","29",""
"","html-keyboard-response","211","462273","0.0-10.0-0.6","0m0jrs2srj","many_one","0","indirect_first","0","er06rd03","0","23","1","1","3","1","","0","1","0","null","","","<div style=""font-size:60px;"">+</div>","null","","","","","","","","","",""
"","html-keyboard-response","212","462378","0.0-10.0-1.6","0m0jrs2srj","many_one","0","indirect_first","0","er06rd03","0","23","1","1","3","1","","0","1","0","null","","","<img src = 'category4/lin.png' width = '100%;'>","null","","","","","","","","","",""
"","html-keyboard-response","213","462642","0.0-10.0-2.6","0m0jrs2srj","many_one","0","indirect_first","0","er06rd03","0","23","1","1","3","1","","0","1","0","null","","","<img src = 'targets/7.png' width = '100%;'>","null","","","","","","","","","",""
"","html-keyboard-response","214","463921","0.0-10.0-3.6","0m0jrs2srj","many_one","0","indirect_first","0","er06rd03","0","23","1","1","3","1","","0","1","0","1276","","","<img src = 'targets/mask.png' width = '100%;'>","68","pos","GS","abstract","4","category4/lin.png","targets/7.png","0","indirect","30",""
"","html-keyboard-response","215","465433","0.0-10.0-0.7","0m0jrs2srj","many_one","0","indirect_first","0","er06rd03","0","23","1","1","3","1","","0","1","0","null","","","<div style=""font-size:60px;"">+</div>","null","","","","","","","","","",""
"","html-keyboard-response","216","465526","0.0-10.0-1.7","0m0jrs2srj","many_one","0","indirect_first","0","er06rd03","0","23","1","1","3","1","","0","1","0","null","","","<img src = 'category2/CS7.png' width = '100%;'>","null","","","","","","","","","",""
"","html-keyboard-response","217","465780","0.0-10.0-2.7","0m0jrs2srj","many_one","0","indirect_first","0","er06rd03","0","23","1","1","3","1","","0","1","0","null","","","<img src = 'targets/22.png' width = '100%;'>","null","","","","","","","","","",""
"","html-keyboard-response","218","466542","0.0-10.0-3.7","0m0jrs2srj","many_one","0","indirect_first","0","er06rd03","0","23","1","1","3","1","","0","1","0","761","","","<img src = 'targets/mask.png' width = '100%;'>","75","pos","GS","GSold","2","category2/CS7.png","targets/22.png","1","indirect","31",""
"","html-keyboard-response","219","468049","0.0-10.0-0.8","0m0jrs2srj","many_one","0","indirect_first","0","er06rd03","0","23","1","1","3","1","","0","1","0","null","","","<div style=""font-size:60px;"">+</div>","null","","","","","","","","","",""
"","html-keyboard-response","220","468142","0.0-10.0-1.8","0m0jrs2srj","many_one","0","indirect_first","0","er06rd03","0","23","1","1","3","1","","0","1","0","null","","","<img src = 'category2/men.png' width = '100%;'>","null","","","","","","","","","",""
"","html-keyboard-response","221","468404","0.0-10.0-2.8","0m0jrs2srj","many_one","0","indirect_first","0","er06rd03","0","23","1","1","3","1","","0","1","0","null","","","<img src = 'targets/5.png' width = '100%;'>","null","","","","","","","","","",""
"","html-keyboard-response","222","469029","0.0-10.0-3.8","0m0jrs2srj","many_one","0","indirect_first","0","er06rd03","0","23","1","1","3","1","","0","1","0","624","","","<img src = 'targets/mask.png' width = '100%;'>","68","pos","GS","abstract","2","category2/men.png","targets/5.png","0","indirect","32",""
"","html-keyboard-response","223","470551","0.0-10.0-0.9","0m0jrs2srj","many_one","0","indirect_first","0","er06rd03","0","23","1","1","3","1","","0","1","0","null","","","<div style=""font-size:60px;"">+</div>","null","","","","","","","","","",""
"","html-keyboard-response","224","470646","0.0-10.0-1.9","0m0jrs2srj","many_one","0","indirect_first","0","er06rd03","0","23","1","1","3","1","","0","1","0","null","","","<img src = 'category3/GS3.png' width = '100%;'>","null","","","","","","","","","",""
"","html-keyboard-response","225","470900","0.0-10.0-2.9","0m0jrs2srj","many_one","0","indirect_first","0","er06rd03","0","23","1","1","3","1","","0","1","0","null","","","<img src = 'targets/23.png' width = '100%;'>","null","","","","","","","","","",""
"","html-keyboard-response","226","471344","0.0-10.0-3.9","0m0jrs2srj","many_one","0","indirect_first","0","er06rd03","0","23","1","1","3","1","","0","1","0","442","","","<img src = 'targets/mask.png' width = '100%;'>","68","neg","GS","GSnew","3","category3/GS3.png","targets/23.png","0","indirect","33",""
"","html-keyboard-response","227","472868","0.0-10.0-0.10","0m0jrs2srj","many_one","0","indirect_first","0","er06rd03","0","23","1","1","3","1","","0","1","0","null","","","<div style=""font-size:60px;"">+</div>","null","","","","","","","","","",""
"","html-keyboard-response","228","472967","0.0-10.0-1.10","0m0jrs2srj","many_one","0","indirect_first","0","er06rd03","0","23","1","1","3","1","","0","1","0","null","","","<img src = 'category1/ma.png' width = '100%;'>","null","","","","","","","","","",""
"","html-keyboard-response","229","473243","0.0-10.0-2.10","0m0jrs2srj","many_one","0","indirect_first","0","er06rd03","0","23","1","1","3","1","","0","1","0","null","","","<img src = 'targets/13.png' width = '100%;'>","null","","","","","","","","","",""
"","html-keyboard-response","230","473715","0.0-10.0-3.10","0m0jrs2srj","many_one","0","indirect_first","0","er06rd03","0","23","1","1","3","1","","0","1","0","470","","","<img src = 'targets/mask.png' width = '100%;'>","68","neg","GS","abstract","1","category1/ma.png","targets/13.png","0","indirect","34",""
"","html-keyboard-response","231","475228","0.0-10.0-0.11","0m0jrs2srj","many_one","0","indirect_first","0","er06rd03","0","23","1","1","3","1","","0","1","0","null","","","<div style=""font-size:60px;"">+</div>","null","","","","","","","","","",""
"","html-keyboard-response","232","475321","0.0-10.0-1.11","0m0jrs2srj","many_one","0","indirect_first","0","er06rd03","0","23","1","1","3","1","","0","1","0","null","","","<img src = 'category1/GS2.png' width = '100%;'>","null","","","","","","","","","",""
"","html-keyboard-response","233","475592","0.0-10.0-2.11","0m0jrs2srj","many_one","0","indirect_first","0","er06rd03","0","23","1","1","3","1","","0","1","0","null","","","<img src = 'targets/43.png' width = '100%;'>","null","","","","","","","","","",""
"","html-keyboard-response","234","476219","0.0-10.0-3.11","0m0jrs2srj","many_one","0","indirect_first","0","er06rd03","0","23","1","1","3","1","","0","1","0","626","","","<img src = 'targets/mask.png' width = '100%;'>","68","neg","GS","GSnew","1","category1/GS2.png","targets/43.png","0","indirect","35",""
"","html-keyboard-response","235","477738","0.0-10.0-0.12","0m0jrs2srj","many_one","0","indirect_first","0","er06rd03","0","23","1","1","3","1","","0","1","0","null","","","<div style=""font-size:60px;"">+</div>","null","","","","","","","","","",""
"","html-keyboard-response","236","477833","0.0-10.0-1.12","0m0jrs2srj","many_one","0","indirect_first","0","er06rd03","0","23","1","1","3","1","","0","1","0","null","","","<img src = 'category4/CS10.png' width = '100%;'>","null","","","","","","","","","",""
"","html-keyboard-response","237","478093","0.0-10.0-2.12","0m0jrs2srj","many_one","0","indirect_first","0","er06rd03","0","23","1","1","3","1","","0","1","0","null","","","<img src = 'targets/29.png' width = '100%;'>","null","","","","","","","","","",""
"","html-keyboard-response","238","478469","0.0-10.0-3.12","0m0jrs2srj","many_one","0","indirect_first","0","er06rd03","0","23","1","1","3","1","","0","1","0","374","","","<img src = 'targets/mask.png' width = '100%;'>","75","pos","GS","GSold","4","category4/CS10.png","targets/29.png","1","indirect","36",""
"","html-keyboard-response","239","479986","0.0-10.0-0.13","0m0jrs2srj","many_one","0","indirect_first","0","er06rd03","0","23","1","1","3","1","","0","1","0","null","","","<div style=""font-size:60px;"">+</div>","null","","","","","","","","","",""
"","html-keyboard-response","240","480077","0.0-10.0-1.13","0m0jrs2srj","many_one","0","indirect_first","0","er06rd03","0","23","1","1","3","1","","0","1","0","null","","","<img src = 'category3/GS1.png' width = '100%;'>","null","","","","","","","","","",""
"","html-keyboard-response","241","480345","0.0-10.0-2.13","0m0jrs2srj","many_one","0","indirect_first","0","er06rd03","0","23","1","1","3","1","","0","1","0","null","","","<img src = 'targets/28.png' width = '100%;'>","null","","","","","","","","","",""
"","html-keyboard-response","242","481036","0.0-10.0-3.13","0m0jrs2srj","many_one","0","indirect_first","0","er06rd03","0","23","1","1","3","1","","0","1","0","690","","","<img src = 'targets/mask.png' width = '100%;'>","68","neg","GS","GSnew","3","category3/GS1.png","targets/28.png","0","indirect","37",""
"","html-keyboard-response","243","482558","0.0-10.0-0.14","0m0jrs2srj","many_one","0","indirect_first","0","er06rd03","0","23","1","1","3","1","","0","1","0","null","","","<div style=""font-size:60px;"">+</div>","null","","","","","","","","","",""
"","html-keyboard-response","244","482660","0.0-10.0-1.14","0m0jrs2srj","many_one","0","indirect_first","0","er06rd03","0","23","1","1","3","1","","0","1","0","null","","","<img src = 'category3/GS2.png' width = '100%;'>","null","","","","","","","","","",""
"","html-keyboard-response","245","482926","0.0-10.0-2.14","0m0jrs2srj","many_one","0","indirect_first","0","er06rd03","0","23","1","1","3","1","","0","1","0","null","","","<img src = 'targets/31.png' width = '100%;'>","null","","","","","","","","","",""
"","html-keyboard-response","246","483539","0.0-10.0-3.14","0m0jrs2srj","many_one","0","indirect_first","0","er06rd03","0","23","1","1","3","1","","0","1","0","611","","","<img src = 'targets/mask.png' width = '100%;'>","75","neg","GS","GSnew","3","category3/GS2.png","targets/31.png","1","indirect","38",""
"","html-keyboard-response","247","485059","0.0-10.0-0.15","0m0jrs2srj","many_one","0","indirect_first","0","er06rd03","0","23","1","1","3","1","","0","1","0","null","","","<div style=""font-size:60px;"">+</div>","null","","","","","","","","","",""
"","html-keyboard-response","248","485154","0.0-10.0-1.15","0m0jrs2srj","many_one","0","indirect_first","0","er06rd03","0","23","1","1","3","1","","0","1","0","null","","","<img src = 'category4/CS7.png' width = '100%;'>","null","","","","","","","","","",""
"","html-keyboard-response","249","485422","0.0-10.0-2.15","0m0jrs2srj","many_one","0","indirect_first","0","er06rd03","0","23","1","1","3","1","","0","1","0","null","","","<img src = 'targets/8.png' width = '100%;'>","null","","","","","","","","","",""
"","html-keyboard-response","250","485791","0.0-10.0-3.15","0m0jrs2srj","many_one","0","indirect_first","0","er06rd03","0","23","1","1","3","1","","0","1","0","367","","","<img src = 'targets/mask.png' width = '100%;'>","75","pos","GS","GSold","4","category4/CS7.png","targets/8.png","1","indirect","39",""
"","html-keyboard-response","251","487303","0.0-10.0-0.16","0m0jrs2srj","many_one","0","indirect_first","0","er06rd03","0","23","1","1","3","1","","0","1","0","null","","","<div style=""font-size:60px;"">+</div>","null","","","","","","","","","",""
"","html-keyboard-response","252","487409","0.0-10.0-1.16","0m0jrs2srj","many_one","0","indirect_first","0","er06rd03","0","23","1","1","3","1","","0","1","0","null","","","<img src = 'category3/CS9.png' width = '100%;'>","null","","","","","","","","","",""
"","html-keyboard-response","253","487671","0.0-10.0-2.16","0m0jrs2srj","many_one","0","indirect_first","0","er06rd03","0","23","1","1","3","1","","0","1","0","null","","","<img src = 'targets/15.png' width = '100%;'>","null","","","","","","","","","",""
"","html-keyboard-response","254","488112","0.0-10.0-3.16","0m0jrs2srj","many_one","0","indirect_first","0","er06rd03","0","23","1","1","3","1","","0","1","0","440","","","<img src = 'targets/mask.png' width = '100%;'>","68","neg","GS","GSold","3","category3/CS9.png","targets/15.png","0","indirect","40",""
"","html-keyboard-response","255","489633","0.0-10.0-0.17","0m0jrs2srj","many_one","0","indirect_first","0","er06rd03","0","23","1","1","3","1","","0","1","0","null","","","<div style=""font-size:60px;"">+</div>","null","","","","","","","","","",""
"","html-keyboard-response","256","489726","0.0-10.0-1.17","0m0jrs2srj","many_one","0","indirect_first","0","er06rd03","0","23","1","1","3","1","","0","1","0","null","","","<img src = 'category1/GS3.png' width = '100%;'>","null","","","","","","","","","",""
"","html-keyboard-response","257","489993","0.0-10.0-2.17","0m0jrs2srj","many_one","0","indirect_first","0","er06rd03","0","23","1","1","3","1","","0","1","0","null","","","<img src = 'targets/20.png' width = '100%;'>","null","","","","","","","","","",""
"","html-keyboard-response","258","490616","0.0-10.0-3.17","0m0jrs2srj","many_one","0","indirect_first","0","er06rd03","0","23","1","1","3","1","","0","1","0","621","","","<img src = 'targets/mask.png' width = '100%;'>","75","neg","GS","GSnew","1","category1/GS3.png","targets/20.png","1","indirect","41",""
"","html-keyboard-response","259","492128","0.0-10.0-0.18","0m0jrs2srj","many_one","0","indirect_first","0","er06rd03","0","23","1","1","3","1","","0","1","0","null","","","<div style=""font-size:60px;"">+</div>","null","","","","","","","","","",""
"","html-keyboard-response","260","492223","0.0-10.0-1.18","0m0jrs2srj","many_one","0","indirect_first","0","er06rd03","0","23","1","1","3","1","","0","1","0","null","","","<img src = 'category2/GS2.png' width = '100%;'>","null","","","","","","","","","",""
"","html-keyboard-response","261","492496","0.0-10.0-2.18","0m0jrs2srj","many_one","0","indirect_first","0","er06rd03","0","23","1","1","3","1","","0","1","0","null","","","<img src = 'targets/3.png' width = '100%;'>","null","","","","","","","","","",""
"","html-keyboard-response","262","493156","0.0-10.0-3.18","0m0jrs2srj","many_one","0","indirect_first","0","er06rd03","0","23","1","1","3","1","","0","1","0","659","","","<img src = 'targets/mask.png' width = '100%;'>","68","pos","GS","GSnew","2","category2/GS2.png","targets/3.png","0","indirect","42",""
"","html-keyboard-response","263","494679","0.0-10.0-0.19","0m0jrs2srj","many_one","0","indirect_first","0","er06rd03","0","23","1","1","3","1","","0","1","0","null","","","<div style=""font-size:60px;"">+</div>","null","","","","","","","","","",""
"","html-keyboard-response","264","494770","0.0-10.0-1.19","0m0jrs2srj","many_one","0","indirect_first","0","er06rd03","0","23","1","1","3","1","","0","1","0","null","","","<img src = 'category4/GS3.png' width = '100%;'>","null","","","","","","","","","",""
"","html-keyboard-response","265","495034","0.0-10.0-2.19","0m0jrs2srj","many_one","0","indirect_first","0","er06rd03","0","23","1","1","3","1","","0","1","0","null","","","<img src = 'targets/39.png' width = '100%;'>","null","","","","","","","","","",""
"","html-keyboard-response","266","495877","0.0-10.0-3.19","0m0jrs2srj","many_one","0","indirect_first","0","er06rd03","0","23","1","1","3","1","","0","1","0","842","","","<img src = 'targets/mask.png' width = '100%;'>","75","pos","GS","GSnew","4","category4/GS3.png","targets/39.png","1","indirect","43",""
"","html-keyboard-response","267","497384","0.0-10.0-0.20","0m0jrs2srj","many_one","0","indirect_first","0","er06rd03","0","23","1","1","3","1","","0","1","0","null","","","<div style=""font-size:60px;"">+</div>","null","","","","","","","","","",""
"","html-keyboard-response","268","497478","0.0-10.0-1.20","0m0jrs2srj","many_one","0","indirect_first","0","er06rd03","0","23","1","1","3","1","","0","1","0","null","","","<img src = 'category4/GS2.png' width = '100%;'>","null","","","","","","","","","",""
"","html-keyboard-response","269","497735","0.0-10.0-2.20","0m0jrs2srj","many_one","0","indirect_first","0","er06rd03","0","23","1","1","3","1","","0","1","0","null","","","<img src = 'targets/24.png' width = '100%;'>","null","","","","","","","","","",""
"","html-keyboard-response","270","498385","0.0-10.0-3.20","0m0jrs2srj","many_one","0","indirect_first","0","er06rd03","0","23","1","1","3","1","","0","1","0","649","","","<img src = 'targets/mask.png' width = '100%;'>","68","pos","GS","GSnew","4","category4/GS2.png","targets/24.png","0","indirect","44",""
"","html-keyboard-response","271","499895","0.0-10.0-0.21","0m0jrs2srj","many_one","0","indirect_first","0","er06rd03","0","23","1","1","3","1","","0","1","0","null","","","<div style=""font-size:60px;"">+</div>","null","","","","","","","","","",""
"","html-keyboard-response","272","499988","0.0-10.0-1.21","0m0jrs2srj","many_one","0","indirect_first","0","er06rd03","0","23","1","1","3","1","","0","1","0","null","","","<img src = 'category2/GS1.png' width = '100%;'>","null","","","","","","","","","",""
"","html-keyboard-response","273","500250","0.0-10.0-2.21","0m0jrs2srj","many_one","0","indirect_first","0","er06rd03","0","23","1","1","3","1","","0","1","0","null","","","<img src = 'targets/26.png' width = '100%;'>","null","","","","","","","","","",""
"","html-keyboard-response","274","500614","0.0-10.0-3.21","0m0jrs2srj","many_one","0","indirect_first","0","er06rd03","0","23","1","1","3","1","","0","1","0","362","","","<img src = 'targets/mask.png' width = '100%;'>","75","pos","GS","GSnew","2","category2/GS1.png","targets/26.png","1","indirect","45",""
"","html-keyboard-response","275","502129","0.0-10.0-0.22","0m0jrs2srj","many_one","0","indirect_first","0","er06rd03","0","23","1","1","3","1","","0","1","0","null","","","<div style=""font-size:60px;"">+</div>","null","","","","","","","","","",""
"","html-keyboard-response","276","502230","0.0-10.0-1.22","0m0jrs2srj","many_one","0","indirect_first","0","er06rd03","0","23","1","1","3","1","","0","1","0","null","","","<img src = 'category1/GS1.png' width = '100%;'>","null","","","","","","","","","",""
"","html-keyboard-response","277","502483","0.0-10.0-2.22","0m0jrs2srj","many_one","0","indirect_first","0","er06rd03","0","23","1","1","3","1","","0","1","0","null","","","<img src = 'targets/34.png' width = '100%;'>","null","","","","","","","","","",""
"","html-keyboard-response","278","502875","0.0-10.0-3.22","0m0jrs2srj","many_one","0","indirect_first","0","er06rd03","0","23","1","1","3","1","","0","1","0","390","","","<img src = 'targets/mask.png' width = '100%;'>","75","neg","GS","GSnew","1","category1/GS1.png","targets/34.png","1","indirect","46",""
"","html-keyboard-response","279","504401","0.0-10.0-0.23","0m0jrs2srj","many_one","0","indirect_first","0","er06rd03","0","23","1","1","3","1","","0","1","0","null","","","<div style=""font-size:60px;"">+</div>","null","","","","","","","","","",""
"","html-keyboard-response","280","504503","0.0-10.0-1.23","0m0jrs2srj","many_one","0","indirect_first","0","er06rd03","0","23","1","1","3","1","","0","1","0","null","","","<img src = 'category4/GS1.png' width = '100%;'>","null","","","","","","","","","",""
"","html-keyboard-response","281","504770","0.0-10.0-2.23","0m0jrs2srj","many_one","0","indirect_first","0","er06rd03","0","23","1","1","3","1","","0","1","0","null","","","<img src = 'targets/11.png' width = '100%;'>","null","","","","","","","","","",""
"","html-keyboard-response","282","505095","0.0-10.0-3.23","0m0jrs2srj","many_one","0","indirect_first","0","er06rd03","0","23","1","1","3","1","","0","1","0","322","","","<img src = 'targets/mask.png' width = '100%;'>","75","pos","GS","GSnew","4","category4/GS1.png","targets/11.png","1","indirect","47",""
"","survey-html-form","283","510564","0.0-11.0","0m0jrs2srj","many_one","0","indirect_first","0","er06rd03","0","23","1","1","3","1","","0","1","0","4962","","{}","","","","","","","","","","","",""
"","image-slider-response","284","522612","0.0-12.0-0.0","0m0jrs2srj","many_one","0","indirect_first","0","er06rd03","0","23","1","1","3","1","","0","1","0","10004","","","","","pos","GS","GSnew","4","category4/GS2.png","targets/24.png","","direct","","24"
"","image-slider-response","285","527056","0.0-12.0-0.1","0m0jrs2srj","many_one","0","indirect_first","0","er06rd03","0","23","1","1","3","1","","0","1","0","4439","","","","","neg","GS","abstract","1","category1/ma.png","targets/13.png","","direct","","21"
"","image-slider-response","286","532098","0.0-12.0-0.2","0m0jrs2srj","many_one","0","indirect_first","0","er06rd03","0","23","1","1","3","1","","0","1","0","5035","","","","","neg","GS","GSold","1","category1/CS3.png","targets/14.png","","direct","","26"
"","image-slider-response","287","537498","0.0-12.0-0.3","0m0jrs2srj","many_one","0","indirect_first","0","er06rd03","0","23","1","1","3","1","","0","1","0","5392","","","","","neg","GS","GSold","3","category3/CS9.png","targets/15.png","","direct","","-35"
"","image-slider-response","288","542541","0.0-12.0-0.4","0m0jrs2srj","many_one","0","indirect_first","0","er06rd03","0","23","1","1","3","1","","0","1","0","5035","","","","","pos","GS","GSnew","4","category4/GS1.png","targets/11.png","","direct","","40"
"","image-slider-response","289","545719","0.0-12.0-0.5","0m0jrs2srj","many_one","0","indirect_first","0","er06rd03","0","23","1","1","3","1","","0","1","0","3172","","","","","neg","CS","CS","1","category1/CS2.png","targets/41.png","","direct","","-26"
"","image-slider-response","290","549351","0.0-12.0-0.6","0m0jrs2srj","many_one","0","indirect_first","0","er06rd03","0","23","1","1","3","1","","0","1","0","3626","","","","","pos","GS","GSnew","2","category2/GS1.png","targets/26.png","","direct","","49"
"","image-slider-response","291","551978","0.0-12.0-0.7","0m0jrs2srj","many_one","0","indirect_first","0","er06rd03","0","23","1","1","3","1","","0","1","0","2620","","","","","pos","GS","GSold","2","category2/CS4.png","targets/46.png","","direct","","29"
"","image-slider-response","292","555450","0.0-12.0-0.8","0m0jrs2srj","many_one","0","indirect_first","0","er06rd03","0","23","1","1","3","1","","0","1","0","3464","","","","","neg","CS","CS","3","category3/CS8.png","targets/35.png","","direct","","-100"
"","image-slider-response","293","559033","0.0-12.0-0.9","0m0jrs2srj","many_one","0","indirect_first","0","er06rd03","0","23","1","1","3","1","","0","1","0","3578","","","","","pos","CS","CS","4","category4/CS3.png","targets/6.png","","direct","","100"
"","image-slider-response","294","562599","0.0-12.0-0.10","0m0jrs2srj","many_one","0","indirect_first","0","er06rd03","0","23","1","1","3","1","","0","1","0","3559","","","","","neg","GS","GSold","3","category3/CS7.png","targets/10.png","","direct","","-62"
"","image-slider-response","295","567174","0.0-12.0-0.11","0m0jrs2srj","many_one","0","indirect_first","0","er06rd03","0","23","1","1","3","1","","0","1","0","4569","","","","","neg","GS","GSnew","1","category1/GS2.png","targets/43.png","","direct","","17"
"","image-slider-response","296","571738","0.0-12.0-0.12","0m0jrs2srj","many_one","0","indirect_first","0","er06rd03","0","23","1","1","3","1","","0","1","0","4560","","","","","neg","GS","abstract","3","category3/wang.png","targets/19.png","","direct","","-71"
"","image-slider-response","297","574837","0.0-12.0-0.13","0m0jrs2srj","many_one","0","indirect_first","0","er06rd03","0","23","1","1","3","1","","0","1","0","3095","","","","","neg","GS","GSnew","1","category1/GS1.png","targets/34.png","","direct","","24"
"","image-slider-response","298","577815","0.0-12.0-0.14","0m0jrs2srj","many_one","0","indirect_first","0","er06rd03","0","23","1","1","3","1","","0","1","0","2972","","","","","pos","CS","CS","4","category4/CS8.png","targets/48.png","","direct","","60"
"","image-slider-response","299","580864","0.0-12.0-0.15","0m0jrs2srj","many_one","0","indirect_first","0","er06rd03","0","23","1","1","3","1","","0","1","0","3043","","","","","neg","CS","CS","3","category3/CS1.png","targets/25.png","","direct","","-76"
"","image-slider-response","300","586046","0.0-12.0-0.16","0m0jrs2srj","many_one","0","indirect_first","0","er06rd03","0","23","1","1","3","1","","0","1","0","5174","","","","","neg","CS","CS","1","category1/CS8.png","targets/16.png","","direct","","-17"
"","image-slider-response","301","589831","0.0-12.0-0.17","0m0jrs2srj","many_one","0","indirect_first","0","er06rd03","0","23","1","1","3","1","","0","1","0","3780","","","","","neg","GS","GSold","1","category1/CS4.png","targets/44.png","","direct","","18"
"","image-slider-response","302","592746","0.0-12.0-0.18","0m0jrs2srj","many_one","0","indirect_first","0","er06rd03","0","23","1","1","3","1","","0","1","0","2908","","","","","pos","GS","GSold","4","category4/CS6.png","targets/12.png","","direct","","54"
"","image-slider-response","303","597660","0.0-12.0-0.19","0m0jrs2srj","many_one","0","indirect_first","0","er06rd03","0","23","1","1","3","1","","0","1","0","4906","","","","","pos","CS","CS","2","category2/CS5.png","targets/1.png","","direct","","66"
"","image-slider-response","304","600593","0.0-12.0-0.20","0m0jrs2srj","many_one","0","indirect_first","0","er06rd03","0","23","1","1","3","1","","0","1","0","2928","","","","","neg","CS","CS","1","category1/CS6.png","targets/36.png","","direct","","22"
"","image-slider-response","305","603542","0.0-12.0-0.21","0m0jrs2srj","many_one","0","indirect_first","0","er06rd03","0","23","1","1","3","1","","0","1","0","2943","","","","","neg","CS","CS","3","category3/CS3.png","targets/42.png","","direct","","-70"
"","image-slider-response","306","606690","0.0-12.0-0.22","0m0jrs2srj","many_one","0","indirect_first","0","er06rd03","0","23","1","1","3","1","","0","1","0","3146","","","","","pos","GS","GSnew","2","category2/GS2.png","targets/3.png","","direct","","31"
"","image-slider-response","307","609645","0.0-12.0-0.23","0m0jrs2srj","many_one","0","indirect_first","0","er06rd03","0","23","1","1","3","1","","0","1","0","2950","","","","","pos","CS","CS","2","category2/CS10.png","targets/21.png","","direct","","42"
"","image-slider-response","308","612758","0.0-12.0-0.24","0m0jrs2srj","many_one","0","indirect_first","0","er06rd03","0","23","1","1","3","1","","0","1","0","3108","","","","","pos","GS","GSnew","2","category2/GS3.png","targets/2.png","","direct","","80"
"","image-slider-response","309","615922","0.0-12.0-0.25","0m0jrs2srj","many_one","0","indirect_first","0","er06rd03","0","23","1","1","3","1","","0","1","0","3158","","","","","neg","GS","GSold","3","category3/CS6.png","targets/33.png","","direct","","-92"
"","image-slider-response","310","619572","0.0-12.0-0.26","0m0jrs2srj","many_one","0","indirect_first","0","er06rd03","0","23","1","1","3","1","","0","1","0","3641","","","","","pos","GS","abstract","2","category2/men.png","targets/5.png","","direct","","27"
"","image-slider-response","311","624823","0.0-12.0-0.27","0m0jrs2srj","many_one","0","indirect_first","0","er06rd03","0","23","1","1","3","1","","0","1","0","5245","","","","","neg","GS","GSnew","3","category3/GS1.png","targets/28.png","","direct","","-67"
"","image-slider-response","312","627845","0.0-12.0-0.28","0m0jrs2srj","many_one","0","indirect_first","0","er06rd03","0","23","1","1","3","1","","0","1","0","3015","","","","","neg","GS","GSnew","3","category3/GS2.png","targets/31.png","","direct","","-85"
"","image-slider-response","313","630525","0.0-12.0-0.29","0m0jrs2srj","many_one","0","indirect_first","0","er06rd03","0","23","1","1","3","1","","0","1","0","2676","","","","","neg","GS","GSold","1","category1/CS10.png","targets/9.png","","direct","","29"
"","image-slider-response","314","633105","0.0-12.0-0.30","0m0jrs2srj","many_one","0","indirect_first","0","er06rd03","0","23","1","1","3","1","","0","1","0","2575","","","","","neg","GS","GSnew","3","category3/GS3.png","targets/23.png","","direct","","-36"
"","image-slider-response","315","635834","0.0-12.0-0.31","0m0jrs2srj","many_one","0","indirect_first","0","er06rd03","0","23","1","1","3","1","","0","1","0","2724","","","","","pos","CS","CS","2","category2/CS8.png","targets/45.png","","direct","","41"
"","image-slider-response","316","638432","0.0-12.0-0.32","0m0jrs2srj","many_one","0","indirect_first","0","er06rd03","0","23","1","1","3","1","","0","1","0","2594","","","","","pos","CS","CS","4","category4/CS2.png","targets/27.png","","direct","","38"
"","image-slider-response","317","640865","0.0-12.0-0.33","0m0jrs2srj","many_one","0","indirect_first","0","er06rd03","0","23","1","1","3","1","","0","1","0","2425","","","","","pos","GS","GSold","2","category2/CS7.png","targets/22.png","","direct","","28"
"","image-slider-response","318","643992","0.0-12.0-0.34","0m0jrs2srj","many_one","0","indirect_first","0","er06rd03","0","23","1","1","3","1","","0","1","0","3119","","","","","pos","GS","abstract","4","category4/lin.png","targets/7.png","","direct","","24"
"","image-slider-response","319","647157","0.0-12.0-0.35","0m0jrs2srj","many_one","0","indirect_first","0","er06rd03","0","23","1","1","3","1","","0","1","0","3160","","","","","pos","CS","CS","2","category2/CS3.png","targets/32.png","","direct","","33"
"","image-slider-response","320","649678","0.0-12.0-0.36","0m0jrs2srj","many_one","0","indirect_first","0","er06rd03","0","23","1","1","3","1","","0","1","0","2513","","","","","pos","CS","CS","2","category2/CS1.png","targets/47.png","","direct","","30"
"","image-slider-response","321","652426","0.0-12.0-0.37","0m0jrs2srj","many_one","0","indirect_first","0","er06rd03","0","23","1","1","3","1","","0","1","0","2742","","","","","pos","CS","CS","4","category4/CS4.png","targets/4.png","","direct","","59"
"","image-slider-response","322","654852","0.0-12.0-0.38","0m0jrs2srj","many_one","0","indirect_first","0","er06rd03","0","23","1","1","3","1","","0","1","0","2421","","","","","pos","GS","GSold","2","category2/CS6.png","targets/17.png","","direct","","25"
"","image-slider-response","323","657734","0.0-12.0-0.39","0m0jrs2srj","many_one","0","indirect_first","0","er06rd03","0","23","1","1","3","1","","0","1","0","2876","","","","","pos","CS","CS","4","category4/CS9.png","targets/18.png","","direct","","40"
"","image-slider-response","324","660079","0.0-12.0-0.40","0m0jrs2srj","many_one","0","indirect_first","0","er06rd03","0","23","1","1","3","1","","0","1","0","2340","","","","","pos","GS","GSold","4","category4/CS7.png","targets/8.png","","direct","","35"
"","image-slider-response","325","662616","0.0-12.0-0.41","0m0jrs2srj","many_one","0","indirect_first","0","er06rd03","0","23","1","1","3","1","","0","1","0","2528","","","","","pos","GS","GSnew","4","category4/GS3.png","targets/39.png","","direct","","30"
"","image-slider-response","326","665328","0.0-12.0-0.42","0m0jrs2srj","many_one","0","indirect_first","0","er06rd03","0","23","1","1","3","1","","0","1","0","2706","","","","","neg","CS","CS","3","category3/CS10.png","targets/30.png","","direct","","-57"
"","image-slider-response","327","668131","0.0-12.0-0.43","0m0jrs2srj","many_one","0","indirect_first","0","er06rd03","0","23","1","1","3","1","","0","1","0","2796","","","","","neg","CS","CS","1","category1/CS7.png","targets/40.png","","direct","","-17"
"","image-slider-response","328","672027","0.0-12.0-0.44","0m0jrs2srj","many_one","0","indirect_first","0","er06rd03","0","23","1","1","3","1","","0","1","0","3892","","","","","neg","GS","GSnew","1","category1/GS3.png","targets/20.png","","direct","","19"
"","image-slider-response","329","675839","0.0-12.0-0.45","0m0jrs2srj","many_one","0","indirect_first","0","er06rd03","0","23","1","1","3","1","","0","1","0","3805","","","","","neg","CS","CS","1","category1/CS5.png","targets/37.png","","direct","","-2"
"","image-slider-response","330","678759","0.0-12.0-0.46","0m0jrs2srj","many_one","0","indirect_first","0","er06rd03","0","23","1","1","3","1","","0","1","0","2914","","","","","pos","GS","GSold","4","category4/CS10.png","targets/29.png","","direct","","46"
