"success","trial_type","trial_index","time_elapsed","internal_node_id","subject","condition","condition_code","measure","measure_code","codeword","gender","age","education","chinese","fach","handedness","comment","hinschauen","ablenkung","gewissenhaft","rt","url","responses","stimulus","key_press","val","type","type_specific","category","cs_selected","target","indirect","task","nr_pres","response"
"true","fullscreen","0","3349","0.0-0.0","z1gj6a3qrv","one_one","1","indirect_first","0","sa07rt24","1","46","2","1","1","2","","0","1","0","","","","","","","","","","","","","","",""
"","external-html","1","51352","0.0-1.0","z1gj6a3qrv","one_one","1","indirect_first","0","sa07rt24","1","46","2","1","1","2","","0","1","0","47947","text/information.html","","","","","","","","","","","","",""
"","external-html","2","66461","0.0-2.0","z1gj6a3qrv","one_one","1","indirect_first","0","sa07rt24","1","46","2","1","1","2","","0","1","0","15030","text/consent.html","","","","","","","","","","","","",""
"","survey-html-form","3","141611","0.0-3.0","z1gj6a3qrv","one_one","1","indirect_first","0","sa07rt24","1","46","2","1","1","2","","0","1","0","75148","","{""codeword_enter"":""sa07rt24""}","","","","","","","","","","","",""
"","survey-html-form","4","161965","0.0-4.0","z1gj6a3qrv","one_one","1","indirect_first","0","sa07rt24","1","46","2","1","1","2","","0","1","0","20348","","{""age"":""46"",""education"":""2"",""subject"":""1"",""gender"":""1"",""handedness"":""2"",""chinese"":""1""}","","","","","","","","","","","",""
"","survey-html-form","5","164831","0.0-5.0","z1gj6a3qrv","one_one","1","indirect_first","0","sa07rt24","1","46","2","1","1","2","","0","1","0","2867","","{}","","","","","","","","","","","",""
"","html-keyboard-response","6","168860","0.0-6.0-0.0-0.0","z1gj6a3qrv","one_one","1","indirect_first","0","sa07rt24","1","46","2","1","1","2","","0","1","0","null","","","<div class = 'row'><div class = 'column'><img src = 'usneg/6570.1.bmp' width = '100%;'></div><div class = 'column'><img src = 'category1/CS9.png' width = '70%;'></div></div>","null","neg","CS","CS","1","category1/CS9.png","","","","",""
"","html-keyboard-response","7","171398","0.0-6.0-0.0-0.1","z1gj6a3qrv","one_one","1","indirect_first","0","sa07rt24","1","46","2","1","1","2","","0","1","0","null","","","<div class = 'row'><div class = 'column'><img src = 'category2/CS4.png' width = '70%;'></div><div class = 'column'><img src = 'usneg/2750.bmp' width = '100%;'></div></div>","null","neg","CS","CS","2","category2/CS4.png","","","","",""
"","html-keyboard-response","8","173940","0.0-6.0-0.0-0.2","z1gj6a3qrv","one_one","1","indirect_first","0","sa07rt24","1","46","2","1","1","2","","0","1","0","null","","","<div class = 'row'><div class = 'column'><img src = 'category4/CS1.png' width = '70%;'></div><div class = 'column'><img src = 'uspos/5760.bmp' width = '100%;'></div></div>","null","pos","CS","CS","4","category4/CS1.png","","","","",""
"","html-keyboard-response","9","176469","0.0-6.0-0.0-0.3","z1gj6a3qrv","one_one","1","indirect_first","0","sa07rt24","1","46","2","1","1","2","","0","1","0","null","","","<div class = 'row'><div class = 'column'><img src = 'usneg/6570.1.bmp' width = '100%;'></div><div class = 'column'><img src = 'category1/CS9.png' width = '70%;'></div></div>","null","neg","CS","CS","1","category1/CS9.png","","","","",""
"","html-keyboard-response","10","179009","0.0-6.0-0.0-0.4","z1gj6a3qrv","one_one","1","indirect_first","0","sa07rt24","1","46","2","1","1","2","","0","1","0","null","","","<div class = 'row'><div class = 'column'><img src = 'category3/CS7.png' width = '70%;'></div><div class = 'column'><img src = 'uspos/2030.bmp' width = '100%;'></div></div>","null","pos","CS","CS","3","category3/CS7.png","","","","",""
"","html-keyboard-response","11","181540","0.0-6.0-0.0-0.5","z1gj6a3qrv","one_one","1","indirect_first","0","sa07rt24","1","46","2","1","1","2","","0","1","0","null","","","<div class = 'row'><div class = 'column'><img src = 'category4/CS1.png' width = '70%;'></div><div class = 'column'><img src = 'uspos/5760.bmp' width = '100%;'></div></div>","null","pos","CS","CS","4","category4/CS1.png","","","","",""
"","html-keyboard-response","12","184069","0.0-6.0-0.0-0.6","z1gj6a3qrv","one_one","1","indirect_first","0","sa07rt24","1","46","2","1","1","2","","0","1","0","null","","","<div class = 'row'><div class = 'column'><img src = 'category2/CS4.png' width = '70%;'></div><div class = 'column'><img src = 'usneg/2750.bmp' width = '100%;'></div></div>","null","neg","CS","CS","2","category2/CS4.png","","","","",""
"","html-keyboard-response","13","186609","0.0-6.0-0.0-0.7","z1gj6a3qrv","one_one","1","indirect_first","0","sa07rt24","1","46","2","1","1","2","","0","1","0","null","","","<div class = 'row'><div class = 'column'><img src = 'category4/CS1.png' width = '70%;'></div><div class = 'column'><img src = 'uspos/5760.bmp' width = '100%;'></div></div>","null","pos","CS","CS","4","category4/CS1.png","","","","",""
"","html-keyboard-response","14","189129","0.0-6.0-0.0-0.8","z1gj6a3qrv","one_one","1","indirect_first","0","sa07rt24","1","46","2","1","1","2","","0","1","0","null","","","<div class = 'row'><div class = 'column'><img src = 'category2/CS4.png' width = '70%;'></div><div class = 'column'><img src = 'usneg/2750.bmp' width = '100%;'></div></div>","null","neg","CS","CS","2","category2/CS4.png","","","","",""
"","html-keyboard-response","15","191668","0.0-6.0-0.0-0.9","z1gj6a3qrv","one_one","1","indirect_first","0","sa07rt24","1","46","2","1","1","2","","0","1","0","null","","","<div class = 'row'><div class = 'column'><img src = 'category3/CS7.png' width = '70%;'></div><div class = 'column'><img src = 'uspos/2030.bmp' width = '100%;'></div></div>","null","pos","CS","CS","3","category3/CS7.png","","","","",""
"","html-keyboard-response","16","194189","0.0-6.0-0.0-0.10","z1gj6a3qrv","one_one","1","indirect_first","0","sa07rt24","1","46","2","1","1","2","","0","1","0","null","","","<div class = 'row'><div class = 'column'><img src = 'usneg/6570.1.bmp' width = '100%;'></div><div class = 'column'><img src = 'category1/CS9.png' width = '70%;'></div></div>","null","neg","CS","CS","1","category1/CS9.png","","","","",""
"","html-keyboard-response","17","196724","0.0-6.0-0.0-0.11","z1gj6a3qrv","one_one","1","indirect_first","0","sa07rt24","1","46","2","1","1","2","","0","1","0","null","","","<div class = 'row'><div class = 'column'><img src = 'category3/CS7.png' width = '70%;'></div><div class = 'column'><img src = 'uspos/2030.bmp' width = '100%;'></div></div>","null","pos","CS","CS","3","category3/CS7.png","","","","",""
"","html-keyboard-response","18","199226","0.0-6.0-0.0-0.12","z1gj6a3qrv","one_one","1","indirect_first","0","sa07rt24","1","46","2","1","1","2","","0","1","0","null","","","<div class = 'row'><div class = 'column'><img src = 'uspos/5760.bmp' width = '100%;'></div><div class = 'column'><img src = 'category4/CS1.png' width = '70%;'></div></div>","null","pos","CS","CS","4","category4/CS1.png","","","","",""
"","html-keyboard-response","19","201729","0.0-6.0-0.0-0.13","z1gj6a3qrv","one_one","1","indirect_first","0","sa07rt24","1","46","2","1","1","2","","0","1","0","null","","","<div class = 'row'><div class = 'column'><img src = 'uspos/2030.bmp' width = '100%;'></div><div class = 'column'><img src = 'category3/CS7.png' width = '70%;'></div></div>","null","pos","CS","CS","3","category3/CS7.png","","","","",""
"","html-keyboard-response","20","204248","0.0-6.0-0.0-0.14","z1gj6a3qrv","one_one","1","indirect_first","0","sa07rt24","1","46","2","1","1","2","","0","1","0","null","","","<div class = 'row'><div class = 'column'><img src = 'usneg/6570.1.bmp' width = '100%;'></div><div class = 'column'><img src = 'category1/CS9.png' width = '70%;'></div></div>","null","neg","CS","CS","1","category1/CS9.png","","","","",""
"","html-keyboard-response","21","206769","0.0-6.0-0.0-0.15","z1gj6a3qrv","one_one","1","indirect_first","0","sa07rt24","1","46","2","1","1","2","","0","1","0","null","","","<div class = 'row'><div class = 'column'><img src = 'category2/CS4.png' width = '70%;'></div><div class = 'column'><img src = 'usneg/2750.bmp' width = '100%;'></div></div>","null","neg","CS","CS","2","category2/CS4.png","","","","",""
"","html-keyboard-response","22","209309","0.0-6.0-0.0-0.16","z1gj6a3qrv","one_one","1","indirect_first","0","sa07rt24","1","46","2","1","1","2","","0","1","0","null","","","<div class = 'row'><div class = 'column'><img src = 'category3/CS7.png' width = '70%;'></div><div class = 'column'><img src = 'uspos/2030.bmp' width = '100%;'></div></div>","null","pos","CS","CS","3","category3/CS7.png","","","","",""
"","html-keyboard-response","23","211861","0.0-6.0-0.0-0.17","z1gj6a3qrv","one_one","1","indirect_first","0","sa07rt24","1","46","2","1","1","2","","0","1","0","null","","","<div class = 'row'><div class = 'column'><img src = 'usneg/6570.1.bmp' width = '100%;'></div><div class = 'column'><img src = 'category1/CS9.png' width = '70%;'></div></div>","null","neg","CS","CS","1","category1/CS9.png","","","","",""
"","html-keyboard-response","24","214399","0.0-6.0-0.0-0.18","z1gj6a3qrv","one_one","1","indirect_first","0","sa07rt24","1","46","2","1","1","2","","0","1","0","null","","","<div class = 'row'><div class = 'column'><img src = 'usneg/2750.bmp' width = '100%;'></div><div class = 'column'><img src = 'category2/CS4.png' width = '70%;'></div></div>","null","neg","CS","CS","2","category2/CS4.png","","","","",""
"","html-keyboard-response","25","216939","0.0-6.0-0.0-0.19","z1gj6a3qrv","one_one","1","indirect_first","0","sa07rt24","1","46","2","1","1","2","","0","1","0","null","","","<div class = 'row'><div class = 'column'><img src = 'category4/CS1.png' width = '70%;'></div><div class = 'column'><img src = 'uspos/5760.bmp' width = '100%;'></div></div>","null","pos","CS","CS","4","category4/CS1.png","","","","",""
"","survey-html-form","26","221642","0.0-6.0-1.0","z1gj6a3qrv","one_one","1","indirect_first","0","sa07rt24","1","46","2","1","1","2","","0","1","0","4183","","{}","","","","","","","","","","","",""
"","html-keyboard-response","27","225679","0.0-6.0-2.0-0.0","z1gj6a3qrv","one_one","1","indirect_first","0","sa07rt24","1","46","2","1","1","2","","0","1","0","null","","","<div class = 'row'><div class = 'column'><img src = 'uspos/2030.bmp' width = '100%;'></div><div class = 'column'><img src = 'category3/CS7.png' width = '70%;'></div></div>","null","pos","CS","CS","3","category3/CS7.png","","","","",""
"","html-keyboard-response","28","228219","0.0-6.0-2.0-0.1","z1gj6a3qrv","one_one","1","indirect_first","0","sa07rt24","1","46","2","1","1","2","","0","1","0","null","","","<div class = 'row'><div class = 'column'><img src = 'usneg/6570.1.bmp' width = '100%;'></div><div class = 'column'><img src = 'category1/CS9.png' width = '70%;'></div></div>","null","neg","CS","CS","1","category1/CS9.png","","","","",""
"","html-keyboard-response","29","230760","0.0-6.0-2.0-0.2","z1gj6a3qrv","one_one","1","indirect_first","0","sa07rt24","1","46","2","1","1","2","","0","1","0","null","","","<div class = 'row'><div class = 'column'><img src = 'uspos/5760.bmp' width = '100%;'></div><div class = 'column'><img src = 'category4/CS1.png' width = '70%;'></div></div>","null","pos","CS","CS","4","category4/CS1.png","","","","",""
"","html-keyboard-response","30","233299","0.0-6.0-2.0-0.3","z1gj6a3qrv","one_one","1","indirect_first","0","sa07rt24","1","46","2","1","1","2","","0","1","0","null","","","<div class = 'row'><div class = 'column'><img src = 'category2/CS4.png' width = '70%;'></div><div class = 'column'><img src = 'usneg/2750.bmp' width = '100%;'></div></div>","null","neg","CS","CS","2","category2/CS4.png","","","","",""
"","html-keyboard-response","31","235820","0.0-6.0-2.0-0.4","z1gj6a3qrv","one_one","1","indirect_first","0","sa07rt24","1","46","2","1","1","2","","0","1","0","null","","","<div class = 'row'><div class = 'column'><img src = 'usneg/6570.1.bmp' width = '100%;'></div><div class = 'column'><img src = 'category1/CS9.png' width = '70%;'></div></div>","null","neg","CS","CS","1","category1/CS9.png","","","","",""
"","html-keyboard-response","32","238359","0.0-6.0-2.0-0.5","z1gj6a3qrv","one_one","1","indirect_first","0","sa07rt24","1","46","2","1","1","2","","0","1","0","null","","","<div class = 'row'><div class = 'column'><img src = 'usneg/2750.bmp' width = '100%;'></div><div class = 'column'><img src = 'category2/CS4.png' width = '70%;'></div></div>","null","neg","CS","CS","2","category2/CS4.png","","","","",""
"","html-keyboard-response","33","240900","0.0-6.0-2.0-0.6","z1gj6a3qrv","one_one","1","indirect_first","0","sa07rt24","1","46","2","1","1","2","","0","1","0","null","","","<div class = 'row'><div class = 'column'><img src = 'uspos/5760.bmp' width = '100%;'></div><div class = 'column'><img src = 'category4/CS1.png' width = '70%;'></div></div>","null","pos","CS","CS","4","category4/CS1.png","","","","",""
"","html-keyboard-response","34","243440","0.0-6.0-2.0-0.7","z1gj6a3qrv","one_one","1","indirect_first","0","sa07rt24","1","46","2","1","1","2","","0","1","0","null","","","<div class = 'row'><div class = 'column'><img src = 'category3/CS7.png' width = '70%;'></div><div class = 'column'><img src = 'uspos/2030.bmp' width = '100%;'></div></div>","null","pos","CS","CS","3","category3/CS7.png","","","","",""
"","html-keyboard-response","35","245969","0.0-6.0-2.0-0.8","z1gj6a3qrv","one_one","1","indirect_first","0","sa07rt24","1","46","2","1","1","2","","0","1","0","null","","","<div class = 'row'><div class = 'column'><img src = 'usneg/6570.1.bmp' width = '100%;'></div><div class = 'column'><img src = 'category1/CS9.png' width = '70%;'></div></div>","null","neg","CS","CS","1","category1/CS9.png","","","","",""
"","html-keyboard-response","36","248479","0.0-6.0-2.0-0.9","z1gj6a3qrv","one_one","1","indirect_first","0","sa07rt24","1","46","2","1","1","2","","0","1","0","null","","","<div class = 'row'><div class = 'column'><img src = 'usneg/2750.bmp' width = '100%;'></div><div class = 'column'><img src = 'category2/CS4.png' width = '70%;'></div></div>","null","neg","CS","CS","2","category2/CS4.png","","","","",""
"","html-keyboard-response","37","251019","0.0-6.0-2.0-0.10","z1gj6a3qrv","one_one","1","indirect_first","0","sa07rt24","1","46","2","1","1","2","","0","1","0","null","","","<div class = 'row'><div class = 'column'><img src = 'uspos/2030.bmp' width = '100%;'></div><div class = 'column'><img src = 'category3/CS7.png' width = '70%;'></div></div>","null","pos","CS","CS","3","category3/CS7.png","","","","",""
"","html-keyboard-response","38","253559","0.0-6.0-2.0-0.11","z1gj6a3qrv","one_one","1","indirect_first","0","sa07rt24","1","46","2","1","1","2","","0","1","0","null","","","<div class = 'row'><div class = 'column'><img src = 'category4/CS1.png' width = '70%;'></div><div class = 'column'><img src = 'uspos/5760.bmp' width = '100%;'></div></div>","null","pos","CS","CS","4","category4/CS1.png","","","","",""
"","html-keyboard-response","39","256079","0.0-6.0-2.0-0.12","z1gj6a3qrv","one_one","1","indirect_first","0","sa07rt24","1","46","2","1","1","2","","0","1","0","null","","","<div class = 'row'><div class = 'column'><img src = 'category3/CS7.png' width = '70%;'></div><div class = 'column'><img src = 'uspos/2030.bmp' width = '100%;'></div></div>","null","pos","CS","CS","3","category3/CS7.png","","","","",""
"","html-keyboard-response","40","258599","0.0-6.0-2.0-0.13","z1gj6a3qrv","one_one","1","indirect_first","0","sa07rt24","1","46","2","1","1","2","","0","1","0","null","","","<div class = 'row'><div class = 'column'><img src = 'category2/CS4.png' width = '70%;'></div><div class = 'column'><img src = 'usneg/2750.bmp' width = '100%;'></div></div>","null","neg","CS","CS","2","category2/CS4.png","","","","",""
"","html-keyboard-response","41","261118","0.0-6.0-2.0-0.14","z1gj6a3qrv","one_one","1","indirect_first","0","sa07rt24","1","46","2","1","1","2","","0","1","0","null","","","<div class = 'row'><div class = 'column'><img src = 'category4/CS1.png' width = '70%;'></div><div class = 'column'><img src = 'uspos/5760.bmp' width = '100%;'></div></div>","null","pos","CS","CS","4","category4/CS1.png","","","","",""
"","html-keyboard-response","42","263639","0.0-6.0-2.0-0.15","z1gj6a3qrv","one_one","1","indirect_first","0","sa07rt24","1","46","2","1","1","2","","0","1","0","null","","","<div class = 'row'><div class = 'column'><img src = 'usneg/2750.bmp' width = '100%;'></div><div class = 'column'><img src = 'category2/CS4.png' width = '70%;'></div></div>","null","neg","CS","CS","2","category2/CS4.png","","","","",""
"","html-keyboard-response","43","266149","0.0-6.0-2.0-0.16","z1gj6a3qrv","one_one","1","indirect_first","0","sa07rt24","1","46","2","1","1","2","","0","1","0","null","","","<div class = 'row'><div class = 'column'><img src = 'category1/CS9.png' width = '70%;'></div><div class = 'column'><img src = 'usneg/6570.1.bmp' width = '100%;'></div></div>","null","neg","CS","CS","1","category1/CS9.png","","","","",""
"","html-keyboard-response","44","268670","0.0-6.0-2.0-0.17","z1gj6a3qrv","one_one","1","indirect_first","0","sa07rt24","1","46","2","1","1","2","","0","1","0","null","","","<div class = 'row'><div class = 'column'><img src = 'category3/CS7.png' width = '70%;'></div><div class = 'column'><img src = 'uspos/2030.bmp' width = '100%;'></div></div>","null","pos","CS","CS","3","category3/CS7.png","","","","",""
"","html-keyboard-response","45","271200","0.0-6.0-2.0-0.18","z1gj6a3qrv","one_one","1","indirect_first","0","sa07rt24","1","46","2","1","1","2","","0","1","0","null","","","<div class = 'row'><div class = 'column'><img src = 'category4/CS1.png' width = '70%;'></div><div class = 'column'><img src = 'uspos/5760.bmp' width = '100%;'></div></div>","null","pos","CS","CS","4","category4/CS1.png","","","","",""
"","html-keyboard-response","46","273730","0.0-6.0-2.0-0.19","z1gj6a3qrv","one_one","1","indirect_first","0","sa07rt24","1","46","2","1","1","2","","0","1","0","null","","","<div class = 'row'><div class = 'column'><img src = 'usneg/6570.1.bmp' width = '100%;'></div><div class = 'column'><img src = 'category1/CS9.png' width = '70%;'></div></div>","null","neg","CS","CS","1","category1/CS9.png","","","","",""
"","survey-html-form","47","275822","0.0-6.0-3.0","z1gj6a3qrv","one_one","1","indirect_first","0","sa07rt24","1","46","2","1","1","2","","0","1","0","1572","","{}","","","","","","","","","","","",""
"","html-keyboard-response","48","279860","0.0-6.0-4.0-0.0","z1gj6a3qrv","one_one","1","indirect_first","0","sa07rt24","1","46","2","1","1","2","","0","1","0","null","","","<div class = 'row'><div class = 'column'><img src = 'usneg/2750.bmp' width = '100%;'></div><div class = 'column'><img src = 'category2/CS4.png' width = '70%;'></div></div>","null","neg","CS","CS","2","category2/CS4.png","","","","",""
"","html-keyboard-response","49","282400","0.0-6.0-4.0-0.1","z1gj6a3qrv","one_one","1","indirect_first","0","sa07rt24","1","46","2","1","1","2","","0","1","0","null","","","<div class = 'row'><div class = 'column'><img src = 'uspos/2030.bmp' width = '100%;'></div><div class = 'column'><img src = 'category3/CS7.png' width = '70%;'></div></div>","null","pos","CS","CS","3","category3/CS7.png","","","","",""
"","html-keyboard-response","50","284929","0.0-6.0-4.0-0.2","z1gj6a3qrv","one_one","1","indirect_first","0","sa07rt24","1","46","2","1","1","2","","0","1","0","null","","","<div class = 'row'><div class = 'column'><img src = 'usneg/2750.bmp' width = '100%;'></div><div class = 'column'><img src = 'category2/CS4.png' width = '70%;'></div></div>","null","neg","CS","CS","2","category2/CS4.png","","","","",""
"","html-keyboard-response","51","287469","0.0-6.0-4.0-0.3","z1gj6a3qrv","one_one","1","indirect_first","0","sa07rt24","1","46","2","1","1","2","","0","1","0","null","","","<div class = 'row'><div class = 'column'><img src = 'usneg/6570.1.bmp' width = '100%;'></div><div class = 'column'><img src = 'category1/CS9.png' width = '70%;'></div></div>","null","neg","CS","CS","1","category1/CS9.png","","","","",""
"","html-keyboard-response","52","289999","0.0-6.0-4.0-0.4","z1gj6a3qrv","one_one","1","indirect_first","0","sa07rt24","1","46","2","1","1","2","","0","1","0","null","","","<div class = 'row'><div class = 'column'><img src = 'category2/CS4.png' width = '70%;'></div><div class = 'column'><img src = 'usneg/2750.bmp' width = '100%;'></div></div>","null","neg","CS","CS","2","category2/CS4.png","","","","",""
"","html-keyboard-response","53","292539","0.0-6.0-4.0-0.5","z1gj6a3qrv","one_one","1","indirect_first","0","sa07rt24","1","46","2","1","1","2","","0","1","0","null","","","<div class = 'row'><div class = 'column'><img src = 'uspos/5760.bmp' width = '100%;'></div><div class = 'column'><img src = 'category4/CS1.png' width = '70%;'></div></div>","null","pos","CS","CS","4","category4/CS1.png","","","","",""
"","html-keyboard-response","54","295080","0.0-6.0-4.0-0.6","z1gj6a3qrv","one_one","1","indirect_first","0","sa07rt24","1","46","2","1","1","2","","0","1","0","null","","","<div class = 'row'><div class = 'column'><img src = 'category2/CS4.png' width = '70%;'></div><div class = 'column'><img src = 'usneg/2750.bmp' width = '100%;'></div></div>","null","neg","CS","CS","2","category2/CS4.png","","","","",""
"","html-keyboard-response","55","297600","0.0-6.0-4.0-0.7","z1gj6a3qrv","one_one","1","indirect_first","0","sa07rt24","1","46","2","1","1","2","","0","1","0","null","","","<div class = 'row'><div class = 'column'><img src = 'usneg/6570.1.bmp' width = '100%;'></div><div class = 'column'><img src = 'category1/CS9.png' width = '70%;'></div></div>","null","neg","CS","CS","1","category1/CS9.png","","","","",""
"","html-keyboard-response","56","300139","0.0-6.0-4.0-0.8","z1gj6a3qrv","one_one","1","indirect_first","0","sa07rt24","1","46","2","1","1","2","","0","1","0","null","","","<div class = 'row'><div class = 'column'><img src = 'uspos/2030.bmp' width = '100%;'></div><div class = 'column'><img src = 'category3/CS7.png' width = '70%;'></div></div>","null","pos","CS","CS","3","category3/CS7.png","","","","",""
"","html-keyboard-response","57","302679","0.0-6.0-4.0-0.9","z1gj6a3qrv","one_one","1","indirect_first","0","sa07rt24","1","46","2","1","1","2","","0","1","0","null","","","<div class = 'row'><div class = 'column'><img src = 'category1/CS9.png' width = '70%;'></div><div class = 'column'><img src = 'usneg/6570.1.bmp' width = '100%;'></div></div>","null","neg","CS","CS","1","category1/CS9.png","","","","",""
"","html-keyboard-response","58","305218","0.0-6.0-4.0-0.10","z1gj6a3qrv","one_one","1","indirect_first","0","sa07rt24","1","46","2","1","1","2","","0","1","0","null","","","<div class = 'row'><div class = 'column'><img src = 'uspos/2030.bmp' width = '100%;'></div><div class = 'column'><img src = 'category3/CS7.png' width = '70%;'></div></div>","null","pos","CS","CS","3","category3/CS7.png","","","","",""
"","html-keyboard-response","59","307738","0.0-6.0-4.0-0.11","z1gj6a3qrv","one_one","1","indirect_first","0","sa07rt24","1","46","2","1","1","2","","0","1","0","null","","","<div class = 'row'><div class = 'column'><img src = 'uspos/5760.bmp' width = '100%;'></div><div class = 'column'><img src = 'category4/CS1.png' width = '70%;'></div></div>","null","pos","CS","CS","4","category4/CS1.png","","","","",""
"","html-keyboard-response","60","310258","0.0-6.0-4.0-0.12","z1gj6a3qrv","one_one","1","indirect_first","0","sa07rt24","1","46","2","1","1","2","","0","1","0","null","","","<div class = 'row'><div class = 'column'><img src = 'category1/CS9.png' width = '70%;'></div><div class = 'column'><img src = 'usneg/6570.1.bmp' width = '100%;'></div></div>","null","neg","CS","CS","1","category1/CS9.png","","","","",""
"","html-keyboard-response","61","312779","0.0-6.0-4.0-0.13","z1gj6a3qrv","one_one","1","indirect_first","0","sa07rt24","1","46","2","1","1","2","","0","1","0","null","","","<div class = 'row'><div class = 'column'><img src = 'uspos/5760.bmp' width = '100%;'></div><div class = 'column'><img src = 'category4/CS1.png' width = '70%;'></div></div>","null","pos","CS","CS","4","category4/CS1.png","","","","",""
"","html-keyboard-response","62","315319","0.0-6.0-4.0-0.14","z1gj6a3qrv","one_one","1","indirect_first","0","sa07rt24","1","46","2","1","1","2","","0","1","0","null","","","<div class = 'row'><div class = 'column'><img src = 'uspos/2030.bmp' width = '100%;'></div><div class = 'column'><img src = 'category3/CS7.png' width = '70%;'></div></div>","null","pos","CS","CS","3","category3/CS7.png","","","","",""
"","html-keyboard-response","63","317839","0.0-6.0-4.0-0.15","z1gj6a3qrv","one_one","1","indirect_first","0","sa07rt24","1","46","2","1","1","2","","0","1","0","null","","","<div class = 'row'><div class = 'column'><img src = 'category4/CS1.png' width = '70%;'></div><div class = 'column'><img src = 'uspos/5760.bmp' width = '100%;'></div></div>","null","pos","CS","CS","4","category4/CS1.png","","","","",""
"","html-keyboard-response","64","320379","0.0-6.0-4.0-0.16","z1gj6a3qrv","one_one","1","indirect_first","0","sa07rt24","1","46","2","1","1","2","","0","1","0","null","","","<div class = 'row'><div class = 'column'><img src = 'usneg/2750.bmp' width = '100%;'></div><div class = 'column'><img src = 'category2/CS4.png' width = '70%;'></div></div>","null","neg","CS","CS","2","category2/CS4.png","","","","",""
"","html-keyboard-response","65","322919","0.0-6.0-4.0-0.17","z1gj6a3qrv","one_one","1","indirect_first","0","sa07rt24","1","46","2","1","1","2","","0","1","0","null","","","<div class = 'row'><div class = 'column'><img src = 'category3/CS7.png' width = '70%;'></div><div class = 'column'><img src = 'uspos/2030.bmp' width = '100%;'></div></div>","null","pos","CS","CS","3","category3/CS7.png","","","","",""
"","html-keyboard-response","66","325459","0.0-6.0-4.0-0.18","z1gj6a3qrv","one_one","1","indirect_first","0","sa07rt24","1","46","2","1","1","2","","0","1","0","null","","","<div class = 'row'><div class = 'column'><img src = 'uspos/5760.bmp' width = '100%;'></div><div class = 'column'><img src = 'category4/CS1.png' width = '70%;'></div></div>","null","pos","CS","CS","4","category4/CS1.png","","","","",""
"","html-keyboard-response","67","327999","0.0-6.0-4.0-0.19","z1gj6a3qrv","one_one","1","indirect_first","0","sa07rt24","1","46","2","1","1","2","","0","1","0","null","","","<div class = 'row'><div class = 'column'><img src = 'usneg/6570.1.bmp' width = '100%;'></div><div class = 'column'><img src = 'category1/CS9.png' width = '70%;'></div></div>","null","neg","CS","CS","1","category1/CS9.png","","","","",""
"","survey-html-form","68","329925","0.0-6.0-5.0","z1gj6a3qrv","one_one","1","indirect_first","0","sa07rt24","1","46","2","1","1","2","","0","1","0","1416","","{}","","","","","","","","","","","",""
"","html-keyboard-response","69","333950","0.0-6.0-6.0-0.0","z1gj6a3qrv","one_one","1","indirect_first","0","sa07rt24","1","46","2","1","1","2","","0","1","0","null","","","<div class = 'row'><div class = 'column'><img src = 'category3/CS7.png' width = '70%;'></div><div class = 'column'><img src = 'uspos/2030.bmp' width = '100%;'></div></div>","null","pos","CS","CS","3","category3/CS7.png","","","","",""
"","html-keyboard-response","70","336490","0.0-6.0-6.0-0.1","z1gj6a3qrv","one_one","1","indirect_first","0","sa07rt24","1","46","2","1","1","2","","0","1","0","null","","","<div class = 'row'><div class = 'column'><img src = 'usneg/6570.1.bmp' width = '100%;'></div><div class = 'column'><img src = 'category1/CS9.png' width = '70%;'></div></div>","null","neg","CS","CS","1","category1/CS9.png","","","","",""
"","html-keyboard-response","71","339019","0.0-6.0-6.0-0.2","z1gj6a3qrv","one_one","1","indirect_first","0","sa07rt24","1","46","2","1","1","2","","0","1","0","null","","","<div class = 'row'><div class = 'column'><img src = 'uspos/2030.bmp' width = '100%;'></div><div class = 'column'><img src = 'category3/CS7.png' width = '70%;'></div></div>","null","pos","CS","CS","3","category3/CS7.png","","","","",""
"","html-keyboard-response","72","341549","0.0-6.0-6.0-0.3","z1gj6a3qrv","one_one","1","indirect_first","0","sa07rt24","1","46","2","1","1","2","","0","1","0","null","","","<div class = 'row'><div class = 'column'><img src = 'category1/CS9.png' width = '70%;'></div><div class = 'column'><img src = 'usneg/6570.1.bmp' width = '100%;'></div></div>","null","neg","CS","CS","1","category1/CS9.png","","","","",""
"","html-keyboard-response","73","344089","0.0-6.0-6.0-0.4","z1gj6a3qrv","one_one","1","indirect_first","0","sa07rt24","1","46","2","1","1","2","","0","1","0","null","","","<div class = 'row'><div class = 'column'><img src = 'category3/CS7.png' width = '70%;'></div><div class = 'column'><img src = 'uspos/2030.bmp' width = '100%;'></div></div>","null","pos","CS","CS","3","category3/CS7.png","","","","",""
"","html-keyboard-response","74","346630","0.0-6.0-6.0-0.5","z1gj6a3qrv","one_one","1","indirect_first","0","sa07rt24","1","46","2","1","1","2","","0","1","0","null","","","<div class = 'row'><div class = 'column'><img src = 'usneg/2750.bmp' width = '100%;'></div><div class = 'column'><img src = 'category2/CS4.png' width = '70%;'></div></div>","null","neg","CS","CS","2","category2/CS4.png","","","","",""
"","html-keyboard-response","75","349159","0.0-6.0-6.0-0.6","z1gj6a3qrv","one_one","1","indirect_first","0","sa07rt24","1","46","2","1","1","2","","0","1","0","null","","","<div class = 'row'><div class = 'column'><img src = 'uspos/5760.bmp' width = '100%;'></div><div class = 'column'><img src = 'category4/CS1.png' width = '70%;'></div></div>","null","pos","CS","CS","4","category4/CS1.png","","","","",""
"","html-keyboard-response","76","351669","0.0-6.0-6.0-0.7","z1gj6a3qrv","one_one","1","indirect_first","0","sa07rt24","1","46","2","1","1","2","","0","1","0","null","","","<div class = 'row'><div class = 'column'><img src = 'category2/CS4.png' width = '70%;'></div><div class = 'column'><img src = 'usneg/2750.bmp' width = '100%;'></div></div>","null","neg","CS","CS","2","category2/CS4.png","","","","",""
"","html-keyboard-response","77","354199","0.0-6.0-6.0-0.8","z1gj6a3qrv","one_one","1","indirect_first","0","sa07rt24","1","46","2","1","1","2","","0","1","0","null","","","<div class = 'row'><div class = 'column'><img src = 'category4/CS1.png' width = '70%;'></div><div class = 'column'><img src = 'uspos/5760.bmp' width = '100%;'></div></div>","null","pos","CS","CS","4","category4/CS1.png","","","","",""
"","html-keyboard-response","78","356719","0.0-6.0-6.0-0.9","z1gj6a3qrv","one_one","1","indirect_first","0","sa07rt24","1","46","2","1","1","2","","0","1","0","null","","","<div class = 'row'><div class = 'column'><img src = 'uspos/2030.bmp' width = '100%;'></div><div class = 'column'><img src = 'category3/CS7.png' width = '70%;'></div></div>","null","pos","CS","CS","3","category3/CS7.png","","","","",""
"","html-keyboard-response","79","359259","0.0-6.0-6.0-0.10","z1gj6a3qrv","one_one","1","indirect_first","0","sa07rt24","1","46","2","1","1","2","","0","1","0","null","","","<div class = 'row'><div class = 'column'><img src = 'category1/CS9.png' width = '70%;'></div><div class = 'column'><img src = 'usneg/6570.1.bmp' width = '100%;'></div></div>","null","neg","CS","CS","1","category1/CS9.png","","","","",""
"","html-keyboard-response","80","361789","0.0-6.0-6.0-0.11","z1gj6a3qrv","one_one","1","indirect_first","0","sa07rt24","1","46","2","1","1","2","","0","1","0","null","","","<div class = 'row'><div class = 'column'><img src = 'uspos/2030.bmp' width = '100%;'></div><div class = 'column'><img src = 'category3/CS7.png' width = '70%;'></div></div>","null","pos","CS","CS","3","category3/CS7.png","","","","",""
"","html-keyboard-response","81","364329","0.0-6.0-6.0-0.12","z1gj6a3qrv","one_one","1","indirect_first","0","sa07rt24","1","46","2","1","1","2","","0","1","0","null","","","<div class = 'row'><div class = 'column'><img src = 'uspos/5760.bmp' width = '100%;'></div><div class = 'column'><img src = 'category4/CS1.png' width = '70%;'></div></div>","null","pos","CS","CS","4","category4/CS1.png","","","","",""
"","html-keyboard-response","82","366869","0.0-6.0-6.0-0.13","z1gj6a3qrv","one_one","1","indirect_first","0","sa07rt24","1","46","2","1","1","2","","0","1","0","null","","","<div class = 'row'><div class = 'column'><img src = 'category2/CS4.png' width = '70%;'></div><div class = 'column'><img src = 'usneg/2750.bmp' width = '100%;'></div></div>","null","neg","CS","CS","2","category2/CS4.png","","","","",""
"","html-keyboard-response","83","369389","0.0-6.0-6.0-0.14","z1gj6a3qrv","one_one","1","indirect_first","0","sa07rt24","1","46","2","1","1","2","","0","1","0","null","","","<div class = 'row'><div class = 'column'><img src = 'category1/CS9.png' width = '70%;'></div><div class = 'column'><img src = 'usneg/6570.1.bmp' width = '100%;'></div></div>","null","neg","CS","CS","1","category1/CS9.png","","","","",""
"","html-keyboard-response","84","371929","0.0-6.0-6.0-0.15","z1gj6a3qrv","one_one","1","indirect_first","0","sa07rt24","1","46","2","1","1","2","","0","1","0","null","","","<div class = 'row'><div class = 'column'><img src = 'category2/CS4.png' width = '70%;'></div><div class = 'column'><img src = 'usneg/2750.bmp' width = '100%;'></div></div>","null","neg","CS","CS","2","category2/CS4.png","","","","",""
"","html-keyboard-response","85","374448","0.0-6.0-6.0-0.16","z1gj6a3qrv","one_one","1","indirect_first","0","sa07rt24","1","46","2","1","1","2","","0","1","0","null","","","<div class = 'row'><div class = 'column'><img src = 'category1/CS9.png' width = '70%;'></div><div class = 'column'><img src = 'usneg/6570.1.bmp' width = '100%;'></div></div>","null","neg","CS","CS","1","category1/CS9.png","","","","",""
"","html-keyboard-response","86","376989","0.0-6.0-6.0-0.17","z1gj6a3qrv","one_one","1","indirect_first","0","sa07rt24","1","46","2","1","1","2","","0","1","0","null","","","<div class = 'row'><div class = 'column'><img src = 'uspos/5760.bmp' width = '100%;'></div><div class = 'column'><img src = 'category4/CS1.png' width = '70%;'></div></div>","null","pos","CS","CS","4","category4/CS1.png","","","","",""
"","html-keyboard-response","87","379528","0.0-6.0-6.0-0.18","z1gj6a3qrv","one_one","1","indirect_first","0","sa07rt24","1","46","2","1","1","2","","0","1","0","null","","","<div class = 'row'><div class = 'column'><img src = 'category2/CS4.png' width = '70%;'></div><div class = 'column'><img src = 'usneg/2750.bmp' width = '100%;'></div></div>","null","neg","CS","CS","2","category2/CS4.png","","","","",""
"","html-keyboard-response","88","382066","0.0-6.0-6.0-0.19","z1gj6a3qrv","one_one","1","indirect_first","0","sa07rt24","1","46","2","1","1","2","","0","1","0","null","","","<div class = 'row'><div class = 'column'><img src = 'uspos/5760.bmp' width = '100%;'></div><div class = 'column'><img src = 'category4/CS1.png' width = '70%;'></div></div>","null","pos","CS","CS","4","category4/CS1.png","","","","",""
"","html-keyboard-response","89","417709","0.0-7.0","z1gj6a3qrv","one_one","1","indirect_first","0","sa07rt24","1","46","2","1","1","2","","0","1","0","35141","","","<p>Sie sehen nun die chinesischen Zeichen nur ganz kurz. Danach sehen Sie die jeweilige Aussprache der Zeichen als Silbe auf dem Bildschrim. Ihre Aufgabe ist es, für jede Silbe anzugeben, ob diese etwas angenehmes, oder unangenehmes bedeuten könnte. Verlassen Sie sich hier vor allem auf Ihre Intuition.<br><br>Die Zeichen werden nur zur Orientierung dargestellt, beachten Sie sie deshalb nicht. Konzentrieren Sie sich vor allem auf die Silben. <br>Reagieren Sie mit folgenden zwei Tasten: <br><br><b>'D' </b> wenn die Silbe etwas <b>unangenehmes</b> bedeuten könnte. <br><b>'K'</b> wenn die Silbe etwas <b>angenehmes</b> bedeuten könnte. <br><br>Bitte legen Sie nun den Zeigefinger der linken Hand auf die Taste 'D' und den Zeigefinger der rechten Hand auf die Taste 'K'. <br>Reagieren Sie auf jede Silbe so schnell wie möglich. Uns interessiert Ihre spontane Reaktion. <br> <br> <br>Drücken Sie 'D' oder 'K', um die nächste Aufgabe zu starten. </p>","75","","","","","","","","","",""
"","html-keyboard-response","90","420749","0.0-8.0-0.0","z1gj6a3qrv","one_one","1","indirect_first","0","sa07rt24","1","46","2","1","1","2","","0","1","0","null","","","<div style=""font-size:60px;"">+</div>","null","","","","","","","","","",""
"","html-keyboard-response","91","420849","0.0-8.0-1.0","z1gj6a3qrv","one_one","1","indirect_first","0","sa07rt24","1","46","2","1","1","2","","0","1","0","null","","","<img src = 'category1/CS2.png' width = '100%;'>","null","","","","","","","","","",""
"","html-keyboard-response","92","421129","0.0-8.0-2.0","z1gj6a3qrv","one_one","1","indirect_first","0","sa07rt24","1","46","2","1","1","2","","0","1","0","null","","","<img src = 'targets/48.png' width = '100%;'>","null","","","","","","","","","",""
"","html-keyboard-response","93","423244","0.0-8.0-3.0","z1gj6a3qrv","one_one","1","indirect_first","0","sa07rt24","1","46","2","1","1","2","","0","1","0","2113","","","<img src = 'targets/mask.png' width = '100%;'>","68","neg","GS","GSold","1","category1/CS2.png","targets/48.png","0","indirect","0",""
"","html-keyboard-response","94","424749","0.0-8.0-0.1","z1gj6a3qrv","one_one","1","indirect_first","0","sa07rt24","1","46","2","1","1","2","","0","1","0","null","","","<div style=""font-size:60px;"">+</div>","null","","","","","","","","","",""
"","html-keyboard-response","95","424849","0.0-8.0-1.1","z1gj6a3qrv","one_one","1","indirect_first","0","sa07rt24","1","46","2","1","1","2","","0","1","0","null","","","<img src = 'category1/CS7.png' width = '100%;'>","null","","","","","","","","","",""
"","html-keyboard-response","96","425119","0.0-8.0-2.1","z1gj6a3qrv","one_one","1","indirect_first","0","sa07rt24","1","46","2","1","1","2","","0","1","0","null","","","<img src = 'targets/6.png' width = '100%;'>","null","","","","","","","","","",""
"","html-keyboard-response","97","427226","0.0-8.0-3.1","z1gj6a3qrv","one_one","1","indirect_first","0","sa07rt24","1","46","2","1","1","2","","0","1","0","2106","","","<img src = 'targets/mask.png' width = '100%;'>","68","neg","GS","GSold","1","category1/CS7.png","targets/6.png","0","indirect","1",""
"","html-keyboard-response","98","428758","0.0-8.0-0.2","z1gj6a3qrv","one_one","1","indirect_first","0","sa07rt24","1","46","2","1","1","2","","0","1","0","null","","","<div style=""font-size:60px;"">+</div>","null","","","","","","","","","",""
"","html-keyboard-response","99","428859","0.0-8.0-1.2","z1gj6a3qrv","one_one","1","indirect_first","0","sa07rt24","1","46","2","1","1","2","","0","1","0","null","","","<img src = 'category4/CS9.png' width = '100%;'>","null","","","","","","","","","",""
"","html-keyboard-response","100","429139","0.0-8.0-2.2","z1gj6a3qrv","one_one","1","indirect_first","0","sa07rt24","1","46","2","1","1","2","","0","1","0","null","","","<img src = 'targets/24.png' width = '100%;'>","null","","","","","","","","","",""
"","html-keyboard-response","101","429931","0.0-8.0-3.2","z1gj6a3qrv","one_one","1","indirect_first","0","sa07rt24","1","46","2","1","1","2","","0","1","0","791","","","<img src = 'targets/mask.png' width = '100%;'>","75","pos","GS","GSold","4","category4/CS9.png","targets/24.png","1","indirect","2",""
"","html-keyboard-response","102","431438","0.0-8.0-0.3","z1gj6a3qrv","one_one","1","indirect_first","0","sa07rt24","1","46","2","1","1","2","","0","1","0","null","","","<div style=""font-size:60px;"">+</div>","null","","","","","","","","","",""
"","html-keyboard-response","103","431538","0.0-8.0-1.3","z1gj6a3qrv","one_one","1","indirect_first","0","sa07rt24","1","46","2","1","1","2","","0","1","0","null","","","<img src = 'category4/CS7.png' width = '100%;'>","null","","","","","","","","","",""
"","html-keyboard-response","104","431819","0.0-8.0-2.3","z1gj6a3qrv","one_one","1","indirect_first","0","sa07rt24","1","46","2","1","1","2","","0","1","0","null","","","<img src = 'targets/28.png' width = '100%;'>","null","","","","","","","","","",""
"","html-keyboard-response","105","432636","0.0-8.0-3.3","z1gj6a3qrv","one_one","1","indirect_first","0","sa07rt24","1","46","2","1","1","2","","0","1","0","816","","","<img src = 'targets/mask.png' width = '100%;'>","75","pos","GS","GSold","4","category4/CS7.png","targets/28.png","1","indirect","3",""
"","html-keyboard-response","106","434159","0.0-8.0-0.4","z1gj6a3qrv","one_one","1","indirect_first","0","sa07rt24","1","46","2","1","1","2","","0","1","0","null","","","<div style=""font-size:60px;"">+</div>","null","","","","","","","","","",""
"","html-keyboard-response","107","434259","0.0-8.0-1.4","z1gj6a3qrv","one_one","1","indirect_first","0","sa07rt24","1","46","2","1","1","2","","0","1","0","null","","","<img src = 'category4/CS2.png' width = '100%;'>","null","","","","","","","","","",""
"","html-keyboard-response","108","434539","0.0-8.0-2.4","z1gj6a3qrv","one_one","1","indirect_first","0","sa07rt24","1","46","2","1","1","2","","0","1","0","null","","","<img src = 'targets/37.png' width = '100%;'>","null","","","","","","","","","",""
"","html-keyboard-response","109","435772","0.0-8.0-3.4","z1gj6a3qrv","one_one","1","indirect_first","0","sa07rt24","1","46","2","1","1","2","","0","1","0","1232","","","<img src = 'targets/mask.png' width = '100%;'>","75","pos","GS","GSold","4","category4/CS2.png","targets/37.png","1","indirect","4",""
"","html-keyboard-response","110","437279","0.0-8.0-0.5","z1gj6a3qrv","one_one","1","indirect_first","0","sa07rt24","1","46","2","1","1","2","","0","1","0","null","","","<div style=""font-size:60px;"">+</div>","null","","","","","","","","","",""
"","html-keyboard-response","111","437379","0.0-8.0-1.5","z1gj6a3qrv","one_one","1","indirect_first","0","sa07rt24","1","46","2","1","1","2","","0","1","0","null","","","<img src = 'category2/CS3.png' width = '100%;'>","null","","","","","","","","","",""
"","html-keyboard-response","112","437659","0.0-8.0-2.5","z1gj6a3qrv","one_one","1","indirect_first","0","sa07rt24","1","46","2","1","1","2","","0","1","0","null","","","<img src = 'targets/23.png' width = '100%;'>","null","","","","","","","","","",""
"","html-keyboard-response","113","438826","0.0-8.0-3.5","z1gj6a3qrv","one_one","1","indirect_first","0","sa07rt24","1","46","2","1","1","2","","0","1","0","1167","","","<img src = 'targets/mask.png' width = '100%;'>","75","neg","GS","GSold","2","category2/CS3.png","targets/23.png","1","indirect","5",""
"","html-keyboard-response","114","440359","0.0-8.0-0.6","z1gj6a3qrv","one_one","1","indirect_first","0","sa07rt24","1","46","2","1","1","2","","0","1","0","null","","","<div style=""font-size:60px;"">+</div>","null","","","","","","","","","",""
"","html-keyboard-response","115","440459","0.0-8.0-1.6","z1gj6a3qrv","one_one","1","indirect_first","0","sa07rt24","1","46","2","1","1","2","","0","1","0","null","","","<img src = 'category2/CS10.png' width = '100%;'>","null","","","","","","","","","",""
"","html-keyboard-response","116","440739","0.0-8.0-2.6","z1gj6a3qrv","one_one","1","indirect_first","0","sa07rt24","1","46","2","1","1","2","","0","1","0","null","","","<img src = 'targets/29.png' width = '100%;'>","null","","","","","","","","","",""
"","html-keyboard-response","117","442058","0.0-8.0-3.6","z1gj6a3qrv","one_one","1","indirect_first","0","sa07rt24","1","46","2","1","1","2","","0","1","0","1319","","","<img src = 'targets/mask.png' width = '100%;'>","75","neg","GS","GSold","2","category2/CS10.png","targets/29.png","1","indirect","6",""
"","html-keyboard-response","118","443579","0.0-8.0-0.7","z1gj6a3qrv","one_one","1","indirect_first","0","sa07rt24","1","46","2","1","1","2","","0","1","0","null","","","<div style=""font-size:60px;"">+</div>","null","","","","","","","","","",""
"","html-keyboard-response","119","443679","0.0-8.0-1.7","z1gj6a3qrv","one_one","1","indirect_first","0","sa07rt24","1","46","2","1","1","2","","0","1","0","null","","","<img src = 'category3/CS7.png' width = '100%;'>","null","","","","","","","","","",""
"","html-keyboard-response","120","443959","0.0-8.0-2.7","z1gj6a3qrv","one_one","1","indirect_first","0","sa07rt24","1","46","2","1","1","2","","0","1","0","null","","","<img src = 'targets/38.png' width = '100%;'>","null","","","","","","","","","",""
"","html-keyboard-response","121","445436","0.0-8.0-3.7","z1gj6a3qrv","one_one","1","indirect_first","0","sa07rt24","1","46","2","1","1","2","","0","1","0","1476","","","<img src = 'targets/mask.png' width = '100%;'>","75","pos","CS","CS","3","category3/CS7.png","targets/38.png","1","indirect","7",""
"","html-keyboard-response","122","446968","0.0-8.0-0.8","z1gj6a3qrv","one_one","1","indirect_first","0","sa07rt24","1","46","2","1","1","2","","0","1","0","null","","","<div style=""font-size:60px;"">+</div>","null","","","","","","","","","",""
"","html-keyboard-response","123","447069","0.0-8.0-1.8","z1gj6a3qrv","one_one","1","indirect_first","0","sa07rt24","1","46","2","1","1","2","","0","1","0","null","","","<img src = 'category3/CS3.png' width = '100%;'>","null","","","","","","","","","",""
"","html-keyboard-response","124","447349","0.0-8.0-2.8","z1gj6a3qrv","one_one","1","indirect_first","0","sa07rt24","1","46","2","1","1","2","","0","1","0","null","","","<img src = 'targets/8.png' width = '100%;'>","null","","","","","","","","","",""
"","html-keyboard-response","125","448461","0.0-8.0-3.8","z1gj6a3qrv","one_one","1","indirect_first","0","sa07rt24","1","46","2","1","1","2","","0","1","0","1111","","","<img src = 'targets/mask.png' width = '100%;'>","75","pos","GS","GSold","3","category3/CS3.png","targets/8.png","1","indirect","8",""
"","html-keyboard-response","126","449989","0.0-8.0-0.9","z1gj6a3qrv","one_one","1","indirect_first","0","sa07rt24","1","46","2","1","1","2","","0","1","0","null","","","<div style=""font-size:60px;"">+</div>","null","","","","","","","","","",""
"","html-keyboard-response","127","450089","0.0-8.0-1.9","z1gj6a3qrv","one_one","1","indirect_first","0","sa07rt24","1","46","2","1","1","2","","0","1","0","null","","","<img src = 'category2/CS8.png' width = '100%;'>","null","","","","","","","","","",""
"","html-keyboard-response","128","450369","0.0-8.0-2.9","z1gj6a3qrv","one_one","1","indirect_first","0","sa07rt24","1","46","2","1","1","2","","0","1","0","null","","","<img src = 'targets/30.png' width = '100%;'>","null","","","","","","","","","",""
"","html-keyboard-response","129","451196","0.0-8.0-3.9","z1gj6a3qrv","one_one","1","indirect_first","0","sa07rt24","1","46","2","1","1","2","","0","1","0","825","","","<img src = 'targets/mask.png' width = '100%;'>","68","neg","GS","GSold","2","category2/CS8.png","targets/30.png","0","indirect","9",""
"","html-keyboard-response","130","452729","0.0-8.0-0.10","z1gj6a3qrv","one_one","1","indirect_first","0","sa07rt24","1","46","2","1","1","2","","0","1","0","null","","","<div style=""font-size:60px;"">+</div>","null","","","","","","","","","",""
"","html-keyboard-response","131","452830","0.0-8.0-1.10","z1gj6a3qrv","one_one","1","indirect_first","0","sa07rt24","1","46","2","1","1","2","","0","1","0","null","","","<img src = 'category3/CS4.png' width = '100%;'>","null","","","","","","","","","",""
"","html-keyboard-response","132","453110","0.0-8.0-2.10","z1gj6a3qrv","one_one","1","indirect_first","0","sa07rt24","1","46","2","1","1","2","","0","1","0","null","","","<img src = 'targets/20.png' width = '100%;'>","null","","","","","","","","","",""
"","html-keyboard-response","133","454124","0.0-8.0-3.10","z1gj6a3qrv","one_one","1","indirect_first","0","sa07rt24","1","46","2","1","1","2","","0","1","0","1013","","","<img src = 'targets/mask.png' width = '100%;'>","75","pos","GS","GSold","3","category3/CS4.png","targets/20.png","1","indirect","10",""
"","html-keyboard-response","134","455629","0.0-8.0-0.11","z1gj6a3qrv","one_one","1","indirect_first","0","sa07rt24","1","46","2","1","1","2","","0","1","0","null","","","<div style=""font-size:60px;"">+</div>","null","","","","","","","","","",""
"","html-keyboard-response","135","455729","0.0-8.0-1.11","z1gj6a3qrv","one_one","1","indirect_first","0","sa07rt24","1","46","2","1","1","2","","0","1","0","null","","","<img src = 'category2/CS4.png' width = '100%;'>","null","","","","","","","","","",""
"","html-keyboard-response","136","456010","0.0-8.0-2.11","z1gj6a3qrv","one_one","1","indirect_first","0","sa07rt24","1","46","2","1","1","2","","0","1","0","null","","","<img src = 'targets/1.png' width = '100%;'>","null","","","","","","","","","",""
"","html-keyboard-response","137","456795","0.0-8.0-3.11","z1gj6a3qrv","one_one","1","indirect_first","0","sa07rt24","1","46","2","1","1","2","","0","1","0","784","","","<img src = 'targets/mask.png' width = '100%;'>","68","neg","CS","CS","2","category2/CS4.png","targets/1.png","0","indirect","11",""
"","html-keyboard-response","138","458329","0.0-8.0-0.12","z1gj6a3qrv","one_one","1","indirect_first","0","sa07rt24","1","46","2","1","1","2","","0","1","0","null","","","<div style=""font-size:60px;"">+</div>","null","","","","","","","","","",""
"","html-keyboard-response","139","458429","0.0-8.0-1.12","z1gj6a3qrv","one_one","1","indirect_first","0","sa07rt24","1","46","2","1","1","2","","0","1","0","null","","","<img src = 'category3/CS8.png' width = '100%;'>","null","","","","","","","","","",""
"","html-keyboard-response","140","458709","0.0-8.0-2.12","z1gj6a3qrv","one_one","1","indirect_first","0","sa07rt24","1","46","2","1","1","2","","0","1","0","null","","","<img src = 'targets/47.png' width = '100%;'>","null","","","","","","","","","",""
"","html-keyboard-response","141","461276","0.0-8.0-3.12","z1gj6a3qrv","one_one","1","indirect_first","0","sa07rt24","1","46","2","1","1","2","","0","1","0","2564","","","<img src = 'targets/mask.png' width = '100%;'>","75","pos","GS","GSold","3","category3/CS8.png","targets/47.png","1","indirect","12",""
"","html-keyboard-response","142","462789","0.0-8.0-0.13","z1gj6a3qrv","one_one","1","indirect_first","0","sa07rt24","1","46","2","1","1","2","","0","1","0","null","","","<div style=""font-size:60px;"">+</div>","null","","","","","","","","","",""
"","html-keyboard-response","143","462889","0.0-8.0-1.13","z1gj6a3qrv","one_one","1","indirect_first","0","sa07rt24","1","46","2","1","1","2","","0","1","0","null","","","<img src = 'category1/CS3.png' width = '100%;'>","null","","","","","","","","","",""
"","html-keyboard-response","144","463169","0.0-8.0-2.13","z1gj6a3qrv","one_one","1","indirect_first","0","sa07rt24","1","46","2","1","1","2","","0","1","0","null","","","<img src = 'targets/19.png' width = '100%;'>","null","","","","","","","","","",""
"","html-keyboard-response","145","464412","0.0-8.0-3.13","z1gj6a3qrv","one_one","1","indirect_first","0","sa07rt24","1","46","2","1","1","2","","0","1","0","1241","","","<img src = 'targets/mask.png' width = '100%;'>","75","neg","GS","GSold","1","category1/CS3.png","targets/19.png","1","indirect","13",""
"","html-keyboard-response","146","465949","0.0-8.0-0.14","z1gj6a3qrv","one_one","1","indirect_first","0","sa07rt24","1","46","2","1","1","2","","0","1","0","null","","","<div style=""font-size:60px;"">+</div>","null","","","","","","","","","",""
"","html-keyboard-response","147","466049","0.0-8.0-1.14","z1gj6a3qrv","one_one","1","indirect_first","0","sa07rt24","1","46","2","1","1","2","","0","1","0","null","","","<img src = 'category4/CS1.png' width = '100%;'>","null","","","","","","","","","",""
"","html-keyboard-response","148","466329","0.0-8.0-2.14","z1gj6a3qrv","one_one","1","indirect_first","0","sa07rt24","1","46","2","1","1","2","","0","1","0","null","","","<img src = 'targets/33.png' width = '100%;'>","null","","","","","","","","","",""
"","html-keyboard-response","149","467243","0.0-8.0-3.14","z1gj6a3qrv","one_one","1","indirect_first","0","sa07rt24","1","46","2","1","1","2","","0","1","0","914","","","<img src = 'targets/mask.png' width = '100%;'>","68","pos","CS","CS","4","category4/CS1.png","targets/33.png","0","indirect","14",""
"","html-keyboard-response","150","468759","0.0-8.0-0.15","z1gj6a3qrv","one_one","1","indirect_first","0","sa07rt24","1","46","2","1","1","2","","0","1","0","null","","","<div style=""font-size:60px;"">+</div>","null","","","","","","","","","",""
"","html-keyboard-response","151","468859","0.0-8.0-1.15","z1gj6a3qrv","one_one","1","indirect_first","0","sa07rt24","1","46","2","1","1","2","","0","1","0","null","","","<img src = 'category1/CS9.png' width = '100%;'>","null","","","","","","","","","",""
"","html-keyboard-response","152","469139","0.0-8.0-2.15","z1gj6a3qrv","one_one","1","indirect_first","0","sa07rt24","1","46","2","1","1","2","","0","1","0","null","","","<img src = 'targets/34.png' width = '100%;'>","null","","","","","","","","","",""
"","html-keyboard-response","153","470444","0.0-8.0-3.15","z1gj6a3qrv","one_one","1","indirect_first","0","sa07rt24","1","46","2","1","1","2","","0","1","0","1304","","","<img src = 'targets/mask.png' width = '100%;'>","75","neg","CS","CS","1","category1/CS9.png","targets/34.png","1","indirect","15",""
"","survey-html-form","154","474405","0.0-9.0","z1gj6a3qrv","one_one","1","indirect_first","0","sa07rt24","1","46","2","1","1","2","","0","1","0","3445","","{}","","","","","","","","","","","",""
"","html-keyboard-response","155","477429","0.0-10.0-0.0","z1gj6a3qrv","one_one","1","indirect_first","0","sa07rt24","1","46","2","1","1","2","","0","1","0","null","","","<div style=""font-size:60px;"">+</div>","null","","","","","","","","","",""
"","html-keyboard-response","156","477529","0.0-10.0-1.0","z1gj6a3qrv","one_one","1","indirect_first","0","sa07rt24","1","46","2","1","1","2","","0","1","0","null","","","<img src = 'category1/GS3.png' width = '100%;'>","null","","","","","","","","","",""
"","html-keyboard-response","157","477809","0.0-10.0-2.0","z1gj6a3qrv","one_one","1","indirect_first","0","sa07rt24","1","46","2","1","1","2","","0","1","0","null","","","<img src = 'targets/25.png' width = '100%;'>","null","","","","","","","","","",""
"","html-keyboard-response","158","479451","0.0-10.0-3.0","z1gj6a3qrv","one_one","1","indirect_first","0","sa07rt24","1","46","2","1","1","2","","0","1","0","1642","","","<img src = 'targets/mask.png' width = '100%;'>","75","neg","GS","GSnew","1","category1/GS3.png","targets/25.png","1","indirect","16",""
"","html-keyboard-response","159","480990","0.0-10.0-0.1","z1gj6a3qrv","one_one","1","indirect_first","0","sa07rt24","1","46","2","1","1","2","","0","1","0","null","","","<div style=""font-size:60px;"">+</div>","null","","","","","","","","","",""
"","html-keyboard-response","160","481089","0.0-10.0-1.1","z1gj6a3qrv","one_one","1","indirect_first","0","sa07rt24","1","46","2","1","1","2","","0","1","0","null","","","<img src = 'category3/GS2.png' width = '100%;'>","null","","","","","","","","","",""
"","html-keyboard-response","161","481369","0.0-10.0-2.1","z1gj6a3qrv","one_one","1","indirect_first","0","sa07rt24","1","46","2","1","1","2","","0","1","0","null","","","<img src = 'targets/3.png' width = '100%;'>","null","","","","","","","","","",""
"","html-keyboard-response","162","482972","0.0-10.0-3.1","z1gj6a3qrv","one_one","1","indirect_first","0","sa07rt24","1","46","2","1","1","2","","0","1","0","1600","","","<img src = 'targets/mask.png' width = '100%;'>","75","pos","GS","GSnew","3","category3/GS2.png","targets/3.png","1","indirect","17",""
"","html-keyboard-response","163","484489","0.0-10.0-0.2","z1gj6a3qrv","one_one","1","indirect_first","0","sa07rt24","1","46","2","1","1","2","","0","1","0","null","","","<div style=""font-size:60px;"">+</div>","null","","","","","","","","","",""
"","html-keyboard-response","164","484589","0.0-10.0-1.2","z1gj6a3qrv","one_one","1","indirect_first","0","sa07rt24","1","46","2","1","1","2","","0","1","0","null","","","<img src = 'category2/men.png' width = '100%;'>","null","","","","","","","","","",""
"","html-keyboard-response","165","484868","0.0-10.0-2.2","z1gj6a3qrv","one_one","1","indirect_first","0","sa07rt24","1","46","2","1","1","2","","0","1","0","null","","","<img src = 'targets/15.png' width = '100%;'>","null","","","","","","","","","",""
"","html-keyboard-response","166","486698","0.0-10.0-3.2","z1gj6a3qrv","one_one","1","indirect_first","0","sa07rt24","1","46","2","1","1","2","","0","1","0","1830","","","<img src = 'targets/mask.png' width = '100%;'>","68","neg","GS","abstract","2","category2/men.png","targets/15.png","0","indirect","18",""
"","html-keyboard-response","167","488210","0.0-10.0-0.3","z1gj6a3qrv","one_one","1","indirect_first","0","sa07rt24","1","46","2","1","1","2","","0","1","0","null","","","<div style=""font-size:60px;"">+</div>","null","","","","","","","","","",""
"","html-keyboard-response","168","488308","0.0-10.0-1.3","z1gj6a3qrv","one_one","1","indirect_first","0","sa07rt24","1","46","2","1","1","2","","0","1","0","null","","","<img src = 'category2/GS2.png' width = '100%;'>","null","","","","","","","","","",""
"","html-keyboard-response","169","488589","0.0-10.0-2.3","z1gj6a3qrv","one_one","1","indirect_first","0","sa07rt24","1","46","2","1","1","2","","0","1","0","null","","","<img src = 'targets/44.png' width = '100%;'>","null","","","","","","","","","",""
"","html-keyboard-response","170","490458","0.0-10.0-3.3","z1gj6a3qrv","one_one","1","indirect_first","0","sa07rt24","1","46","2","1","1","2","","0","1","0","1869","","","<img src = 'targets/mask.png' width = '100%;'>","75","neg","GS","GSnew","2","category2/GS2.png","targets/44.png","1","indirect","19",""
"","html-keyboard-response","171","491988","0.0-10.0-0.4","z1gj6a3qrv","one_one","1","indirect_first","0","sa07rt24","1","46","2","1","1","2","","0","1","0","null","","","<div style=""font-size:60px;"">+</div>","null","","","","","","","","","",""
"","html-keyboard-response","172","492088","0.0-10.0-1.4","z1gj6a3qrv","one_one","1","indirect_first","0","sa07rt24","1","46","2","1","1","2","","0","1","0","null","","","<img src = 'category3/GS1.png' width = '100%;'>","null","","","","","","","","","",""
"","html-keyboard-response","173","492368","0.0-10.0-2.4","z1gj6a3qrv","one_one","1","indirect_first","0","sa07rt24","1","46","2","1","1","2","","0","1","0","null","","","<img src = 'targets/7.png' width = '100%;'>","null","","","","","","","","","",""
"","html-keyboard-response","174","493482","0.0-10.0-3.4","z1gj6a3qrv","one_one","1","indirect_first","0","sa07rt24","1","46","2","1","1","2","","0","1","0","1112","","","<img src = 'targets/mask.png' width = '100%;'>","68","pos","GS","GSnew","3","category3/GS1.png","targets/7.png","0","indirect","20",""
"","html-keyboard-response","175","495008","0.0-10.0-0.5","z1gj6a3qrv","one_one","1","indirect_first","0","sa07rt24","1","46","2","1","1","2","","0","1","0","null","","","<div style=""font-size:60px;"">+</div>","null","","","","","","","","","",""
"","html-keyboard-response","176","495109","0.0-10.0-1.5","z1gj6a3qrv","one_one","1","indirect_first","0","sa07rt24","1","46","2","1","1","2","","0","1","0","null","","","<img src = 'category1/ma.png' width = '100%;'>","null","","","","","","","","","",""
"","html-keyboard-response","177","495389","0.0-10.0-2.5","z1gj6a3qrv","one_one","1","indirect_first","0","sa07rt24","1","46","2","1","1","2","","0","1","0","null","","","<img src = 'targets/5.png' width = '100%;'>","null","","","","","","","","","",""
"","html-keyboard-response","178","496346","0.0-10.0-3.5","z1gj6a3qrv","one_one","1","indirect_first","0","sa07rt24","1","46","2","1","1","2","","0","1","0","956","","","<img src = 'targets/mask.png' width = '100%;'>","75","neg","GS","abstract","1","category1/ma.png","targets/5.png","1","indirect","21",""
"","html-keyboard-response","179","497850","0.0-10.0-0.6","z1gj6a3qrv","one_one","1","indirect_first","0","sa07rt24","1","46","2","1","1","2","","0","1","0","null","","","<div style=""font-size:60px;"">+</div>","null","","","","","","","","","",""
"","html-keyboard-response","180","497949","0.0-10.0-1.6","z1gj6a3qrv","one_one","1","indirect_first","0","sa07rt24","1","46","2","1","1","2","","0","1","0","null","","","<img src = 'category4/GS1.png' width = '100%;'>","null","","","","","","","","","",""
"","html-keyboard-response","181","498228","0.0-10.0-2.6","z1gj6a3qrv","one_one","1","indirect_first","0","sa07rt24","1","46","2","1","1","2","","0","1","0","null","","","<img src = 'targets/22.png' width = '100%;'>","null","","","","","","","","","",""
"","html-keyboard-response","182","498874","0.0-10.0-3.6","z1gj6a3qrv","one_one","1","indirect_first","0","sa07rt24","1","46","2","1","1","2","","0","1","0","644","","","<img src = 'targets/mask.png' width = '100%;'>","75","pos","GS","GSnew","4","category4/GS1.png","targets/22.png","1","indirect","22",""
"","html-keyboard-response","183","500409","0.0-10.0-0.7","z1gj6a3qrv","one_one","1","indirect_first","0","sa07rt24","1","46","2","1","1","2","","0","1","0","null","","","<div style=""font-size:60px;"">+</div>","null","","","","","","","","","",""
"","html-keyboard-response","184","500509","0.0-10.0-1.7","z1gj6a3qrv","one_one","1","indirect_first","0","sa07rt24","1","46","2","1","1","2","","0","1","0","null","","","<img src = 'category1/GS1.png' width = '100%;'>","null","","","","","","","","","",""
"","html-keyboard-response","185","500789","0.0-10.0-2.7","z1gj6a3qrv","one_one","1","indirect_first","0","sa07rt24","1","46","2","1","1","2","","0","1","0","null","","","<img src = 'targets/41.png' width = '100%;'>","null","","","","","","","","","",""
"","html-keyboard-response","186","501515","0.0-10.0-3.7","z1gj6a3qrv","one_one","1","indirect_first","0","sa07rt24","1","46","2","1","1","2","","0","1","0","726","","","<img src = 'targets/mask.png' width = '100%;'>","68","neg","GS","GSnew","1","category1/GS1.png","targets/41.png","0","indirect","23",""
"","html-keyboard-response","187","503019","0.0-10.0-0.8","z1gj6a3qrv","one_one","1","indirect_first","0","sa07rt24","1","46","2","1","1","2","","0","1","0","null","","","<div style=""font-size:60px;"">+</div>","null","","","","","","","","","",""
"","html-keyboard-response","188","503119","0.0-10.0-1.8","z1gj6a3qrv","one_one","1","indirect_first","0","sa07rt24","1","46","2","1","1","2","","0","1","0","null","","","<img src = 'category3/GS3.png' width = '100%;'>","null","","","","","","","","","",""
"","html-keyboard-response","189","503398","0.0-10.0-2.8","z1gj6a3qrv","one_one","1","indirect_first","0","sa07rt24","1","46","2","1","1","2","","0","1","0","null","","","<img src = 'targets/42.png' width = '100%;'>","null","","","","","","","","","",""
"","html-keyboard-response","190","504362","0.0-10.0-3.8","z1gj6a3qrv","one_one","1","indirect_first","0","sa07rt24","1","46","2","1","1","2","","0","1","0","963","","","<img src = 'targets/mask.png' width = '100%;'>","68","pos","GS","GSnew","3","category3/GS3.png","targets/42.png","0","indirect","24",""
"","html-keyboard-response","191","505869","0.0-10.0-0.9","z1gj6a3qrv","one_one","1","indirect_first","0","sa07rt24","1","46","2","1","1","2","","0","1","0","null","","","<div style=""font-size:60px;"">+</div>","null","","","","","","","","","",""
"","html-keyboard-response","192","505969","0.0-10.0-1.9","z1gj6a3qrv","one_one","1","indirect_first","0","sa07rt24","1","46","2","1","1","2","","0","1","0","null","","","<img src = 'category2/GS1.png' width = '100%;'>","null","","","","","","","","","",""
"","html-keyboard-response","193","506249","0.0-10.0-2.9","z1gj6a3qrv","one_one","1","indirect_first","0","sa07rt24","1","46","2","1","1","2","","0","1","0","null","","","<img src = 'targets/16.png' width = '100%;'>","null","","","","","","","","","",""
"","html-keyboard-response","194","507788","0.0-10.0-3.9","z1gj6a3qrv","one_one","1","indirect_first","0","sa07rt24","1","46","2","1","1","2","","0","1","0","1537","","","<img src = 'targets/mask.png' width = '100%;'>","75","neg","GS","GSnew","2","category2/GS1.png","targets/16.png","1","indirect","25",""
"","html-keyboard-response","195","509309","0.0-10.0-0.10","z1gj6a3qrv","one_one","1","indirect_first","0","sa07rt24","1","46","2","1","1","2","","0","1","0","null","","","<div style=""font-size:60px;"">+</div>","null","","","","","","","","","",""
"","html-keyboard-response","196","509409","0.0-10.0-1.10","z1gj6a3qrv","one_one","1","indirect_first","0","sa07rt24","1","46","2","1","1","2","","0","1","0","null","","","<img src = 'category4/GS2.png' width = '100%;'>","null","","","","","","","","","",""
"","html-keyboard-response","197","509689","0.0-10.0-2.10","z1gj6a3qrv","one_one","1","indirect_first","0","sa07rt24","1","46","2","1","1","2","","0","1","0","null","","","<img src = 'targets/2.png' width = '100%;'>","null","","","","","","","","","",""
"","html-keyboard-response","198","510476","0.0-10.0-3.10","z1gj6a3qrv","one_one","1","indirect_first","0","sa07rt24","1","46","2","1","1","2","","0","1","0","784","","","<img src = 'targets/mask.png' width = '100%;'>","68","pos","GS","GSnew","4","category4/GS2.png","targets/2.png","0","indirect","26",""
"","html-keyboard-response","199","511989","0.0-10.0-0.11","z1gj6a3qrv","one_one","1","indirect_first","0","sa07rt24","1","46","2","1","1","2","","0","1","0","null","","","<div style=""font-size:60px;"">+</div>","null","","","","","","","","","",""
"","html-keyboard-response","200","512089","0.0-10.0-1.11","z1gj6a3qrv","one_one","1","indirect_first","0","sa07rt24","1","46","2","1","1","2","","0","1","0","null","","","<img src = 'category4/GS3.png' width = '100%;'>","null","","","","","","","","","",""
"","html-keyboard-response","201","512369","0.0-10.0-2.11","z1gj6a3qrv","one_one","1","indirect_first","0","sa07rt24","1","46","2","1","1","2","","0","1","0","null","","","<img src = 'targets/43.png' width = '100%;'>","null","","","","","","","","","",""
"","html-keyboard-response","202","513355","0.0-10.0-3.11","z1gj6a3qrv","one_one","1","indirect_first","0","sa07rt24","1","46","2","1","1","2","","0","1","0","985","","","<img src = 'targets/mask.png' width = '100%;'>","68","pos","GS","GSnew","4","category4/GS3.png","targets/43.png","0","indirect","27",""
"","html-keyboard-response","203","514889","0.0-10.0-0.12","z1gj6a3qrv","one_one","1","indirect_first","0","sa07rt24","1","46","2","1","1","2","","0","1","0","null","","","<div style=""font-size:60px;"">+</div>","null","","","","","","","","","",""
"","html-keyboard-response","204","514989","0.0-10.0-1.12","z1gj6a3qrv","one_one","1","indirect_first","0","sa07rt24","1","46","2","1","1","2","","0","1","0","null","","","<img src = 'category3/wang.png' width = '100%;'>","null","","","","","","","","","",""
"","html-keyboard-response","205","515269","0.0-10.0-2.12","z1gj6a3qrv","one_one","1","indirect_first","0","sa07rt24","1","46","2","1","1","2","","0","1","0","null","","","<img src = 'targets/10.png' width = '100%;'>","null","","","","","","","","","",""
"","html-keyboard-response","206","516332","0.0-10.0-3.12","z1gj6a3qrv","one_one","1","indirect_first","0","sa07rt24","1","46","2","1","1","2","","0","1","0","1061","","","<img src = 'targets/mask.png' width = '100%;'>","75","pos","GS","abstract","3","category3/wang.png","targets/10.png","1","indirect","28",""
"","html-keyboard-response","207","517850","0.0-10.0-0.13","z1gj6a3qrv","one_one","1","indirect_first","0","sa07rt24","1","46","2","1","1","2","","0","1","0","null","","","<div style=""font-size:60px;"">+</div>","null","","","","","","","","","",""
"","html-keyboard-response","208","517949","0.0-10.0-1.13","z1gj6a3qrv","one_one","1","indirect_first","0","sa07rt24","1","46","2","1","1","2","","0","1","0","null","","","<img src = 'category1/GS2.png' width = '100%;'>","null","","","","","","","","","",""
"","html-keyboard-response","209","518228","0.0-10.0-2.13","z1gj6a3qrv","one_one","1","indirect_first","0","sa07rt24","1","46","2","1","1","2","","0","1","0","null","","","<img src = 'targets/31.png' width = '100%;'>","null","","","","","","","","","",""
"","html-keyboard-response","210","519020","0.0-10.0-3.13","z1gj6a3qrv","one_one","1","indirect_first","0","sa07rt24","1","46","2","1","1","2","","0","1","0","791","","","<img src = 'targets/mask.png' width = '100%;'>","68","neg","GS","GSnew","1","category1/GS2.png","targets/31.png","0","indirect","29",""
"","html-keyboard-response","211","520529","0.0-10.0-0.14","z1gj6a3qrv","one_one","1","indirect_first","0","sa07rt24","1","46","2","1","1","2","","0","1","0","null","","","<div style=""font-size:60px;"">+</div>","null","","","","","","","","","",""
"","html-keyboard-response","212","520629","0.0-10.0-1.14","z1gj6a3qrv","one_one","1","indirect_first","0","sa07rt24","1","46","2","1","1","2","","0","1","0","null","","","<img src = 'category4/lin.png' width = '100%;'>","null","","","","","","","","","",""
"","html-keyboard-response","213","520909","0.0-10.0-2.14","z1gj6a3qrv","one_one","1","indirect_first","0","sa07rt24","1","46","2","1","1","2","","0","1","0","null","","","<img src = 'targets/40.png' width = '100%;'>","null","","","","","","","","","",""
"","html-keyboard-response","214","521820","0.0-10.0-3.14","z1gj6a3qrv","one_one","1","indirect_first","0","sa07rt24","1","46","2","1","1","2","","0","1","0","909","","","<img src = 'targets/mask.png' width = '100%;'>","68","pos","GS","abstract","4","category4/lin.png","targets/40.png","0","indirect","30",""
"","html-keyboard-response","215","523349","0.0-10.0-0.15","z1gj6a3qrv","one_one","1","indirect_first","0","sa07rt24","1","46","2","1","1","2","","0","1","0","null","","","<div style=""font-size:60px;"">+</div>","null","","","","","","","","","",""
"","html-keyboard-response","216","523450","0.0-10.0-1.15","z1gj6a3qrv","one_one","1","indirect_first","0","sa07rt24","1","46","2","1","1","2","","0","1","0","null","","","<img src = 'category2/GS3.png' width = '100%;'>","null","","","","","","","","","",""
"","html-keyboard-response","217","523729","0.0-10.0-2.15","z1gj6a3qrv","one_one","1","indirect_first","0","sa07rt24","1","46","2","1","1","2","","0","1","0","null","","","<img src = 'targets/46.png' width = '100%;'>","null","","","","","","","","","",""
"","html-keyboard-response","218","525708","0.0-10.0-3.15","z1gj6a3qrv","one_one","1","indirect_first","0","sa07rt24","1","46","2","1","1","2","","0","1","0","1979","","","<img src = 'targets/mask.png' width = '100%;'>","75","neg","GS","GSnew","2","category2/GS3.png","targets/46.png","1","indirect","31",""
"","survey-html-form","219","539891","0.0-11.0","z1gj6a3qrv","one_one","1","indirect_first","0","sa07rt24","1","46","2","1","1","2","","0","1","0","13681","","{}","","","","","","","","","","","",""
"","image-slider-response","220","555617","0.0-12.0-0.0","z1gj6a3qrv","one_one","1","indirect_first","0","sa07rt24","1","46","2","1","1","2","","0","1","0","13695","","","","","pos","GS","GSnew","3","category3/GS3.png","targets/42.png","","direct","","6"
"","image-slider-response","221","560612","0.0-12.0-0.1","z1gj6a3qrv","one_one","1","indirect_first","0","sa07rt24","1","46","2","1","1","2","","0","1","0","4992","","","","","pos","GS","GSnew","4","category4/GS1.png","targets/22.png","","direct","","67"
"","image-slider-response","222","565304","0.0-12.0-0.2","z1gj6a3qrv","one_one","1","indirect_first","0","sa07rt24","1","46","2","1","1","2","","0","1","0","4689","","","","","pos","GS","GSold","4","category4/CS7.png","targets/28.png","","direct","","11"
"","image-slider-response","223","571007","0.0-12.0-0.3","z1gj6a3qrv","one_one","1","indirect_first","0","sa07rt24","1","46","2","1","1","2","","0","1","0","5699","","","","","neg","GS","GSnew","2","category2/GS1.png","targets/16.png","","direct","","-66"
"","image-slider-response","224","576925","0.0-12.0-0.4","z1gj6a3qrv","one_one","1","indirect_first","0","sa07rt24","1","46","2","1","1","2","","0","1","0","5916","","","","","neg","GS","abstract","1","category1/ma.png","targets/5.png","","direct","","-77"
"","image-slider-response","225","583247","0.0-12.0-0.5","z1gj6a3qrv","one_one","1","indirect_first","0","sa07rt24","1","46","2","1","1","2","","0","1","0","6321","","","","","pos","GS","GSold","4","category4/CS9.png","targets/24.png","","direct","","8"
"","image-slider-response","226","587579","0.0-12.0-0.6","z1gj6a3qrv","one_one","1","indirect_first","0","sa07rt24","1","46","2","1","1","2","","0","1","0","4329","","","","","neg","GS","GSold","2","category2/CS3.png","targets/23.png","","direct","","-97"
"","image-slider-response","227","595216","0.0-12.0-0.7","z1gj6a3qrv","one_one","1","indirect_first","0","sa07rt24","1","46","2","1","1","2","","0","1","0","7637","","","","","pos","GS","GSold","3","category3/CS3.png","targets/8.png","","direct","","-12"
"","image-slider-response","228","599818","0.0-12.0-0.8","z1gj6a3qrv","one_one","1","indirect_first","0","sa07rt24","1","46","2","1","1","2","","0","1","0","4599","","","","","pos","GS","GSold","3","category3/CS8.png","targets/47.png","","direct","","-77"
"","image-slider-response","229","603249","0.0-12.0-0.9","z1gj6a3qrv","one_one","1","indirect_first","0","sa07rt24","1","46","2","1","1","2","","0","1","0","3429","","","","","neg","GS","GSnew","1","category1/GS2.png","targets/31.png","","direct","","-12"
"","image-slider-response","230","606669","0.0-12.0-0.10","z1gj6a3qrv","one_one","1","indirect_first","0","sa07rt24","1","46","2","1","1","2","","0","1","0","3417","","","","","pos","GS","GSnew","3","category3/GS1.png","targets/7.png","","direct","","-6"
"","image-slider-response","231","611393","0.0-12.0-0.11","z1gj6a3qrv","one_one","1","indirect_first","0","sa07rt24","1","46","2","1","1","2","","0","1","0","4722","","","","","neg","CS","CS","2","category2/CS4.png","targets/1.png","","direct","","-94"
"","image-slider-response","232","616524","0.0-12.0-0.12","z1gj6a3qrv","one_one","1","indirect_first","0","sa07rt24","1","46","2","1","1","2","","0","1","0","5127","","","","","pos","CS","CS","3","category3/CS7.png","targets/38.png","","direct","","91"
"","image-slider-response","233","620371","0.0-12.0-0.13","z1gj6a3qrv","one_one","1","indirect_first","0","sa07rt24","1","46","2","1","1","2","","0","1","0","3847","","","","","neg","GS","GSnew","1","category1/GS3.png","targets/25.png","","direct","","-16"
"","image-slider-response","234","623352","0.0-12.0-0.14","z1gj6a3qrv","one_one","1","indirect_first","0","sa07rt24","1","46","2","1","1","2","","0","1","0","2979","","","","","pos","GS","GSnew","4","category4/GS3.png","targets/43.png","","direct","","78"
"","image-slider-response","235","629620","0.0-12.0-0.15","z1gj6a3qrv","one_one","1","indirect_first","0","sa07rt24","1","46","2","1","1","2","","0","1","0","6266","","","","","neg","GS","GSold","1","category1/CS7.png","targets/6.png","","direct","","-10"
"","image-slider-response","236","634704","0.0-12.0-0.16","z1gj6a3qrv","one_one","1","indirect_first","0","sa07rt24","1","46","2","1","1","2","","0","1","0","5083","","","","","pos","GS","GSnew","3","category3/GS2.png","targets/3.png","","direct","","16"
"","image-slider-response","237","638023","0.0-12.0-0.17","z1gj6a3qrv","one_one","1","indirect_first","0","sa07rt24","1","46","2","1","1","2","","0","1","0","3316","","","","","neg","GS","abstract","2","category2/men.png","targets/15.png","","direct","","-55"
"","image-slider-response","238","642162","0.0-12.0-0.18","z1gj6a3qrv","one_one","1","indirect_first","0","sa07rt24","1","46","2","1","1","2","","0","1","0","4139","","","","","neg","GS","GSnew","2","category2/GS3.png","targets/46.png","","direct","","-12"
"","image-slider-response","239","648339","0.0-12.0-0.19","z1gj6a3qrv","one_one","1","indirect_first","0","sa07rt24","1","46","2","1","1","2","","0","1","0","6174","","","","","neg","GS","GSold","1","category1/CS3.png","targets/19.png","","direct","","-44"
"","image-slider-response","240","651995","0.0-12.0-0.20","z1gj6a3qrv","one_one","1","indirect_first","0","sa07rt24","1","46","2","1","1","2","","0","1","0","3654","","","","","neg","GS","GSnew","2","category2/GS2.png","targets/44.png","","direct","","-45"
"","image-slider-response","241","655291","0.0-12.0-0.21","z1gj6a3qrv","one_one","1","indirect_first","0","sa07rt24","1","46","2","1","1","2","","0","1","0","3294","","","","","neg","GS","GSold","2","category2/CS8.png","targets/30.png","","direct","","-68"
"","image-slider-response","242","658082","0.0-12.0-0.22","z1gj6a3qrv","one_one","1","indirect_first","0","sa07rt24","1","46","2","1","1","2","","0","1","0","2789","","","","","pos","GS","GSnew","4","category4/GS2.png","targets/2.png","","direct","","83"
"","image-slider-response","243","662907","0.0-12.0-0.23","z1gj6a3qrv","one_one","1","indirect_first","0","sa07rt24","1","46","2","1","1","2","","0","1","0","4823","","","","","neg","CS","CS","1","category1/CS9.png","targets/34.png","","direct","","-77"
"","image-slider-response","244","666124","0.0-12.0-0.24","z1gj6a3qrv","one_one","1","indirect_first","0","sa07rt24","1","46","2","1","1","2","","0","1","0","3215","","","","","pos","GS","GSold","4","category4/CS2.png","targets/37.png","","direct","","76"
"","image-slider-response","245","669556","0.0-12.0-0.25","z1gj6a3qrv","one_one","1","indirect_first","0","sa07rt24","1","46","2","1","1","2","","0","1","0","3430","","","","","pos","CS","CS","4","category4/CS1.png","targets/33.png","","direct","","82"
"","image-slider-response","246","676081","0.0-12.0-0.26","z1gj6a3qrv","one_one","1","indirect_first","0","sa07rt24","1","46","2","1","1","2","","0","1","0","6524","","","","","neg","GS","GSnew","1","category1/GS1.png","targets/41.png","","direct","","-25"
"","image-slider-response","247","679096","0.0-12.0-0.27","z1gj6a3qrv","one_one","1","indirect_first","0","sa07rt24","1","46","2","1","1","2","","0","1","0","3011","","","","","neg","GS","GSold","1","category1/CS2.png","targets/48.png","","direct","","-22"
"","image-slider-response","248","682369","0.0-12.0-0.28","z1gj6a3qrv","one_one","1","indirect_first","0","sa07rt24","1","46","2","1","1","2","","0","1","0","3271","","","","","pos","GS","abstract","3","category3/wang.png","targets/10.png","","direct","","7"
"","image-slider-response","249","686712","0.0-12.0-0.29","z1gj6a3qrv","one_one","1","indirect_first","0","sa07rt24","1","46","2","1","1","2","","0","1","0","4340","","","","","neg","GS","GSold","2","category2/CS10.png","targets/29.png","","direct","","16"
"","image-slider-response","250","689829","0.0-12.0-0.30","z1gj6a3qrv","one_one","1","indirect_first","0","sa07rt24","1","46","2","1","1","2","","0","1","0","3115","","","","","pos","GS","abstract","4","category4/lin.png","targets/40.png","","direct","","65"
"","image-slider-response","251","693204","0.0-12.0-0.31","z1gj6a3qrv","one_one","1","indirect_first","0","sa07rt24","1","46","2","1","1","2","","0","1","0","3373","","","","","pos","GS","GSold","3","category3/CS4.png","targets/20.png","","direct","","38"
"","survey-html-form","252","697872","0.0-13.0","z1gj6a3qrv","one_one","1","indirect_first","0","sa07rt24","1","46","2","1","1","2","","0","1","0","4668","","{}","","","","","","","","","","","",""
"","image-slider-response","253","704757","0.0-14.0-0.0","z1gj6a3qrv","one_one","1","indirect_first","0","sa07rt24","1","46","2","1","1","2","","0","1","0","5863","","","","","neg","All","all","2","category2/men_all.png","","","all","","-36"
"","image-slider-response","254","710449","0.0-14.0-0.1","z1gj6a3qrv","one_one","1","indirect_first","0","sa07rt24","1","46","2","1","1","2","","0","1","0","5690","","","","","neg","All","all","1","category1/ma_all.png","","","all","","-46"
"","image-slider-response","255","714083","0.0-14.0-0.2","z1gj6a3qrv","one_one","1","indirect_first","0","sa07rt24","1","46","2","1","1","2","","0","1","0","3632","","","","","pos","All","all","3","category3/wang_all.png","","","all","","16"
"","image-slider-response","256","717480","0.0-14.0-0.3","z1gj6a3qrv","one_one","1","indirect_first","0","sa07rt24","1","46","2","1","1","2","","0","1","0","3395","","","","","pos","All","all","4","category4/lin_all.png","","","all","","46"
"","survey-text","257","720822","0.0-15.0","z1gj6a3qrv","one_one","1","indirect_first","0","sa07rt24","1","46","2","1","1","2","","0","1","0","3336","","{""comment"":""""}","","","","","","","","","","","",""
"","survey-html-form","258","736674","0.0-16.0","z1gj6a3qrv","one_one","1","indirect_first","0","sa07rt24","1","46","2","1","1","2","","0","1","0","15850","","{""hinschauen"":""0"",""ablenkung"":""1"",""gewissenhaft"":""0""}","","","","","","","","","","","",""
