"success","trial_type","trial_index","time_elapsed","internal_node_id","subject","condition","condition_code","measure","measure_code","codeword","gender","age","education","chinese","fach","handedness","comment","hinschauen","ablenkung","gewissenhaft","rt","url","responses","stimulus","key_press","val","type","type_specific","category","cs_selected","response","target","task","indirect","nr_pres"
"true","fullscreen","0","2227","0.0-0.0","9lu5hgyd1p","one_one","1","direct_first","1","he06ig03","1","25","1","1","3","1","","0","1","0","","","","","","","","","","","","","","",""
"","external-html","1","6001","0.0-1.0","9lu5hgyd1p","one_one","1","direct_first","1","he06ig03","1","25","1","1","3","1","","0","1","0","3731","text/information.html","","","","","","","","","","","","",""
"","external-html","2","16060","0.0-2.0","9lu5hgyd1p","one_one","1","direct_first","1","he06ig03","1","25","1","1","3","1","","0","1","0","10033","text/consent.html","","","","","","","","","","","","",""
"","survey-html-form","3","61723","0.0-3.0","9lu5hgyd1p","one_one","1","direct_first","1","he06ig03","1","25","1","1","3","1","","0","1","0","45660","","{""codeword_enter"":""he06ig03""}","","","","","","","","","","","",""
"","survey-html-form","4","78015","0.0-4.0","9lu5hgyd1p","one_one","1","direct_first","1","he06ig03","1","25","1","1","3","1","","0","1","0","16288","","{""age"":""25"",""education"":""1"",""subject"":""3"",""gender"":""1"",""handedness"":""1"",""chinese"":""1""}","","","","","","","","","","","",""
"","survey-html-form","5","80057","0.0-5.0","9lu5hgyd1p","one_one","1","direct_first","1","he06ig03","1","25","1","1","3","1","","0","1","0","2039","","{}","","","","","","","","","","","",""
"","html-keyboard-response","6","84065","0.0-6.0-0.0-0.0","9lu5hgyd1p","one_one","1","direct_first","1","he06ig03","1","25","1","1","3","1","","0","1","0","null","","","<div class = 'row'><div class = 'column'><img src = 'category1/CS4.png' width = '70%;'></div><div class = 'column'><img src = 'uspos/2150.bmp' width = '100%;'></div></div>","null","pos","CS","CS","1","category1/CS4.png","","","","",""
"","html-keyboard-response","7","86570","0.0-6.0-0.0-0.1","9lu5hgyd1p","one_one","1","direct_first","1","he06ig03","1","25","1","1","3","1","","0","1","0","null","","","<div class = 'row'><div class = 'column'><img src = 'category3/CS8.png' width = '70%;'></div><div class = 'column'><img src = 'uspos/8190.bmp' width = '100%;'></div></div>","null","pos","CS","CS","3","category3/CS8.png","","","","",""
"","html-keyboard-response","8","89074","0.0-6.0-0.0-0.2","9lu5hgyd1p","one_one","1","direct_first","1","he06ig03","1","25","1","1","3","1","","0","1","0","null","","","<div class = 'row'><div class = 'column'><img src = 'usneg/2205.bmp' width = '100%;'></div><div class = 'column'><img src = 'category2/CS5.png' width = '70%;'></div></div>","null","neg","CS","CS","2","category2/CS5.png","","","","",""
"","html-keyboard-response","9","91581","0.0-6.0-0.0-0.3","9lu5hgyd1p","one_one","1","direct_first","1","he06ig03","1","25","1","1","3","1","","0","1","0","null","","","<div class = 'row'><div class = 'column'><img src = 'category1/CS4.png' width = '70%;'></div><div class = 'column'><img src = 'uspos/2150.bmp' width = '100%;'></div></div>","null","pos","CS","CS","1","category1/CS4.png","","","","",""
"","html-keyboard-response","10","94084","0.0-6.0-0.0-0.4","9lu5hgyd1p","one_one","1","direct_first","1","he06ig03","1","25","1","1","3","1","","0","1","0","null","","","<div class = 'row'><div class = 'column'><img src = 'category3/CS8.png' width = '70%;'></div><div class = 'column'><img src = 'uspos/8190.bmp' width = '100%;'></div></div>","null","pos","CS","CS","3","category3/CS8.png","","","","",""
"","html-keyboard-response","11","96586","0.0-6.0-0.0-0.5","9lu5hgyd1p","one_one","1","direct_first","1","he06ig03","1","25","1","1","3","1","","0","1","0","null","","","<div class = 'row'><div class = 'column'><img src = 'usneg/2205.bmp' width = '100%;'></div><div class = 'column'><img src = 'category2/CS5.png' width = '70%;'></div></div>","null","neg","CS","CS","2","category2/CS5.png","","","","",""
"","html-keyboard-response","12","99088","0.0-6.0-0.0-0.6","9lu5hgyd1p","one_one","1","direct_first","1","he06ig03","1","25","1","1","3","1","","0","1","0","null","","","<div class = 'row'><div class = 'column'><img src = 'category4/CS8.png' width = '70%;'></div><div class = 'column'><img src = 'usneg/6570.1.bmp' width = '100%;'></div></div>","null","neg","CS","CS","4","category4/CS8.png","","","","",""
"","html-keyboard-response","13","101591","0.0-6.0-0.0-0.7","9lu5hgyd1p","one_one","1","direct_first","1","he06ig03","1","25","1","1","3","1","","0","1","0","null","","","<div class = 'row'><div class = 'column'><img src = 'uspos/8190.bmp' width = '100%;'></div><div class = 'column'><img src = 'category3/CS8.png' width = '70%;'></div></div>","null","pos","CS","CS","3","category3/CS8.png","","","","",""
"","html-keyboard-response","14","104093","0.0-6.0-0.0-0.8","9lu5hgyd1p","one_one","1","direct_first","1","he06ig03","1","25","1","1","3","1","","0","1","0","null","","","<div class = 'row'><div class = 'column'><img src = 'uspos/2150.bmp' width = '100%;'></div><div class = 'column'><img src = 'category1/CS4.png' width = '70%;'></div></div>","null","pos","CS","CS","1","category1/CS4.png","","","","",""
"","html-keyboard-response","15","106595","0.0-6.0-0.0-0.9","9lu5hgyd1p","one_one","1","direct_first","1","he06ig03","1","25","1","1","3","1","","0","1","0","null","","","<div class = 'row'><div class = 'column'><img src = 'usneg/2205.bmp' width = '100%;'></div><div class = 'column'><img src = 'category2/CS5.png' width = '70%;'></div></div>","null","neg","CS","CS","2","category2/CS5.png","","","","",""
"","html-keyboard-response","16","109098","0.0-6.0-0.0-0.10","9lu5hgyd1p","one_one","1","direct_first","1","he06ig03","1","25","1","1","3","1","","0","1","0","null","","","<div class = 'row'><div class = 'column'><img src = 'category4/CS8.png' width = '70%;'></div><div class = 'column'><img src = 'usneg/6570.1.bmp' width = '100%;'></div></div>","null","neg","CS","CS","4","category4/CS8.png","","","","",""
"","html-keyboard-response","17","111602","0.0-6.0-0.0-0.11","9lu5hgyd1p","one_one","1","direct_first","1","he06ig03","1","25","1","1","3","1","","0","1","0","null","","","<div class = 'row'><div class = 'column'><img src = 'uspos/8190.bmp' width = '100%;'></div><div class = 'column'><img src = 'category3/CS8.png' width = '70%;'></div></div>","null","pos","CS","CS","3","category3/CS8.png","","","","",""
"","html-keyboard-response","18","114104","0.0-6.0-0.0-0.12","9lu5hgyd1p","one_one","1","direct_first","1","he06ig03","1","25","1","1","3","1","","0","1","0","null","","","<div class = 'row'><div class = 'column'><img src = 'category2/CS5.png' width = '70%;'></div><div class = 'column'><img src = 'usneg/2205.bmp' width = '100%;'></div></div>","null","neg","CS","CS","2","category2/CS5.png","","","","",""
"","html-keyboard-response","19","116607","0.0-6.0-0.0-0.13","9lu5hgyd1p","one_one","1","direct_first","1","he06ig03","1","25","1","1","3","1","","0","1","0","null","","","<div class = 'row'><div class = 'column'><img src = 'usneg/6570.1.bmp' width = '100%;'></div><div class = 'column'><img src = 'category4/CS8.png' width = '70%;'></div></div>","null","neg","CS","CS","4","category4/CS8.png","","","","",""
"","html-keyboard-response","20","119110","0.0-6.0-0.0-0.14","9lu5hgyd1p","one_one","1","direct_first","1","he06ig03","1","25","1","1","3","1","","0","1","0","null","","","<div class = 'row'><div class = 'column'><img src = 'uspos/8190.bmp' width = '100%;'></div><div class = 'column'><img src = 'category3/CS8.png' width = '70%;'></div></div>","null","pos","CS","CS","3","category3/CS8.png","","","","",""
"","html-keyboard-response","21","121613","0.0-6.0-0.0-0.15","9lu5hgyd1p","one_one","1","direct_first","1","he06ig03","1","25","1","1","3","1","","0","1","0","null","","","<div class = 'row'><div class = 'column'><img src = 'usneg/2205.bmp' width = '100%;'></div><div class = 'column'><img src = 'category2/CS5.png' width = '70%;'></div></div>","null","neg","CS","CS","2","category2/CS5.png","","","","",""
"","html-keyboard-response","22","124116","0.0-6.0-0.0-0.16","9lu5hgyd1p","one_one","1","direct_first","1","he06ig03","1","25","1","1","3","1","","0","1","0","null","","","<div class = 'row'><div class = 'column'><img src = 'usneg/6570.1.bmp' width = '100%;'></div><div class = 'column'><img src = 'category4/CS8.png' width = '70%;'></div></div>","null","neg","CS","CS","4","category4/CS8.png","","","","",""
"","html-keyboard-response","23","126618","0.0-6.0-0.0-0.17","9lu5hgyd1p","one_one","1","direct_first","1","he06ig03","1","25","1","1","3","1","","0","1","0","null","","","<div class = 'row'><div class = 'column'><img src = 'uspos/2150.bmp' width = '100%;'></div><div class = 'column'><img src = 'category1/CS4.png' width = '70%;'></div></div>","null","pos","CS","CS","1","category1/CS4.png","","","","",""
"","html-keyboard-response","24","129120","0.0-6.0-0.0-0.18","9lu5hgyd1p","one_one","1","direct_first","1","he06ig03","1","25","1","1","3","1","","0","1","0","null","","","<div class = 'row'><div class = 'column'><img src = 'usneg/6570.1.bmp' width = '100%;'></div><div class = 'column'><img src = 'category4/CS8.png' width = '70%;'></div></div>","null","neg","CS","CS","4","category4/CS8.png","","","","",""
"","html-keyboard-response","25","131623","0.0-6.0-0.0-0.19","9lu5hgyd1p","one_one","1","direct_first","1","he06ig03","1","25","1","1","3","1","","0","1","0","null","","","<div class = 'row'><div class = 'column'><img src = 'uspos/2150.bmp' width = '100%;'></div><div class = 'column'><img src = 'category1/CS4.png' width = '70%;'></div></div>","null","pos","CS","CS","1","category1/CS4.png","","","","",""
"","survey-html-form","26","136087","0.0-6.0-1.0","9lu5hgyd1p","one_one","1","direct_first","1","he06ig03","1","25","1","1","3","1","","0","1","0","3963","","{}","","","","","","","","","","","",""
"","html-keyboard-response","27","140093","0.0-6.0-2.0-0.0","9lu5hgyd1p","one_one","1","direct_first","1","he06ig03","1","25","1","1","3","1","","0","1","0","null","","","<div class = 'row'><div class = 'column'><img src = 'usneg/2205.bmp' width = '100%;'></div><div class = 'column'><img src = 'category2/CS5.png' width = '70%;'></div></div>","null","neg","CS","CS","2","category2/CS5.png","","","","",""
"","html-keyboard-response","28","142598","0.0-6.0-2.0-0.1","9lu5hgyd1p","one_one","1","direct_first","1","he06ig03","1","25","1","1","3","1","","0","1","0","null","","","<div class = 'row'><div class = 'column'><img src = 'uspos/8190.bmp' width = '100%;'></div><div class = 'column'><img src = 'category3/CS8.png' width = '70%;'></div></div>","null","pos","CS","CS","3","category3/CS8.png","","","","",""
"","html-keyboard-response","29","145102","0.0-6.0-2.0-0.2","9lu5hgyd1p","one_one","1","direct_first","1","he06ig03","1","25","1","1","3","1","","0","1","0","null","","","<div class = 'row'><div class = 'column'><img src = 'usneg/6570.1.bmp' width = '100%;'></div><div class = 'column'><img src = 'category4/CS8.png' width = '70%;'></div></div>","null","neg","CS","CS","4","category4/CS8.png","","","","",""
"","html-keyboard-response","30","147605","0.0-6.0-2.0-0.3","9lu5hgyd1p","one_one","1","direct_first","1","he06ig03","1","25","1","1","3","1","","0","1","0","null","","","<div class = 'row'><div class = 'column'><img src = 'uspos/2150.bmp' width = '100%;'></div><div class = 'column'><img src = 'category1/CS4.png' width = '70%;'></div></div>","null","pos","CS","CS","1","category1/CS4.png","","","","",""
"","html-keyboard-response","31","150107","0.0-6.0-2.0-0.4","9lu5hgyd1p","one_one","1","direct_first","1","he06ig03","1","25","1","1","3","1","","0","1","0","null","","","<div class = 'row'><div class = 'column'><img src = 'uspos/8190.bmp' width = '100%;'></div><div class = 'column'><img src = 'category3/CS8.png' width = '70%;'></div></div>","null","pos","CS","CS","3","category3/CS8.png","","","","",""
"","html-keyboard-response","32","152608","0.0-6.0-2.0-0.5","9lu5hgyd1p","one_one","1","direct_first","1","he06ig03","1","25","1","1","3","1","","0","1","0","null","","","<div class = 'row'><div class = 'column'><img src = 'usneg/6570.1.bmp' width = '100%;'></div><div class = 'column'><img src = 'category4/CS8.png' width = '70%;'></div></div>","null","neg","CS","CS","4","category4/CS8.png","","","","",""
"","html-keyboard-response","33","155113","0.0-6.0-2.0-0.6","9lu5hgyd1p","one_one","1","direct_first","1","he06ig03","1","25","1","1","3","1","","0","1","0","null","","","<div class = 'row'><div class = 'column'><img src = 'uspos/8190.bmp' width = '100%;'></div><div class = 'column'><img src = 'category3/CS8.png' width = '70%;'></div></div>","null","pos","CS","CS","3","category3/CS8.png","","","","",""
"","html-keyboard-response","34","157617","0.0-6.0-2.0-0.7","9lu5hgyd1p","one_one","1","direct_first","1","he06ig03","1","25","1","1","3","1","","0","1","0","null","","","<div class = 'row'><div class = 'column'><img src = 'category1/CS4.png' width = '70%;'></div><div class = 'column'><img src = 'uspos/2150.bmp' width = '100%;'></div></div>","null","pos","CS","CS","1","category1/CS4.png","","","","",""
"","html-keyboard-response","35","160117","0.0-6.0-2.0-0.8","9lu5hgyd1p","one_one","1","direct_first","1","he06ig03","1","25","1","1","3","1","","0","1","0","null","","","<div class = 'row'><div class = 'column'><img src = 'usneg/6570.1.bmp' width = '100%;'></div><div class = 'column'><img src = 'category4/CS8.png' width = '70%;'></div></div>","null","neg","CS","CS","4","category4/CS8.png","","","","",""
"","html-keyboard-response","36","162619","0.0-6.0-2.0-0.9","9lu5hgyd1p","one_one","1","direct_first","1","he06ig03","1","25","1","1","3","1","","0","1","0","null","","","<div class = 'row'><div class = 'column'><img src = 'category1/CS4.png' width = '70%;'></div><div class = 'column'><img src = 'uspos/2150.bmp' width = '100%;'></div></div>","null","pos","CS","CS","1","category1/CS4.png","","","","",""
"","html-keyboard-response","37","165121","0.0-6.0-2.0-0.10","9lu5hgyd1p","one_one","1","direct_first","1","he06ig03","1","25","1","1","3","1","","0","1","0","null","","","<div class = 'row'><div class = 'column'><img src = 'usneg/6570.1.bmp' width = '100%;'></div><div class = 'column'><img src = 'category4/CS8.png' width = '70%;'></div></div>","null","neg","CS","CS","4","category4/CS8.png","","","","",""
"","html-keyboard-response","38","167623","0.0-6.0-2.0-0.11","9lu5hgyd1p","one_one","1","direct_first","1","he06ig03","1","25","1","1","3","1","","0","1","0","null","","","<div class = 'row'><div class = 'column'><img src = 'usneg/2205.bmp' width = '100%;'></div><div class = 'column'><img src = 'category2/CS5.png' width = '70%;'></div></div>","null","neg","CS","CS","2","category2/CS5.png","","","","",""
"","html-keyboard-response","39","170125","0.0-6.0-2.0-0.12","9lu5hgyd1p","one_one","1","direct_first","1","he06ig03","1","25","1","1","3","1","","0","1","0","null","","","<div class = 'row'><div class = 'column'><img src = 'uspos/8190.bmp' width = '100%;'></div><div class = 'column'><img src = 'category3/CS8.png' width = '70%;'></div></div>","null","pos","CS","CS","3","category3/CS8.png","","","","",""
"","html-keyboard-response","40","172629","0.0-6.0-2.0-0.13","9lu5hgyd1p","one_one","1","direct_first","1","he06ig03","1","25","1","1","3","1","","0","1","0","null","","","<div class = 'row'><div class = 'column'><img src = 'category1/CS4.png' width = '70%;'></div><div class = 'column'><img src = 'uspos/2150.bmp' width = '100%;'></div></div>","null","pos","CS","CS","1","category1/CS4.png","","","","",""
"","html-keyboard-response","41","175132","0.0-6.0-2.0-0.14","9lu5hgyd1p","one_one","1","direct_first","1","he06ig03","1","25","1","1","3","1","","0","1","0","null","","","<div class = 'row'><div class = 'column'><img src = 'category2/CS5.png' width = '70%;'></div><div class = 'column'><img src = 'usneg/2205.bmp' width = '100%;'></div></div>","null","neg","CS","CS","2","category2/CS5.png","","","","",""
"","html-keyboard-response","42","177636","0.0-6.0-2.0-0.15","9lu5hgyd1p","one_one","1","direct_first","1","he06ig03","1","25","1","1","3","1","","0","1","0","null","","","<div class = 'row'><div class = 'column'><img src = 'category4/CS8.png' width = '70%;'></div><div class = 'column'><img src = 'usneg/6570.1.bmp' width = '100%;'></div></div>","null","neg","CS","CS","4","category4/CS8.png","","","","",""
"","html-keyboard-response","43","180138","0.0-6.0-2.0-0.16","9lu5hgyd1p","one_one","1","direct_first","1","he06ig03","1","25","1","1","3","1","","0","1","0","null","","","<div class = 'row'><div class = 'column'><img src = 'category2/CS5.png' width = '70%;'></div><div class = 'column'><img src = 'usneg/2205.bmp' width = '100%;'></div></div>","null","neg","CS","CS","2","category2/CS5.png","","","","",""
"","html-keyboard-response","44","182641","0.0-6.0-2.0-0.17","9lu5hgyd1p","one_one","1","direct_first","1","he06ig03","1","25","1","1","3","1","","0","1","0","null","","","<div class = 'row'><div class = 'column'><img src = 'category1/CS4.png' width = '70%;'></div><div class = 'column'><img src = 'uspos/2150.bmp' width = '100%;'></div></div>","null","pos","CS","CS","1","category1/CS4.png","","","","",""
"","html-keyboard-response","45","185146","0.0-6.0-2.0-0.18","9lu5hgyd1p","one_one","1","direct_first","1","he06ig03","1","25","1","1","3","1","","0","1","0","null","","","<div class = 'row'><div class = 'column'><img src = 'usneg/2205.bmp' width = '100%;'></div><div class = 'column'><img src = 'category2/CS5.png' width = '70%;'></div></div>","null","neg","CS","CS","2","category2/CS5.png","","","","",""
"","html-keyboard-response","46","187649","0.0-6.0-2.0-0.19","9lu5hgyd1p","one_one","1","direct_first","1","he06ig03","1","25","1","1","3","1","","0","1","0","null","","","<div class = 'row'><div class = 'column'><img src = 'uspos/8190.bmp' width = '100%;'></div><div class = 'column'><img src = 'category3/CS8.png' width = '70%;'></div></div>","null","pos","CS","CS","3","category3/CS8.png","","","","",""
"","survey-html-form","47","191509","0.0-6.0-3.0","9lu5hgyd1p","one_one","1","direct_first","1","he06ig03","1","25","1","1","3","1","","0","1","0","3357","","{}","","","","","","","","","","","",""
"","html-keyboard-response","48","195514","0.0-6.0-4.0-0.0","9lu5hgyd1p","one_one","1","direct_first","1","he06ig03","1","25","1","1","3","1","","0","1","0","null","","","<div class = 'row'><div class = 'column'><img src = 'category4/CS8.png' width = '70%;'></div><div class = 'column'><img src = 'usneg/6570.1.bmp' width = '100%;'></div></div>","null","neg","CS","CS","4","category4/CS8.png","","","","",""
"","html-keyboard-response","49","198016","0.0-6.0-4.0-0.1","9lu5hgyd1p","one_one","1","direct_first","1","he06ig03","1","25","1","1","3","1","","0","1","0","null","","","<div class = 'row'><div class = 'column'><img src = 'uspos/2150.bmp' width = '100%;'></div><div class = 'column'><img src = 'category1/CS4.png' width = '70%;'></div></div>","null","pos","CS","CS","1","category1/CS4.png","","","","",""
"","html-keyboard-response","50","200518","0.0-6.0-4.0-0.2","9lu5hgyd1p","one_one","1","direct_first","1","he06ig03","1","25","1","1","3","1","","0","1","0","null","","","<div class = 'row'><div class = 'column'><img src = 'category2/CS5.png' width = '70%;'></div><div class = 'column'><img src = 'usneg/2205.bmp' width = '100%;'></div></div>","null","neg","CS","CS","2","category2/CS5.png","","","","",""
"","html-keyboard-response","51","203022","0.0-6.0-4.0-0.3","9lu5hgyd1p","one_one","1","direct_first","1","he06ig03","1","25","1","1","3","1","","0","1","0","null","","","<div class = 'row'><div class = 'column'><img src = 'category4/CS8.png' width = '70%;'></div><div class = 'column'><img src = 'usneg/6570.1.bmp' width = '100%;'></div></div>","null","neg","CS","CS","4","category4/CS8.png","","","","",""
"","html-keyboard-response","52","205524","0.0-6.0-4.0-0.4","9lu5hgyd1p","one_one","1","direct_first","1","he06ig03","1","25","1","1","3","1","","0","1","0","null","","","<div class = 'row'><div class = 'column'><img src = 'category3/CS8.png' width = '70%;'></div><div class = 'column'><img src = 'uspos/8190.bmp' width = '100%;'></div></div>","null","pos","CS","CS","3","category3/CS8.png","","","","",""
"","html-keyboard-response","53","208028","0.0-6.0-4.0-0.5","9lu5hgyd1p","one_one","1","direct_first","1","he06ig03","1","25","1","1","3","1","","0","1","0","null","","","<div class = 'row'><div class = 'column'><img src = 'usneg/2205.bmp' width = '100%;'></div><div class = 'column'><img src = 'category2/CS5.png' width = '70%;'></div></div>","null","neg","CS","CS","2","category2/CS5.png","","","","",""
"","html-keyboard-response","54","210532","0.0-6.0-4.0-0.6","9lu5hgyd1p","one_one","1","direct_first","1","he06ig03","1","25","1","1","3","1","","0","1","0","null","","","<div class = 'row'><div class = 'column'><img src = 'category3/CS8.png' width = '70%;'></div><div class = 'column'><img src = 'uspos/8190.bmp' width = '100%;'></div></div>","null","pos","CS","CS","3","category3/CS8.png","","","","",""
"","html-keyboard-response","55","213035","0.0-6.0-4.0-0.7","9lu5hgyd1p","one_one","1","direct_first","1","he06ig03","1","25","1","1","3","1","","0","1","0","null","","","<div class = 'row'><div class = 'column'><img src = 'uspos/2150.bmp' width = '100%;'></div><div class = 'column'><img src = 'category1/CS4.png' width = '70%;'></div></div>","null","pos","CS","CS","1","category1/CS4.png","","","","",""
"","html-keyboard-response","56","215538","0.0-6.0-4.0-0.8","9lu5hgyd1p","one_one","1","direct_first","1","he06ig03","1","25","1","1","3","1","","0","1","0","null","","","<div class = 'row'><div class = 'column'><img src = 'category3/CS8.png' width = '70%;'></div><div class = 'column'><img src = 'uspos/8190.bmp' width = '100%;'></div></div>","null","pos","CS","CS","3","category3/CS8.png","","","","",""
"","html-keyboard-response","57","218040","0.0-6.0-4.0-0.9","9lu5hgyd1p","one_one","1","direct_first","1","he06ig03","1","25","1","1","3","1","","0","1","0","null","","","<div class = 'row'><div class = 'column'><img src = 'usneg/2205.bmp' width = '100%;'></div><div class = 'column'><img src = 'category2/CS5.png' width = '70%;'></div></div>","null","neg","CS","CS","2","category2/CS5.png","","","","",""
"","html-keyboard-response","58","220543","0.0-6.0-4.0-0.10","9lu5hgyd1p","one_one","1","direct_first","1","he06ig03","1","25","1","1","3","1","","0","1","0","null","","","<div class = 'row'><div class = 'column'><img src = 'uspos/2150.bmp' width = '100%;'></div><div class = 'column'><img src = 'category1/CS4.png' width = '70%;'></div></div>","null","pos","CS","CS","1","category1/CS4.png","","","","",""
"","html-keyboard-response","59","223046","0.0-6.0-4.0-0.11","9lu5hgyd1p","one_one","1","direct_first","1","he06ig03","1","25","1","1","3","1","","0","1","0","null","","","<div class = 'row'><div class = 'column'><img src = 'category4/CS8.png' width = '70%;'></div><div class = 'column'><img src = 'usneg/6570.1.bmp' width = '100%;'></div></div>","null","neg","CS","CS","4","category4/CS8.png","","","","",""
"","html-keyboard-response","60","225550","0.0-6.0-4.0-0.12","9lu5hgyd1p","one_one","1","direct_first","1","he06ig03","1","25","1","1","3","1","","0","1","0","null","","","<div class = 'row'><div class = 'column'><img src = 'category1/CS4.png' width = '70%;'></div><div class = 'column'><img src = 'uspos/2150.bmp' width = '100%;'></div></div>","null","pos","CS","CS","1","category1/CS4.png","","","","",""
"","html-keyboard-response","61","228052","0.0-6.0-4.0-0.13","9lu5hgyd1p","one_one","1","direct_first","1","he06ig03","1","25","1","1","3","1","","0","1","0","null","","","<div class = 'row'><div class = 'column'><img src = 'category2/CS5.png' width = '70%;'></div><div class = 'column'><img src = 'usneg/2205.bmp' width = '100%;'></div></div>","null","neg","CS","CS","2","category2/CS5.png","","","","",""
"","html-keyboard-response","62","230554","0.0-6.0-4.0-0.14","9lu5hgyd1p","one_one","1","direct_first","1","he06ig03","1","25","1","1","3","1","","0","1","0","null","","","<div class = 'row'><div class = 'column'><img src = 'category1/CS4.png' width = '70%;'></div><div class = 'column'><img src = 'uspos/2150.bmp' width = '100%;'></div></div>","null","pos","CS","CS","1","category1/CS4.png","","","","",""
"","html-keyboard-response","63","233056","0.0-6.0-4.0-0.15","9lu5hgyd1p","one_one","1","direct_first","1","he06ig03","1","25","1","1","3","1","","0","1","0","null","","","<div class = 'row'><div class = 'column'><img src = 'category3/CS8.png' width = '70%;'></div><div class = 'column'><img src = 'uspos/8190.bmp' width = '100%;'></div></div>","null","pos","CS","CS","3","category3/CS8.png","","","","",""
"","html-keyboard-response","64","235559","0.0-6.0-4.0-0.16","9lu5hgyd1p","one_one","1","direct_first","1","he06ig03","1","25","1","1","3","1","","0","1","0","null","","","<div class = 'row'><div class = 'column'><img src = 'usneg/6570.1.bmp' width = '100%;'></div><div class = 'column'><img src = 'category4/CS8.png' width = '70%;'></div></div>","null","neg","CS","CS","4","category4/CS8.png","","","","",""
"","html-keyboard-response","65","238061","0.0-6.0-4.0-0.17","9lu5hgyd1p","one_one","1","direct_first","1","he06ig03","1","25","1","1","3","1","","0","1","0","null","","","<div class = 'row'><div class = 'column'><img src = 'category2/CS5.png' width = '70%;'></div><div class = 'column'><img src = 'usneg/2205.bmp' width = '100%;'></div></div>","null","neg","CS","CS","2","category2/CS5.png","","","","",""
"","html-keyboard-response","66","240563","0.0-6.0-4.0-0.18","9lu5hgyd1p","one_one","1","direct_first","1","he06ig03","1","25","1","1","3","1","","0","1","0","null","","","<div class = 'row'><div class = 'column'><img src = 'category3/CS8.png' width = '70%;'></div><div class = 'column'><img src = 'uspos/8190.bmp' width = '100%;'></div></div>","null","pos","CS","CS","3","category3/CS8.png","","","","",""
"","html-keyboard-response","67","243066","0.0-6.0-4.0-0.19","9lu5hgyd1p","one_one","1","direct_first","1","he06ig03","1","25","1","1","3","1","","0","1","0","null","","","<div class = 'row'><div class = 'column'><img src = 'category4/CS8.png' width = '70%;'></div><div class = 'column'><img src = 'usneg/6570.1.bmp' width = '100%;'></div></div>","null","neg","CS","CS","4","category4/CS8.png","","","","",""
"","survey-html-form","68","247157","0.0-6.0-5.0","9lu5hgyd1p","one_one","1","direct_first","1","he06ig03","1","25","1","1","3","1","","0","1","0","3589","","{}","","","","","","","","","","","",""
"","html-keyboard-response","69","251162","0.0-6.0-6.0-0.0","9lu5hgyd1p","one_one","1","direct_first","1","he06ig03","1","25","1","1","3","1","","0","1","0","null","","","<div class = 'row'><div class = 'column'><img src = 'uspos/8190.bmp' width = '100%;'></div><div class = 'column'><img src = 'category3/CS8.png' width = '70%;'></div></div>","null","pos","CS","CS","3","category3/CS8.png","","","","",""
"","html-keyboard-response","70","253664","0.0-6.0-6.0-0.1","9lu5hgyd1p","one_one","1","direct_first","1","he06ig03","1","25","1","1","3","1","","0","1","0","null","","","<div class = 'row'><div class = 'column'><img src = 'usneg/6570.1.bmp' width = '100%;'></div><div class = 'column'><img src = 'category4/CS8.png' width = '70%;'></div></div>","null","neg","CS","CS","4","category4/CS8.png","","","","",""
"","html-keyboard-response","71","256166","0.0-6.0-6.0-0.2","9lu5hgyd1p","one_one","1","direct_first","1","he06ig03","1","25","1","1","3","1","","0","1","0","null","","","<div class = 'row'><div class = 'column'><img src = 'category3/CS8.png' width = '70%;'></div><div class = 'column'><img src = 'uspos/8190.bmp' width = '100%;'></div></div>","null","pos","CS","CS","3","category3/CS8.png","","","","",""
"","html-keyboard-response","72","258670","0.0-6.0-6.0-0.3","9lu5hgyd1p","one_one","1","direct_first","1","he06ig03","1","25","1","1","3","1","","0","1","0","null","","","<div class = 'row'><div class = 'column'><img src = 'usneg/6570.1.bmp' width = '100%;'></div><div class = 'column'><img src = 'category4/CS8.png' width = '70%;'></div></div>","null","neg","CS","CS","4","category4/CS8.png","","","","",""
"","html-keyboard-response","73","261171","0.0-6.0-6.0-0.4","9lu5hgyd1p","one_one","1","direct_first","1","he06ig03","1","25","1","1","3","1","","0","1","0","null","","","<div class = 'row'><div class = 'column'><img src = 'category1/CS4.png' width = '70%;'></div><div class = 'column'><img src = 'uspos/2150.bmp' width = '100%;'></div></div>","null","pos","CS","CS","1","category1/CS4.png","","","","",""
"","html-keyboard-response","74","263675","0.0-6.0-6.0-0.5","9lu5hgyd1p","one_one","1","direct_first","1","he06ig03","1","25","1","1","3","1","","0","1","0","null","","","<div class = 'row'><div class = 'column'><img src = 'category2/CS5.png' width = '70%;'></div><div class = 'column'><img src = 'usneg/2205.bmp' width = '100%;'></div></div>","null","neg","CS","CS","2","category2/CS5.png","","","","",""
"","html-keyboard-response","75","266178","0.0-6.0-6.0-0.6","9lu5hgyd1p","one_one","1","direct_first","1","he06ig03","1","25","1","1","3","1","","0","1","0","null","","","<div class = 'row'><div class = 'column'><img src = 'category3/CS8.png' width = '70%;'></div><div class = 'column'><img src = 'uspos/8190.bmp' width = '100%;'></div></div>","null","pos","CS","CS","3","category3/CS8.png","","","","",""
"","html-keyboard-response","76","268682","0.0-6.0-6.0-0.7","9lu5hgyd1p","one_one","1","direct_first","1","he06ig03","1","25","1","1","3","1","","0","1","0","null","","","<div class = 'row'><div class = 'column'><img src = 'uspos/2150.bmp' width = '100%;'></div><div class = 'column'><img src = 'category1/CS4.png' width = '70%;'></div></div>","null","pos","CS","CS","1","category1/CS4.png","","","","",""
"","html-keyboard-response","77","271184","0.0-6.0-6.0-0.8","9lu5hgyd1p","one_one","1","direct_first","1","he06ig03","1","25","1","1","3","1","","0","1","0","null","","","<div class = 'row'><div class = 'column'><img src = 'category2/CS5.png' width = '70%;'></div><div class = 'column'><img src = 'usneg/2205.bmp' width = '100%;'></div></div>","null","neg","CS","CS","2","category2/CS5.png","","","","",""
"","html-keyboard-response","78","273685","0.0-6.0-6.0-0.9","9lu5hgyd1p","one_one","1","direct_first","1","he06ig03","1","25","1","1","3","1","","0","1","0","null","","","<div class = 'row'><div class = 'column'><img src = 'category1/CS4.png' width = '70%;'></div><div class = 'column'><img src = 'uspos/2150.bmp' width = '100%;'></div></div>","null","pos","CS","CS","1","category1/CS4.png","","","","",""
"","html-keyboard-response","79","276187","0.0-6.0-6.0-0.10","9lu5hgyd1p","one_one","1","direct_first","1","he06ig03","1","25","1","1","3","1","","0","1","0","null","","","<div class = 'row'><div class = 'column'><img src = 'category3/CS8.png' width = '70%;'></div><div class = 'column'><img src = 'uspos/8190.bmp' width = '100%;'></div></div>","null","pos","CS","CS","3","category3/CS8.png","","","","",""
"","html-keyboard-response","80","278689","0.0-6.0-6.0-0.11","9lu5hgyd1p","one_one","1","direct_first","1","he06ig03","1","25","1","1","3","1","","0","1","0","null","","","<div class = 'row'><div class = 'column'><img src = 'usneg/2205.bmp' width = '100%;'></div><div class = 'column'><img src = 'category2/CS5.png' width = '70%;'></div></div>","null","neg","CS","CS","2","category2/CS5.png","","","","",""
"","html-keyboard-response","81","281193","0.0-6.0-6.0-0.12","9lu5hgyd1p","one_one","1","direct_first","1","he06ig03","1","25","1","1","3","1","","0","1","0","null","","","<div class = 'row'><div class = 'column'><img src = 'usneg/6570.1.bmp' width = '100%;'></div><div class = 'column'><img src = 'category4/CS8.png' width = '70%;'></div></div>","null","neg","CS","CS","4","category4/CS8.png","","","","",""
"","html-keyboard-response","82","283696","0.0-6.0-6.0-0.13","9lu5hgyd1p","one_one","1","direct_first","1","he06ig03","1","25","1","1","3","1","","0","1","0","null","","","<div class = 'row'><div class = 'column'><img src = 'category1/CS4.png' width = '70%;'></div><div class = 'column'><img src = 'uspos/2150.bmp' width = '100%;'></div></div>","null","pos","CS","CS","1","category1/CS4.png","","","","",""
"","html-keyboard-response","83","286199","0.0-6.0-6.0-0.14","9lu5hgyd1p","one_one","1","direct_first","1","he06ig03","1","25","1","1","3","1","","0","1","0","null","","","<div class = 'row'><div class = 'column'><img src = 'category4/CS8.png' width = '70%;'></div><div class = 'column'><img src = 'usneg/6570.1.bmp' width = '100%;'></div></div>","null","neg","CS","CS","4","category4/CS8.png","","","","",""
"","html-keyboard-response","84","288700","0.0-6.0-6.0-0.15","9lu5hgyd1p","one_one","1","direct_first","1","he06ig03","1","25","1","1","3","1","","0","1","0","null","","","<div class = 'row'><div class = 'column'><img src = 'usneg/2205.bmp' width = '100%;'></div><div class = 'column'><img src = 'category2/CS5.png' width = '70%;'></div></div>","null","neg","CS","CS","2","category2/CS5.png","","","","",""
"","html-keyboard-response","85","291202","0.0-6.0-6.0-0.16","9lu5hgyd1p","one_one","1","direct_first","1","he06ig03","1","25","1","1","3","1","","0","1","0","null","","","<div class = 'row'><div class = 'column'><img src = 'category3/CS8.png' width = '70%;'></div><div class = 'column'><img src = 'uspos/8190.bmp' width = '100%;'></div></div>","null","pos","CS","CS","3","category3/CS8.png","","","","",""
"","html-keyboard-response","86","293704","0.0-6.0-6.0-0.17","9lu5hgyd1p","one_one","1","direct_first","1","he06ig03","1","25","1","1","3","1","","0","1","0","null","","","<div class = 'row'><div class = 'column'><img src = 'category1/CS4.png' width = '70%;'></div><div class = 'column'><img src = 'uspos/2150.bmp' width = '100%;'></div></div>","null","pos","CS","CS","1","category1/CS4.png","","","","",""
"","html-keyboard-response","87","296207","0.0-6.0-6.0-0.18","9lu5hgyd1p","one_one","1","direct_first","1","he06ig03","1","25","1","1","3","1","","0","1","0","null","","","<div class = 'row'><div class = 'column'><img src = 'usneg/6570.1.bmp' width = '100%;'></div><div class = 'column'><img src = 'category4/CS8.png' width = '70%;'></div></div>","null","neg","CS","CS","4","category4/CS8.png","","","","",""
"","html-keyboard-response","88","298709","0.0-6.0-6.0-0.19","9lu5hgyd1p","one_one","1","direct_first","1","he06ig03","1","25","1","1","3","1","","0","1","0","null","","","<div class = 'row'><div class = 'column'><img src = 'usneg/2205.bmp' width = '100%;'></div><div class = 'column'><img src = 'category2/CS5.png' width = '70%;'></div></div>","null","neg","CS","CS","2","category2/CS5.png","","","","",""
"","survey-html-form","89","306419","0.0-7.0","9lu5hgyd1p","one_one","1","direct_first","1","he06ig03","1","25","1","1","3","1","","0","1","0","7210","","{}","","","","","","","","","","","",""
"","image-slider-response","90","318714","0.0-8.0-0.0","9lu5hgyd1p","one_one","1","direct_first","1","he06ig03","1","25","1","1","3","1","","0","1","0","10284","","","","","neg","GS","GSnew","2","category2/GS2.png","-30","targets/12.png","direct","",""
"","image-slider-response","91","321992","0.0-8.0-0.1","9lu5hgyd1p","one_one","1","direct_first","1","he06ig03","1","25","1","1","3","1","","0","1","0","3276","","","","","neg","GS","abstract","4","category4/lin.png","30","targets/26.png","direct","",""
"","image-slider-response","92","325805","0.0-8.0-0.2","9lu5hgyd1p","one_one","1","direct_first","1","he06ig03","1","25","1","1","3","1","","0","1","0","3811","","","","","neg","GS","GSnew","4","category4/GS2.png","41","targets/17.png","direct","",""
"","image-slider-response","93","329504","0.0-8.0-0.3","9lu5hgyd1p","one_one","1","direct_first","1","he06ig03","1","25","1","1","3","1","","0","1","0","3696","","","","","pos","GS","GSold","3","category3/CS2.png","49","targets/27.png","direct","",""
"","image-slider-response","94","335271","0.0-8.0-0.4","9lu5hgyd1p","one_one","1","direct_first","1","he06ig03","1","25","1","1","3","1","","0","1","0","5765","","","","","neg","GS","GSnew","4","category4/GS1.png","-52","targets/37.png","direct","",""
"","image-slider-response","95","339748","0.0-8.0-0.5","9lu5hgyd1p","one_one","1","direct_first","1","he06ig03","1","25","1","1","3","1","","0","1","0","4474","","","","","neg","CS","CS","4","category4/CS8.png","19","targets/47.png","direct","",""
"","image-slider-response","96","345283","0.0-8.0-0.6","9lu5hgyd1p","one_one","1","direct_first","1","he06ig03","1","25","1","1","3","1","","0","1","0","5534","","","","","pos","GS","GSnew","1","category1/GS3.png","-23","targets/34.png","direct","",""
"","image-slider-response","97","348263","0.0-8.0-0.7","9lu5hgyd1p","one_one","1","direct_first","1","he06ig03","1","25","1","1","3","1","","0","1","0","2979","","","","","pos","GS","GSnew","3","category3/GS3.png","67","targets/35.png","direct","",""
"","image-slider-response","98","351781","0.0-8.0-0.8","9lu5hgyd1p","one_one","1","direct_first","1","he06ig03","1","25","1","1","3","1","","0","1","0","3515","","","","","neg","GS","GSnew","2","category2/GS1.png","-27","targets/23.png","direct","",""
"","image-slider-response","99","354535","0.0-8.0-0.9","9lu5hgyd1p","one_one","1","direct_first","1","he06ig03","1","25","1","1","3","1","","0","1","0","2751","","","","","neg","GS","GSold","4","category4/CS3.png","34","targets/43.png","direct","",""
"","image-slider-response","100","357800","0.0-8.0-0.10","9lu5hgyd1p","one_one","1","direct_first","1","he06ig03","1","25","1","1","3","1","","0","1","0","3263","","","","","pos","GS","GSnew","1","category1/GS2.png","-36","targets/44.png","direct","",""
"","image-slider-response","101","362049","0.0-8.0-0.11","9lu5hgyd1p","one_one","1","direct_first","1","he06ig03","1","25","1","1","3","1","","0","1","0","4248","","","","","neg","GS","abstract","2","category2/men.png","-34","targets/40.png","direct","",""
"","image-slider-response","102","366751","0.0-8.0-0.12","9lu5hgyd1p","one_one","1","direct_first","1","he06ig03","1","25","1","1","3","1","","0","1","0","4700","","","","","pos","CS","CS","1","category1/CS4.png","-20","targets/9.png","direct","",""
"","image-slider-response","103","369810","0.0-8.0-0.13","9lu5hgyd1p","one_one","1","direct_first","1","he06ig03","1","25","1","1","3","1","","0","1","0","3058","","","","","neg","GS","GSold","4","category4/CS9.png","49","targets/5.png","direct","",""
"","image-slider-response","104","372019","0.0-8.0-0.14","9lu5hgyd1p","one_one","1","direct_first","1","he06ig03","1","25","1","1","3","1","","0","1","0","2208","","","","","pos","GS","GSold","1","category1/CS2.png","43","targets/30.png","direct","",""
"","image-slider-response","105","375640","0.0-8.0-0.15","9lu5hgyd1p","one_one","1","direct_first","1","he06ig03","1","25","1","1","3","1","","0","1","0","3619","","","","","pos","GS","abstract","3","category3/wang.png","75","targets/16.png","direct","",""
"","image-slider-response","106","378425","0.0-8.0-0.16","9lu5hgyd1p","one_one","1","direct_first","1","he06ig03","1","25","1","1","3","1","","0","1","0","2782","","","","","neg","GS","GSold","2","category2/CS8.png","23","targets/33.png","direct","",""
"","image-slider-response","107","381849","0.0-8.0-0.17","9lu5hgyd1p","one_one","1","direct_first","1","he06ig03","1","25","1","1","3","1","","0","1","0","3422","","","","","neg","GS","GSold","4","category4/CS2.png","-20","targets/18.png","direct","",""
"","image-slider-response","108","384610","0.0-8.0-0.18","9lu5hgyd1p","one_one","1","direct_first","1","he06ig03","1","25","1","1","3","1","","0","1","0","2758","","","","","pos","GS","GSold","3","category3/CS7.png","21","targets/8.png","direct","",""
"","image-slider-response","109","387744","0.0-8.0-0.19","9lu5hgyd1p","one_one","1","direct_first","1","he06ig03","1","25","1","1","3","1","","0","1","0","3131","","","","","pos","CS","CS","3","category3/CS8.png","56","targets/10.png","direct","",""
"","image-slider-response","110","390504","0.0-8.0-0.20","9lu5hgyd1p","one_one","1","direct_first","1","he06ig03","1","25","1","1","3","1","","0","1","0","2757","","","","","neg","GS","GSold","2","category2/CS2.png","28","targets/36.png","direct","",""
"","image-slider-response","111","393884","0.0-8.0-0.21","9lu5hgyd1p","one_one","1","direct_first","1","he06ig03","1","25","1","1","3","1","","0","1","0","3377","","","","","pos","GS","GSold","1","category1/CS7.png","-38","targets/20.png","direct","",""
"","image-slider-response","112","396490","0.0-8.0-0.22","9lu5hgyd1p","one_one","1","direct_first","1","he06ig03","1","25","1","1","3","1","","0","1","0","2603","","","","","pos","GS","GSold","3","category3/CS3.png","35","targets/42.png","direct","",""
"","image-slider-response","113","398883","0.0-8.0-0.23","9lu5hgyd1p","one_one","1","direct_first","1","he06ig03","1","25","1","1","3","1","","0","1","0","2391","","","","","neg","GS","GSold","2","category2/CS1.png","54","targets/46.png","direct","",""
"","image-slider-response","114","401211","0.0-8.0-0.24","9lu5hgyd1p","one_one","1","direct_first","1","he06ig03","1","25","1","1","3","1","","0","1","0","2327","","","","","neg","GS","GSnew","4","category4/GS3.png","-38","targets/21.png","direct","",""
"","image-slider-response","115","405381","0.0-8.0-0.25","9lu5hgyd1p","one_one","1","direct_first","1","he06ig03","1","25","1","1","3","1","","0","1","0","4168","","","","","pos","GS","GSnew","1","category1/GS1.png","-52","targets/32.png","direct","",""
"","image-slider-response","116","408216","0.0-8.0-0.26","9lu5hgyd1p","one_one","1","direct_first","1","he06ig03","1","25","1","1","3","1","","0","1","0","2831","","","","","neg","CS","CS","2","category2/CS5.png","55","targets/28.png","direct","",""
"","image-slider-response","117","410768","0.0-8.0-0.27","9lu5hgyd1p","one_one","1","direct_first","1","he06ig03","1","25","1","1","3","1","","0","1","0","2551","","","","","pos","GS","GSold","1","category1/CS1.png","41","targets/29.png","direct","",""
"","image-slider-response","118","415636","0.0-8.0-0.28","9lu5hgyd1p","one_one","1","direct_first","1","he06ig03","1","25","1","1","3","1","","0","1","0","4866","","","","","pos","GS","GSnew","3","category3/GS1.png","36","targets/15.png","direct","",""
"","image-slider-response","119","419529","0.0-8.0-0.29","9lu5hgyd1p","one_one","1","direct_first","1","he06ig03","1","25","1","1","3","1","","0","1","0","3892","","","","","pos","GS","abstract","1","category1/ma.png","-59","targets/38.png","direct","",""
"","image-slider-response","120","423549","0.0-8.0-0.30","9lu5hgyd1p","one_one","1","direct_first","1","he06ig03","1","25","1","1","3","1","","0","1","0","4017","","","","","pos","GS","GSnew","3","category3/GS2.png","52","targets/41.png","direct","",""
"","image-slider-response","121","426287","0.0-8.0-0.31","9lu5hgyd1p","one_one","1","direct_first","1","he06ig03","1","25","1","1","3","1","","0","1","0","2737","","","","","neg","GS","GSnew","2","category2/GS3.png","-54","targets/13.png","direct","",""
"","html-keyboard-response","122","441485","0.0-9.0","9lu5hgyd1p","one_one","1","direct_first","1","he06ig03","1","25","1","1","3","1","","0","1","0","15196","","","<p>Sie sehen nun die chinesischen Zeichen nur ganz kurz. Danach sehen Sie die jeweilige Aussprache der Zeichen als Silbe auf dem Bildschrim. Ihre Aufgabe ist es, für jede Silbe anzugeben, ob diese etwas angenehmes, oder unangenehmes bedeuten könnte. Verlassen Sie sich hier vor allem auf Ihre Intuition.<br><br>Die Zeichen werden nur zur Orientierung dargestellt, beachten Sie sie deshalb nicht. Konzentrieren Sie sich vor allem auf die Silben. <br>Reagieren Sie mit folgenden zwei Tasten: <br><br><b>'D' </b> wenn die Silbe etwas <b>unangenehmes</b> bedeuten könnte. <br><b>'K'</b> wenn die Silbe etwas <b>angenehmes</b> bedeuten könnte. <br><br>Bitte legen Sie nun den Zeigefinger der linken Hand auf die Taste 'D' und den Zeigefinger der rechten Hand auf die Taste 'K'. <br>Reagieren Sie auf jede Silbe so schnell wie möglich. Uns interessiert Ihre spontane Reaktion. <br> <br> <br>Drücken Sie 'D' oder 'K', um die nächste Aufgabe zu starten. </p>","75","","","","","","","","","",""
"","html-keyboard-response","123","444488","0.0-10.0-0.0","9lu5hgyd1p","one_one","1","direct_first","1","he06ig03","1","25","1","1","3","1","","0","1","0","null","","","<div style=""font-size:60px;"">+</div>","null","","","","","","","","","",""
"","html-keyboard-response","124","444583","0.0-10.0-1.0","9lu5hgyd1p","one_one","1","direct_first","1","he06ig03","1","25","1","1","3","1","","0","1","0","null","","","<img src = 'category2/CS1.png' width = '100%;'>","null","","","","","","","","","",""
"","html-keyboard-response","125","444837","0.0-10.0-2.0","9lu5hgyd1p","one_one","1","direct_first","1","he06ig03","1","25","1","1","3","1","","0","1","0","null","","","<img src = 'targets/46.png' width = '100%;'>","null","","","","","","","","","",""
"","html-keyboard-response","126","448270","0.0-10.0-3.0","9lu5hgyd1p","one_one","1","direct_first","1","he06ig03","1","25","1","1","3","1","","0","1","0","3429","","","<img src = 'targets/mask.png' width = '100%;'>","68","neg","GS","GSold","2","category2/CS1.png","","targets/46.png","indirect","0","0"
"","html-keyboard-response","127","449774","0.0-10.0-0.1","9lu5hgyd1p","one_one","1","direct_first","1","he06ig03","1","25","1","1","3","1","","0","1","0","null","","","<div style=""font-size:60px;"">+</div>","null","","","","","","","","","",""
"","html-keyboard-response","128","449865","0.0-10.0-1.1","9lu5hgyd1p","one_one","1","direct_first","1","he06ig03","1","25","1","1","3","1","","0","1","0","null","","","<img src = 'category3/CS7.png' width = '100%;'>","null","","","","","","","","","",""
"","html-keyboard-response","129","450119","0.0-10.0-2.1","9lu5hgyd1p","one_one","1","direct_first","1","he06ig03","1","25","1","1","3","1","","0","1","0","null","","","<img src = 'targets/8.png' width = '100%;'>","null","","","","","","","","","",""
"","html-keyboard-response","130","451562","0.0-10.0-3.1","9lu5hgyd1p","one_one","1","direct_first","1","he06ig03","1","25","1","1","3","1","","0","1","0","1441","","","<img src = 'targets/mask.png' width = '100%;'>","75","pos","GS","GSold","3","category3/CS7.png","","targets/8.png","indirect","1","1"
"","html-keyboard-response","131","453063","0.0-10.0-0.2","9lu5hgyd1p","one_one","1","direct_first","1","he06ig03","1","25","1","1","3","1","","0","1","0","null","","","<div style=""font-size:60px;"">+</div>","null","","","","","","","","","",""
"","html-keyboard-response","132","453157","0.0-10.0-1.2","9lu5hgyd1p","one_one","1","direct_first","1","he06ig03","1","25","1","1","3","1","","0","1","0","null","","","<img src = 'category3/CS2.png' width = '100%;'>","null","","","","","","","","","",""
"","html-keyboard-response","133","453411","0.0-10.0-2.2","9lu5hgyd1p","one_one","1","direct_first","1","he06ig03","1","25","1","1","3","1","","0","1","0","null","","","<img src = 'targets/27.png' width = '100%;'>","null","","","","","","","","","",""
"","html-keyboard-response","134","454212","0.0-10.0-3.2","9lu5hgyd1p","one_one","1","direct_first","1","he06ig03","1","25","1","1","3","1","","0","1","0","799","","","<img src = 'targets/mask.png' width = '100%;'>","75","pos","GS","GSold","3","category3/CS2.png","","targets/27.png","indirect","1","2"
"","html-keyboard-response","135","455715","0.0-10.0-0.3","9lu5hgyd1p","one_one","1","direct_first","1","he06ig03","1","25","1","1","3","1","","0","1","0","null","","","<div style=""font-size:60px;"">+</div>","null","","","","","","","","","",""
"","html-keyboard-response","136","455807","0.0-10.0-1.3","9lu5hgyd1p","one_one","1","direct_first","1","he06ig03","1","25","1","1","3","1","","0","1","0","null","","","<img src = 'category2/CS2.png' width = '100%;'>","null","","","","","","","","","",""
"","html-keyboard-response","137","456059","0.0-10.0-2.3","9lu5hgyd1p","one_one","1","direct_first","1","he06ig03","1","25","1","1","3","1","","0","1","0","null","","","<img src = 'targets/36.png' width = '100%;'>","null","","","","","","","","","",""
"","html-keyboard-response","138","457045","0.0-10.0-3.3","9lu5hgyd1p","one_one","1","direct_first","1","he06ig03","1","25","1","1","3","1","","0","1","0","984","","","<img src = 'targets/mask.png' width = '100%;'>","75","neg","GS","GSold","2","category2/CS2.png","","targets/36.png","indirect","1","3"
"","html-keyboard-response","139","458548","0.0-10.0-0.4","9lu5hgyd1p","one_one","1","direct_first","1","he06ig03","1","25","1","1","3","1","","0","1","0","null","","","<div style=""font-size:60px;"">+</div>","null","","","","","","","","","",""
"","html-keyboard-response","140","458639","0.0-10.0-1.4","9lu5hgyd1p","one_one","1","direct_first","1","he06ig03","1","25","1","1","3","1","","0","1","0","null","","","<img src = 'category4/CS2.png' width = '100%;'>","null","","","","","","","","","",""
"","html-keyboard-response","141","458892","0.0-10.0-2.4","9lu5hgyd1p","one_one","1","direct_first","1","he06ig03","1","25","1","1","3","1","","0","1","0","null","","","<img src = 'targets/18.png' width = '100%;'>","null","","","","","","","","","",""
"","html-keyboard-response","142","459583","0.0-10.0-3.4","9lu5hgyd1p","one_one","1","direct_first","1","he06ig03","1","25","1","1","3","1","","0","1","0","689","","","<img src = 'targets/mask.png' width = '100%;'>","75","neg","GS","GSold","4","category4/CS2.png","","targets/18.png","indirect","1","4"
"","html-keyboard-response","143","461086","0.0-10.0-0.5","9lu5hgyd1p","one_one","1","direct_first","1","he06ig03","1","25","1","1","3","1","","0","1","0","null","","","<div style=""font-size:60px;"">+</div>","null","","","","","","","","","",""
"","html-keyboard-response","144","461180","0.0-10.0-1.5","9lu5hgyd1p","one_one","1","direct_first","1","he06ig03","1","25","1","1","3","1","","0","1","0","null","","","<img src = 'category3/CS3.png' width = '100%;'>","null","","","","","","","","","",""
"","html-keyboard-response","145","461432","0.0-10.0-2.5","9lu5hgyd1p","one_one","1","direct_first","1","he06ig03","1","25","1","1","3","1","","0","1","0","null","","","<img src = 'targets/42.png' width = '100%;'>","null","","","","","","","","","",""
"","html-keyboard-response","146","462031","0.0-10.0-3.5","9lu5hgyd1p","one_one","1","direct_first","1","he06ig03","1","25","1","1","3","1","","0","1","0","596","","","<img src = 'targets/mask.png' width = '100%;'>","75","pos","GS","GSold","3","category3/CS3.png","","targets/42.png","indirect","1","5"
"","html-keyboard-response","147","463533","0.0-10.0-0.6","9lu5hgyd1p","one_one","1","direct_first","1","he06ig03","1","25","1","1","3","1","","0","1","0","null","","","<div style=""font-size:60px;"">+</div>","null","","","","","","","","","",""
"","html-keyboard-response","148","463627","0.0-10.0-1.6","9lu5hgyd1p","one_one","1","direct_first","1","he06ig03","1","25","1","1","3","1","","0","1","0","null","","","<img src = 'category4/CS3.png' width = '100%;'>","null","","","","","","","","","",""
"","html-keyboard-response","149","463880","0.0-10.0-2.6","9lu5hgyd1p","one_one","1","direct_first","1","he06ig03","1","25","1","1","3","1","","0","1","0","null","","","<img src = 'targets/43.png' width = '100%;'>","null","","","","","","","","","",""
"","html-keyboard-response","150","464512","0.0-10.0-3.6","9lu5hgyd1p","one_one","1","direct_first","1","he06ig03","1","25","1","1","3","1","","0","1","0","632","","","<img src = 'targets/mask.png' width = '100%;'>","68","neg","GS","GSold","4","category4/CS3.png","","targets/43.png","indirect","0","6"
"","html-keyboard-response","151","466014","0.0-10.0-0.7","9lu5hgyd1p","one_one","1","direct_first","1","he06ig03","1","25","1","1","3","1","","0","1","0","null","","","<div style=""font-size:60px;"">+</div>","null","","","","","","","","","",""
"","html-keyboard-response","152","466106","0.0-10.0-1.7","9lu5hgyd1p","one_one","1","direct_first","1","he06ig03","1","25","1","1","3","1","","0","1","0","null","","","<img src = 'category1/CS2.png' width = '100%;'>","null","","","","","","","","","",""
"","html-keyboard-response","153","466357","0.0-10.0-2.7","9lu5hgyd1p","one_one","1","direct_first","1","he06ig03","1","25","1","1","3","1","","0","1","0","null","","","<img src = 'targets/30.png' width = '100%;'>","null","","","","","","","","","",""
"","html-keyboard-response","154","467615","0.0-10.0-3.7","9lu5hgyd1p","one_one","1","direct_first","1","he06ig03","1","25","1","1","3","1","","0","1","0","1255","","","<img src = 'targets/mask.png' width = '100%;'>","75","pos","GS","GSold","1","category1/CS2.png","","targets/30.png","indirect","1","7"
"","html-keyboard-response","155","469118","0.0-10.0-0.8","9lu5hgyd1p","one_one","1","direct_first","1","he06ig03","1","25","1","1","3","1","","0","1","0","null","","","<div style=""font-size:60px;"">+</div>","null","","","","","","","","","",""
"","html-keyboard-response","156","469209","0.0-10.0-1.8","9lu5hgyd1p","one_one","1","direct_first","1","he06ig03","1","25","1","1","3","1","","0","1","0","null","","","<img src = 'category3/CS8.png' width = '100%;'>","null","","","","","","","","","",""
"","html-keyboard-response","157","469461","0.0-10.0-2.8","9lu5hgyd1p","one_one","1","direct_first","1","he06ig03","1","25","1","1","3","1","","0","1","0","null","","","<img src = 'targets/10.png' width = '100%;'>","null","","","","","","","","","",""
"","html-keyboard-response","158","470021","0.0-10.0-3.8","9lu5hgyd1p","one_one","1","direct_first","1","he06ig03","1","25","1","1","3","1","","0","1","0","559","","","<img src = 'targets/mask.png' width = '100%;'>","75","pos","CS","CS","3","category3/CS8.png","","targets/10.png","indirect","1","8"
"","html-keyboard-response","159","471523","0.0-10.0-0.9","9lu5hgyd1p","one_one","1","direct_first","1","he06ig03","1","25","1","1","3","1","","0","1","0","null","","","<div style=""font-size:60px;"">+</div>","null","","","","","","","","","",""
"","html-keyboard-response","160","471615","0.0-10.0-1.9","9lu5hgyd1p","one_one","1","direct_first","1","he06ig03","1","25","1","1","3","1","","0","1","0","null","","","<img src = 'category4/CS9.png' width = '100%;'>","null","","","","","","","","","",""
"","html-keyboard-response","161","471868","0.0-10.0-2.9","9lu5hgyd1p","one_one","1","direct_first","1","he06ig03","1","25","1","1","3","1","","0","1","0","null","","","<img src = 'targets/5.png' width = '100%;'>","null","","","","","","","","","",""
"","html-keyboard-response","162","472867","0.0-10.0-3.9","9lu5hgyd1p","one_one","1","direct_first","1","he06ig03","1","25","1","1","3","1","","0","1","0","997","","","<img src = 'targets/mask.png' width = '100%;'>","75","neg","GS","GSold","4","category4/CS9.png","","targets/5.png","indirect","1","9"
"","html-keyboard-response","163","474370","0.0-10.0-0.10","9lu5hgyd1p","one_one","1","direct_first","1","he06ig03","1","25","1","1","3","1","","0","1","0","null","","","<div style=""font-size:60px;"">+</div>","null","","","","","","","","","",""
"","html-keyboard-response","164","474463","0.0-10.0-1.10","9lu5hgyd1p","one_one","1","direct_first","1","he06ig03","1","25","1","1","3","1","","0","1","0","null","","","<img src = 'category2/CS8.png' width = '100%;'>","null","","","","","","","","","",""
"","html-keyboard-response","165","474714","0.0-10.0-2.10","9lu5hgyd1p","one_one","1","direct_first","1","he06ig03","1","25","1","1","3","1","","0","1","0","null","","","<img src = 'targets/33.png' width = '100%;'>","null","","","","","","","","","",""
"","html-keyboard-response","166","475527","0.0-10.0-3.10","9lu5hgyd1p","one_one","1","direct_first","1","he06ig03","1","25","1","1","3","1","","0","1","0","810","","","<img src = 'targets/mask.png' width = '100%;'>","68","neg","GS","GSold","2","category2/CS8.png","","targets/33.png","indirect","0","10"
"","html-keyboard-response","167","477028","0.0-10.0-0.11","9lu5hgyd1p","one_one","1","direct_first","1","he06ig03","1","25","1","1","3","1","","0","1","0","null","","","<div style=""font-size:60px;"">+</div>","null","","","","","","","","","",""
"","html-keyboard-response","168","477121","0.0-10.0-1.11","9lu5hgyd1p","one_one","1","direct_first","1","he06ig03","1","25","1","1","3","1","","0","1","0","null","","","<img src = 'category4/CS8.png' width = '100%;'>","null","","","","","","","","","",""
"","html-keyboard-response","169","477373","0.0-10.0-2.11","9lu5hgyd1p","one_one","1","direct_first","1","he06ig03","1","25","1","1","3","1","","0","1","0","null","","","<img src = 'targets/47.png' width = '100%;'>","null","","","","","","","","","",""
"","html-keyboard-response","170","477773","0.0-10.0-3.11","9lu5hgyd1p","one_one","1","direct_first","1","he06ig03","1","25","1","1","3","1","","0","1","0","399","","","<img src = 'targets/mask.png' width = '100%;'>","75","neg","CS","CS","4","category4/CS8.png","","targets/47.png","indirect","1","11"
"","html-keyboard-response","171","479275","0.0-10.0-0.12","9lu5hgyd1p","one_one","1","direct_first","1","he06ig03","1","25","1","1","3","1","","0","1","0","null","","","<div style=""font-size:60px;"">+</div>","null","","","","","","","","","",""
"","html-keyboard-response","172","479367","0.0-10.0-1.12","9lu5hgyd1p","one_one","1","direct_first","1","he06ig03","1","25","1","1","3","1","","0","1","0","null","","","<img src = 'category1/CS1.png' width = '100%;'>","null","","","","","","","","","",""
"","html-keyboard-response","173","479620","0.0-10.0-2.12","9lu5hgyd1p","one_one","1","direct_first","1","he06ig03","1","25","1","1","3","1","","0","1","0","null","","","<img src = 'targets/29.png' width = '100%;'>","null","","","","","","","","","",""
"","html-keyboard-response","174","479685","0.0-10.0-3.12","9lu5hgyd1p","one_one","1","direct_first","1","he06ig03","1","25","1","1","3","1","","0","1","0","63","","","<img src = 'targets/mask.png' width = '100%;'>","68","pos","GS","GSold","1","category1/CS1.png","","targets/29.png","indirect","0","12"
"","html-keyboard-response","175","481186","0.0-10.0-0.13","9lu5hgyd1p","one_one","1","direct_first","1","he06ig03","1","25","1","1","3","1","","0","1","0","null","","","<div style=""font-size:60px;"">+</div>","null","","","","","","","","","",""
"","html-keyboard-response","176","481279","0.0-10.0-1.13","9lu5hgyd1p","one_one","1","direct_first","1","he06ig03","1","25","1","1","3","1","","0","1","0","null","","","<img src = 'category1/CS7.png' width = '100%;'>","null","","","","","","","","","",""
"","html-keyboard-response","177","481532","0.0-10.0-2.13","9lu5hgyd1p","one_one","1","direct_first","1","he06ig03","1","25","1","1","3","1","","0","1","0","null","","","<img src = 'targets/20.png' width = '100%;'>","null","","","","","","","","","",""
"","html-keyboard-response","178","481961","0.0-10.0-3.13","9lu5hgyd1p","one_one","1","direct_first","1","he06ig03","1","25","1","1","3","1","","0","1","0","427","","","<img src = 'targets/mask.png' width = '100%;'>","75","pos","GS","GSold","1","category1/CS7.png","","targets/20.png","indirect","1","13"
"","html-keyboard-response","179","483463","0.0-10.0-0.14","9lu5hgyd1p","one_one","1","direct_first","1","he06ig03","1","25","1","1","3","1","","0","1","0","null","","","<div style=""font-size:60px;"">+</div>","null","","","","","","","","","",""
"","html-keyboard-response","180","483555","0.0-10.0-1.14","9lu5hgyd1p","one_one","1","direct_first","1","he06ig03","1","25","1","1","3","1","","0","1","0","null","","","<img src = 'category1/CS4.png' width = '100%;'>","null","","","","","","","","","",""
"","html-keyboard-response","181","483806","0.0-10.0-2.14","9lu5hgyd1p","one_one","1","direct_first","1","he06ig03","1","25","1","1","3","1","","0","1","0","null","","","<img src = 'targets/9.png' width = '100%;'>","null","","","","","","","","","",""
"","html-keyboard-response","182","488279","0.0-10.0-3.14","9lu5hgyd1p","one_one","1","direct_first","1","he06ig03","1","25","1","1","3","1","","0","1","0","4472","","","<img src = 'targets/mask.png' width = '100%;'>","75","pos","CS","CS","1","category1/CS4.png","","targets/9.png","indirect","1","14"
"","html-keyboard-response","183","489780","0.0-10.0-0.15","9lu5hgyd1p","one_one","1","direct_first","1","he06ig03","1","25","1","1","3","1","","0","1","0","null","","","<div style=""font-size:60px;"">+</div>","null","","","","","","","","","",""
"","html-keyboard-response","184","489873","0.0-10.0-1.15","9lu5hgyd1p","one_one","1","direct_first","1","he06ig03","1","25","1","1","3","1","","0","1","0","null","","","<img src = 'category2/CS5.png' width = '100%;'>","null","","","","","","","","","",""
"","html-keyboard-response","185","490126","0.0-10.0-2.15","9lu5hgyd1p","one_one","1","direct_first","1","he06ig03","1","25","1","1","3","1","","0","1","0","null","","","<img src = 'targets/28.png' width = '100%;'>","null","","","","","","","","","",""
"","html-keyboard-response","186","490636","0.0-10.0-3.15","9lu5hgyd1p","one_one","1","direct_first","1","he06ig03","1","25","1","1","3","1","","0","1","0","508","","","<img src = 'targets/mask.png' width = '100%;'>","75","neg","CS","CS","2","category2/CS5.png","","targets/28.png","indirect","1","15"
"","survey-html-form","187","495174","0.0-11.0","9lu5hgyd1p","one_one","1","direct_first","1","he06ig03","1","25","1","1","3","1","","0","1","0","4034","","{}","","","","","","","","","","","",""
"","html-keyboard-response","188","498176","0.0-12.0-0.0","9lu5hgyd1p","one_one","1","direct_first","1","he06ig03","1","25","1","1","3","1","","0","1","0","null","","","<div style=""font-size:60px;"">+</div>","null","","","","","","","","","",""
"","html-keyboard-response","189","498268","0.0-12.0-1.0","9lu5hgyd1p","one_one","1","direct_first","1","he06ig03","1","25","1","1","3","1","","0","1","0","null","","","<img src = 'category4/GS2.png' width = '100%;'>","null","","","","","","","","","",""
"","html-keyboard-response","190","498520","0.0-12.0-2.0","9lu5hgyd1p","one_one","1","direct_first","1","he06ig03","1","25","1","1","3","1","","0","1","0","null","","","<img src = 'targets/17.png' width = '100%;'>","null","","","","","","","","","",""
"","html-keyboard-response","191","499127","0.0-12.0-3.0","9lu5hgyd1p","one_one","1","direct_first","1","he06ig03","1","25","1","1","3","1","","0","1","0","605","","","<img src = 'targets/mask.png' width = '100%;'>","75","neg","GS","GSnew","4","category4/GS2.png","","targets/17.png","indirect","1","16"
"","html-keyboard-response","192","500629","0.0-12.0-0.1","9lu5hgyd1p","one_one","1","direct_first","1","he06ig03","1","25","1","1","3","1","","0","1","0","null","","","<div style=""font-size:60px;"">+</div>","null","","","","","","","","","",""
"","html-keyboard-response","193","500722","0.0-12.0-1.1","9lu5hgyd1p","one_one","1","direct_first","1","he06ig03","1","25","1","1","3","1","","0","1","0","null","","","<img src = 'category1/GS3.png' width = '100%;'>","null","","","","","","","","","",""
"","html-keyboard-response","194","500975","0.0-12.0-2.1","9lu5hgyd1p","one_one","1","direct_first","1","he06ig03","1","25","1","1","3","1","","0","1","0","null","","","<img src = 'targets/34.png' width = '100%;'>","null","","","","","","","","","",""
"","html-keyboard-response","195","501042","0.0-12.0-3.1","9lu5hgyd1p","one_one","1","direct_first","1","he06ig03","1","25","1","1","3","1","","0","1","0","66","","","<img src = 'targets/mask.png' width = '100%;'>","68","pos","GS","GSnew","1","category1/GS3.png","","targets/34.png","indirect","0","17"
"","html-keyboard-response","196","502544","0.0-12.0-0.2","9lu5hgyd1p","one_one","1","direct_first","1","he06ig03","1","25","1","1","3","1","","0","1","0","null","","","<div style=""font-size:60px;"">+</div>","null","","","","","","","","","",""
"","html-keyboard-response","197","502636","0.0-12.0-1.2","9lu5hgyd1p","one_one","1","direct_first","1","he06ig03","1","25","1","1","3","1","","0","1","0","null","","","<img src = 'category2/GS3.png' width = '100%;'>","null","","","","","","","","","",""
"","html-keyboard-response","198","502889","0.0-12.0-2.2","9lu5hgyd1p","one_one","1","direct_first","1","he06ig03","1","25","1","1","3","1","","0","1","0","null","","","<img src = 'targets/13.png' width = '100%;'>","null","","","","","","","","","",""
"","html-keyboard-response","199","503341","0.0-12.0-3.2","9lu5hgyd1p","one_one","1","direct_first","1","he06ig03","1","25","1","1","3","1","","0","1","0","451","","","<img src = 'targets/mask.png' width = '100%;'>","68","neg","GS","GSnew","2","category2/GS3.png","","targets/13.png","indirect","0","18"
"","html-keyboard-response","200","504845","0.0-12.0-0.3","9lu5hgyd1p","one_one","1","direct_first","1","he06ig03","1","25","1","1","3","1","","0","1","0","null","","","<div style=""font-size:60px;"">+</div>","null","","","","","","","","","",""
"","html-keyboard-response","201","504936","0.0-12.0-1.3","9lu5hgyd1p","one_one","1","direct_first","1","he06ig03","1","25","1","1","3","1","","0","1","0","null","","","<img src = 'category3/GS1.png' width = '100%;'>","null","","","","","","","","","",""
"","html-keyboard-response","202","505188","0.0-12.0-2.3","9lu5hgyd1p","one_one","1","direct_first","1","he06ig03","1","25","1","1","3","1","","0","1","0","null","","","<img src = 'targets/15.png' width = '100%;'>","null","","","","","","","","","",""
"","html-keyboard-response","203","505323","0.0-12.0-3.3","9lu5hgyd1p","one_one","1","direct_first","1","he06ig03","1","25","1","1","3","1","","0","1","0","132","","","<img src = 'targets/mask.png' width = '100%;'>","75","pos","GS","GSnew","3","category3/GS1.png","","targets/15.png","indirect","1","19"
"","html-keyboard-response","204","506826","0.0-12.0-0.4","9lu5hgyd1p","one_one","1","direct_first","1","he06ig03","1","25","1","1","3","1","","0","1","0","null","","","<div style=""font-size:60px;"">+</div>","null","","","","","","","","","",""
"","html-keyboard-response","205","506917","0.0-12.0-1.4","9lu5hgyd1p","one_one","1","direct_first","1","he06ig03","1","25","1","1","3","1","","0","1","0","null","","","<img src = 'category4/lin.png' width = '100%;'>","null","","","","","","","","","",""
"","html-keyboard-response","206","507169","0.0-12.0-2.4","9lu5hgyd1p","one_one","1","direct_first","1","he06ig03","1","25","1","1","3","1","","0","1","0","null","","","<img src = 'targets/26.png' width = '100%;'>","null","","","","","","","","","",""
"","html-keyboard-response","207","507679","0.0-12.0-3.4","9lu5hgyd1p","one_one","1","direct_first","1","he06ig03","1","25","1","1","3","1","","0","1","0","510","","","<img src = 'targets/mask.png' width = '100%;'>","75","neg","GS","abstract","4","category4/lin.png","","targets/26.png","indirect","1","20"
"","html-keyboard-response","208","509180","0.0-12.0-0.5","9lu5hgyd1p","one_one","1","direct_first","1","he06ig03","1","25","1","1","3","1","","0","1","0","null","","","<div style=""font-size:60px;"">+</div>","null","","","","","","","","","",""
"","html-keyboard-response","209","509272","0.0-12.0-1.5","9lu5hgyd1p","one_one","1","direct_first","1","he06ig03","1","25","1","1","3","1","","0","1","0","null","","","<img src = 'category1/ma.png' width = '100%;'>","null","","","","","","","","","",""
"","html-keyboard-response","210","509523","0.0-12.0-2.5","9lu5hgyd1p","one_one","1","direct_first","1","he06ig03","1","25","1","1","3","1","","0","1","0","null","","","<img src = 'targets/38.png' width = '100%;'>","null","","","","","","","","","",""
"","html-keyboard-response","211","510019","0.0-12.0-3.5","9lu5hgyd1p","one_one","1","direct_first","1","he06ig03","1","25","1","1","3","1","","0","1","0","494","","","<img src = 'targets/mask.png' width = '100%;'>","75","pos","GS","abstract","1","category1/ma.png","","targets/38.png","indirect","1","21"
"","html-keyboard-response","212","511520","0.0-12.0-0.6","9lu5hgyd1p","one_one","1","direct_first","1","he06ig03","1","25","1","1","3","1","","0","1","0","null","","","<div style=""font-size:60px;"">+</div>","null","","","","","","","","","",""
"","html-keyboard-response","213","511613","0.0-12.0-1.6","9lu5hgyd1p","one_one","1","direct_first","1","he06ig03","1","25","1","1","3","1","","0","1","0","null","","","<img src = 'category1/GS1.png' width = '100%;'>","null","","","","","","","","","",""
"","html-keyboard-response","214","511867","0.0-12.0-2.6","9lu5hgyd1p","one_one","1","direct_first","1","he06ig03","1","25","1","1","3","1","","0","1","0","null","","","<img src = 'targets/32.png' width = '100%;'>","null","","","","","","","","","",""
"","html-keyboard-response","215","512241","0.0-12.0-3.6","9lu5hgyd1p","one_one","1","direct_first","1","he06ig03","1","25","1","1","3","1","","0","1","0","373","","","<img src = 'targets/mask.png' width = '100%;'>","68","pos","GS","GSnew","1","category1/GS1.png","","targets/32.png","indirect","0","22"
"","html-keyboard-response","216","513742","0.0-12.0-0.7","9lu5hgyd1p","one_one","1","direct_first","1","he06ig03","1","25","1","1","3","1","","0","1","0","null","","","<div style=""font-size:60px;"">+</div>","null","","","","","","","","","",""
"","html-keyboard-response","217","513835","0.0-12.0-1.7","9lu5hgyd1p","one_one","1","direct_first","1","he06ig03","1","25","1","1","3","1","","0","1","0","null","","","<img src = 'category4/GS3.png' width = '100%;'>","null","","","","","","","","","",""
"","html-keyboard-response","218","514090","0.0-12.0-2.7","9lu5hgyd1p","one_one","1","direct_first","1","he06ig03","1","25","1","1","3","1","","0","1","0","null","","","<img src = 'targets/21.png' width = '100%;'>","null","","","","","","","","","",""
"","html-keyboard-response","219","514201","0.0-12.0-3.7","9lu5hgyd1p","one_one","1","direct_first","1","he06ig03","1","25","1","1","3","1","","0","1","0","110","","","<img src = 'targets/mask.png' width = '100%;'>","75","neg","GS","GSnew","4","category4/GS3.png","","targets/21.png","indirect","1","23"
"","html-keyboard-response","220","515704","0.0-12.0-0.8","9lu5hgyd1p","one_one","1","direct_first","1","he06ig03","1","25","1","1","3","1","","0","1","0","null","","","<div style=""font-size:60px;"">+</div>","null","","","","","","","","","",""
"","html-keyboard-response","221","515796","0.0-12.0-1.8","9lu5hgyd1p","one_one","1","direct_first","1","he06ig03","1","25","1","1","3","1","","0","1","0","null","","","<img src = 'category3/wang.png' width = '100%;'>","null","","","","","","","","","",""
"","html-keyboard-response","222","516051","0.0-12.0-2.8","9lu5hgyd1p","one_one","1","direct_first","1","he06ig03","1","25","1","1","3","1","","0","1","0","null","","","<img src = 'targets/16.png' width = '100%;'>","null","","","","","","","","","",""
"","html-keyboard-response","223","516568","0.0-12.0-3.8","9lu5hgyd1p","one_one","1","direct_first","1","he06ig03","1","25","1","1","3","1","","0","1","0","516","","","<img src = 'targets/mask.png' width = '100%;'>","75","pos","GS","abstract","3","category3/wang.png","","targets/16.png","indirect","1","24"
"","html-keyboard-response","224","518070","0.0-12.0-0.9","9lu5hgyd1p","one_one","1","direct_first","1","he06ig03","1","25","1","1","3","1","","0","1","0","null","","","<div style=""font-size:60px;"">+</div>","null","","","","","","","","","",""
"","html-keyboard-response","225","518162","0.0-12.0-1.9","9lu5hgyd1p","one_one","1","direct_first","1","he06ig03","1","25","1","1","3","1","","0","1","0","null","","","<img src = 'category2/GS1.png' width = '100%;'>","null","","","","","","","","","",""
"","html-keyboard-response","226","518415","0.0-12.0-2.9","9lu5hgyd1p","one_one","1","direct_first","1","he06ig03","1","25","1","1","3","1","","0","1","0","null","","","<img src = 'targets/23.png' width = '100%;'>","null","","","","","","","","","",""
"","html-keyboard-response","227","518813","0.0-12.0-3.9","9lu5hgyd1p","one_one","1","direct_first","1","he06ig03","1","25","1","1","3","1","","0","1","0","395","","","<img src = 'targets/mask.png' width = '100%;'>","75","neg","GS","GSnew","2","category2/GS1.png","","targets/23.png","indirect","1","25"
"","html-keyboard-response","228","520315","0.0-12.0-0.10","9lu5hgyd1p","one_one","1","direct_first","1","he06ig03","1","25","1","1","3","1","","0","1","0","null","","","<div style=""font-size:60px;"">+</div>","null","","","","","","","","","",""
"","html-keyboard-response","229","520407","0.0-12.0-1.10","9lu5hgyd1p","one_one","1","direct_first","1","he06ig03","1","25","1","1","3","1","","0","1","0","null","","","<img src = 'category3/GS2.png' width = '100%;'>","null","","","","","","","","","",""
"","html-keyboard-response","230","520659","0.0-12.0-2.10","9lu5hgyd1p","one_one","1","direct_first","1","he06ig03","1","25","1","1","3","1","","0","1","0","null","","","<img src = 'targets/41.png' width = '100%;'>","null","","","","","","","","","",""
"","html-keyboard-response","231","521087","0.0-12.0-3.10","9lu5hgyd1p","one_one","1","direct_first","1","he06ig03","1","25","1","1","3","1","","0","1","0","426","","","<img src = 'targets/mask.png' width = '100%;'>","75","pos","GS","GSnew","3","category3/GS2.png","","targets/41.png","indirect","1","26"
"","html-keyboard-response","232","522590","0.0-12.0-0.11","9lu5hgyd1p","one_one","1","direct_first","1","he06ig03","1","25","1","1","3","1","","0","1","0","null","","","<div style=""font-size:60px;"">+</div>","null","","","","","","","","","",""
"","html-keyboard-response","233","522681","0.0-12.0-1.11","9lu5hgyd1p","one_one","1","direct_first","1","he06ig03","1","25","1","1","3","1","","0","1","0","null","","","<img src = 'category1/GS2.png' width = '100%;'>","null","","","","","","","","","",""
"","html-keyboard-response","234","522934","0.0-12.0-2.11","9lu5hgyd1p","one_one","1","direct_first","1","he06ig03","1","25","1","1","3","1","","0","1","0","null","","","<img src = 'targets/44.png' width = '100%;'>","null","","","","","","","","","",""
"","html-keyboard-response","235","523334","0.0-12.0-3.11","9lu5hgyd1p","one_one","1","direct_first","1","he06ig03","1","25","1","1","3","1","","0","1","0","399","","","<img src = 'targets/mask.png' width = '100%;'>","68","pos","GS","GSnew","1","category1/GS2.png","","targets/44.png","indirect","0","27"
"","html-keyboard-response","236","524838","0.0-12.0-0.12","9lu5hgyd1p","one_one","1","direct_first","1","he06ig03","1","25","1","1","3","1","","0","1","0","null","","","<div style=""font-size:60px;"">+</div>","null","","","","","","","","","",""
"","html-keyboard-response","237","524930","0.0-12.0-1.12","9lu5hgyd1p","one_one","1","direct_first","1","he06ig03","1","25","1","1","3","1","","0","1","0","null","","","<img src = 'category3/GS3.png' width = '100%;'>","null","","","","","","","","","",""
"","html-keyboard-response","238","525185","0.0-12.0-2.12","9lu5hgyd1p","one_one","1","direct_first","1","he06ig03","1","25","1","1","3","1","","0","1","0","null","","","<img src = 'targets/35.png' width = '100%;'>","null","","","","","","","","","",""
"","html-keyboard-response","239","525616","0.0-12.0-3.12","9lu5hgyd1p","one_one","1","direct_first","1","he06ig03","1","25","1","1","3","1","","0","1","0","431","","","<img src = 'targets/mask.png' width = '100%;'>","75","pos","GS","GSnew","3","category3/GS3.png","","targets/35.png","indirect","1","28"
"","html-keyboard-response","240","527117","0.0-12.0-0.13","9lu5hgyd1p","one_one","1","direct_first","1","he06ig03","1","25","1","1","3","1","","0","1","0","null","","","<div style=""font-size:60px;"">+</div>","null","","","","","","","","","",""
"","html-keyboard-response","241","527209","0.0-12.0-1.13","9lu5hgyd1p","one_one","1","direct_first","1","he06ig03","1","25","1","1","3","1","","0","1","0","null","","","<img src = 'category4/GS1.png' width = '100%;'>","null","","","","","","","","","",""
"","html-keyboard-response","242","527463","0.0-12.0-2.13","9lu5hgyd1p","one_one","1","direct_first","1","he06ig03","1","25","1","1","3","1","","0","1","0","null","","","<img src = 'targets/37.png' width = '100%;'>","null","","","","","","","","","",""
"","html-keyboard-response","243","527773","0.0-12.0-3.13","9lu5hgyd1p","one_one","1","direct_first","1","he06ig03","1","25","1","1","3","1","","0","1","0","308","","","<img src = 'targets/mask.png' width = '100%;'>","75","neg","GS","GSnew","4","category4/GS1.png","","targets/37.png","indirect","1","29"
"","html-keyboard-response","244","529276","0.0-12.0-0.14","9lu5hgyd1p","one_one","1","direct_first","1","he06ig03","1","25","1","1","3","1","","0","1","0","null","","","<div style=""font-size:60px;"">+</div>","null","","","","","","","","","",""
"","html-keyboard-response","245","529370","0.0-12.0-1.14","9lu5hgyd1p","one_one","1","direct_first","1","he06ig03","1","25","1","1","3","1","","0","1","0","null","","","<img src = 'category2/men.png' width = '100%;'>","null","","","","","","","","","",""
"","html-keyboard-response","246","529623","0.0-12.0-2.14","9lu5hgyd1p","one_one","1","direct_first","1","he06ig03","1","25","1","1","3","1","","0","1","0","null","","","<img src = 'targets/40.png' width = '100%;'>","null","","","","","","","","","",""
"","html-keyboard-response","247","530411","0.0-12.0-3.14","9lu5hgyd1p","one_one","1","direct_first","1","he06ig03","1","25","1","1","3","1","","0","1","0","788","","","<img src = 'targets/mask.png' width = '100%;'>","68","neg","GS","abstract","2","category2/men.png","","targets/40.png","indirect","0","30"
"","html-keyboard-response","248","531914","0.0-12.0-0.15","9lu5hgyd1p","one_one","1","direct_first","1","he06ig03","1","25","1","1","3","1","","0","1","0","null","","","<div style=""font-size:60px;"">+</div>","null","","","","","","","","","",""
"","html-keyboard-response","249","532006","0.0-12.0-1.15","9lu5hgyd1p","one_one","1","direct_first","1","he06ig03","1","25","1","1","3","1","","0","1","0","null","","","<img src = 'category2/GS2.png' width = '100%;'>","null","","","","","","","","","",""
"","html-keyboard-response","250","532259","0.0-12.0-2.15","9lu5hgyd1p","one_one","1","direct_first","1","he06ig03","1","25","1","1","3","1","","0","1","0","null","","","<img src = 'targets/12.png' width = '100%;'>","null","","","","","","","","","",""
"","html-keyboard-response","251","532644","0.0-12.0-3.15","9lu5hgyd1p","one_one","1","direct_first","1","he06ig03","1","25","1","1","3","1","","0","1","0","384","","","<img src = 'targets/mask.png' width = '100%;'>","75","neg","GS","GSnew","2","category2/GS2.png","","targets/12.png","indirect","1","31"
"","survey-html-form","252","536409","0.0-13.0","9lu5hgyd1p","one_one","1","direct_first","1","he06ig03","1","25","1","1","3","1","","0","1","0","3264","","{}","","","","","","","","","","","",""
"","image-slider-response","253","542377","0.0-14.0-0.0","9lu5hgyd1p","one_one","1","direct_first","1","he06ig03","1","25","1","1","3","1","","0","1","0","4963","","","","","pos","All","all","3","category3/wang_all.png","30","","all","",""
"","image-slider-response","254","544945","0.0-14.0-0.1","9lu5hgyd1p","one_one","1","direct_first","1","he06ig03","1","25","1","1","3","1","","0","1","0","2566","","","","","pos","All","all","1","category1/ma_all.png","-32","","all","",""
"","image-slider-response","255","546898","0.0-14.0-0.2","9lu5hgyd1p","one_one","1","direct_first","1","he06ig03","1","25","1","1","3","1","","0","1","0","1950","","","","","neg","All","all","2","category2/men_all.png","30","","all","",""
"","image-slider-response","256","548899","0.0-14.0-0.3","9lu5hgyd1p","one_one","1","direct_first","1","he06ig03","1","25","1","1","3","1","","0","1","0","1999","","","","","neg","All","all","4","category4/lin_all.png","-14","","all","",""
"","survey-text","257","551756","0.0-15.0","9lu5hgyd1p","one_one","1","direct_first","1","he06ig03","1","25","1","1","3","1","","0","1","0","2849","","{""comment"":""""}","","","","","","","","","","","",""
"","survey-html-form","258","563147","0.0-16.0","9lu5hgyd1p","one_one","1","direct_first","1","he06ig03","1","25","1","1","3","1","","0","1","0","11389","","{""hinschauen"":""0"",""ablenkung"":""1"",""gewissenhaft"":""0""}","","","","","","","","","","","",""
