"success","trial_type","trial_index","time_elapsed","internal_node_id","subject","condition","condition_code","measure","measure_code","codeword","gender","age","education","chinese","fach","handedness","rt","url","responses","stimulus","key_press","val","type","type_specific","category","cs_selected","response","target","task","indirect","nr_pres"
"true","fullscreen","0","2311","0.0-0.0","4wn7ob94sy","many_one","0","direct_first","1","iß06en04","0","21","1","1","3","1","","","","","","","","","","","","","","",""
"","external-html","1","63535","0.0-1.0","4wn7ob94sy","many_one","0","direct_first","1","iß06en04","0","21","1","1","3","1","61217","text/information.html","","","","","","","","","","","","",""
"","external-html","2","113759","0.0-2.0","4wn7ob94sy","many_one","0","direct_first","1","iß06en04","0","21","1","1","3","1","50218","text/consent.html","","","","","","","","","","","","",""
"","survey-html-form","3","208356","0.0-3.0","4wn7ob94sy","many_one","0","direct_first","1","iß06en04","0","21","1","1","3","1","94598","","{""codeword_enter"":""iß06en04""}","","","","","","","","","","","",""
"","survey-html-form","4","224727","0.0-4.0","4wn7ob94sy","many_one","0","direct_first","1","iß06en04","0","21","1","1","3","1","16369","","{""age"":""21"",""education"":""1"",""subject"":""3"",""gender"":""0"",""handedness"":""1"",""chinese"":""1""}","","","","","","","","","","","",""
"","survey-html-form","5","234518","0.0-5.0","4wn7ob94sy","many_one","0","direct_first","1","iß06en04","0","21","1","1","3","1","9790","","{}","","","","","","","","","","","",""
"","html-keyboard-response","6","238551","0.0-6.0-0.0-0.0","4wn7ob94sy","many_one","0","direct_first","1","iß06en04","0","21","1","1","3","1","null","","","<div class = 'row'><div class = 'column'><img src = 'category2/CS6.png' width = '70%;'></div><div class = 'column'><img src = 'usneg/6570.1.bmp' width = '100%;'></div></div>","null","neg","CS","CS","2","category2/CS6.png","","","","",""
"","html-keyboard-response","7","241070","0.0-6.0-0.0-0.1","4wn7ob94sy","many_one","0","direct_first","1","iß06en04","0","21","1","1","3","1","null","","","<div class = 'row'><div class = 'column'><img src = 'category3/CS3.png' width = '70%;'></div><div class = 'column'><img src = 'usneg/8485.bmp' width = '100%;'></div></div>","null","neg","CS","CS","3","category3/CS3.png","","","","",""
"","html-keyboard-response","8","243610","0.0-6.0-0.0-0.2","4wn7ob94sy","many_one","0","direct_first","1","iß06en04","0","21","1","1","3","1","null","","","<div class = 'row'><div class = 'column'><img src = 'usneg/6212.bmp' width = '100%;'></div><div class = 'column'><img src = 'category2/CS1.png' width = '70%;'></div></div>","null","neg","CS","CS","2","category2/CS1.png","","","","",""
"","html-keyboard-response","9","246151","0.0-6.0-0.0-0.3","4wn7ob94sy","many_one","0","direct_first","1","iß06en04","0","21","1","1","3","1","null","","","<div class = 'row'><div class = 'column'><img src = 'uspos/5700.bmp' width = '100%;'></div><div class = 'column'><img src = 'category4/CS4.png' width = '70%;'></div></div>","null","pos","CS","CS","4","category4/CS4.png","","","","",""
"","html-keyboard-response","10","248691","0.0-6.0-0.0-0.4","4wn7ob94sy","many_one","0","direct_first","1","iß06en04","0","21","1","1","3","1","null","","","<div class = 'row'><div class = 'column'><img src = 'category1/CS4.png' width = '70%;'></div><div class = 'column'><img src = 'uspos/2040.bmp' width = '100%;'></div></div>","null","pos","CS","CS","1","category1/CS4.png","","","","",""
"","html-keyboard-response","11","251209","0.0-6.0-0.0-0.5","4wn7ob94sy","many_one","0","direct_first","1","iß06en04","0","21","1","1","3","1","null","","","<div class = 'row'><div class = 'column'><img src = 'uspos/7325.bmp' width = '100%;'></div><div class = 'column'><img src = 'category1/CS10.png' width = '70%;'></div></div>","null","pos","CS","CS","1","category1/CS10.png","","","","",""
"","html-keyboard-response","12","253749","0.0-6.0-0.0-0.6","4wn7ob94sy","many_one","0","direct_first","1","iß06en04","0","21","1","1","3","1","null","","","<div class = 'row'><div class = 'column'><img src = 'usneg/9340.bmp' width = '100%;'></div><div class = 'column'><img src = 'category3/CS1.png' width = '70%;'></div></div>","null","neg","CS","CS","3","category3/CS1.png","","","","",""
"","html-keyboard-response","13","256290","0.0-6.0-0.0-0.7","4wn7ob94sy","many_one","0","direct_first","1","iß06en04","0","21","1","1","3","1","null","","","<div class = 'row'><div class = 'column'><img src = 'uspos/5470.bmp' width = '100%;'></div><div class = 'column'><img src = 'category4/CS1.png' width = '70%;'></div></div>","null","pos","CS","CS","4","category4/CS1.png","","","","",""
"","html-keyboard-response","14","258810","0.0-6.0-0.0-0.8","4wn7ob94sy","many_one","0","direct_first","1","iß06en04","0","21","1","1","3","1","null","","","<div class = 'row'><div class = 'column'><img src = 'usneg/2900.bmp' width = '100%;'></div><div class = 'column'><img src = 'category2/CS5.png' width = '70%;'></div></div>","null","neg","CS","CS","2","category2/CS5.png","","","","",""
"","html-keyboard-response","15","261347","0.0-6.0-0.0-0.9","4wn7ob94sy","many_one","0","direct_first","1","iß06en04","0","21","1","1","3","1","null","","","<div class = 'row'><div class = 'column'><img src = 'category1/CS8.png' width = '70%;'></div><div class = 'column'><img src = 'uspos/5621.bmp' width = '100%;'></div></div>","null","pos","CS","CS","1","category1/CS8.png","","","","",""
"","html-keyboard-response","16","263850","0.0-6.0-0.0-0.10","4wn7ob94sy","many_one","0","direct_first","1","iß06en04","0","21","1","1","3","1","null","","","<div class = 'row'><div class = 'column'><img src = 'category4/CS8.png' width = '70%;'></div><div class = 'column'><img src = 'uspos/2150.bmp' width = '100%;'></div></div>","null","pos","CS","CS","4","category4/CS8.png","","","","",""
"","html-keyboard-response","17","266390","0.0-6.0-0.0-0.11","4wn7ob94sy","many_one","0","direct_first","1","iß06en04","0","21","1","1","3","1","null","","","<div class = 'row'><div class = 'column'><img src = 'category1/CS3.png' width = '70%;'></div><div class = 'column'><img src = 'uspos/7580.bmp' width = '100%;'></div></div>","null","pos","CS","CS","1","category1/CS3.png","","","","",""
"","html-keyboard-response","18","268929","0.0-6.0-0.0-0.12","4wn7ob94sy","many_one","0","direct_first","1","iß06en04","0","21","1","1","3","1","null","","","<div class = 'row'><div class = 'column'><img src = 'category3/CS9.png' width = '70%;'></div><div class = 'column'><img src = 'usneg/9404.bmp' width = '100%;'></div></div>","null","neg","CS","CS","3","category3/CS9.png","","","","",""
"","html-keyboard-response","19","271469","0.0-6.0-0.0-0.13","4wn7ob94sy","many_one","0","direct_first","1","iß06en04","0","21","1","1","3","1","null","","","<div class = 'row'><div class = 'column'><img src = 'category1/CS6.png' width = '70%;'></div><div class = 'column'><img src = 'uspos/2360.bmp' width = '100%;'></div></div>","null","pos","CS","CS","1","category1/CS6.png","","","","",""
"","html-keyboard-response","20","274010","0.0-6.0-0.0-0.14","4wn7ob94sy","many_one","0","direct_first","1","iß06en04","0","21","1","1","3","1","null","","","<div class = 'row'><div class = 'column'><img src = 'uspos/2160.bmp' width = '100%;'></div><div class = 'column'><img src = 'category4/CS6.png' width = '70%;'></div></div>","null","pos","CS","CS","4","category4/CS6.png","","","","",""
"","html-keyboard-response","21","276549","0.0-6.0-0.0-0.15","4wn7ob94sy","many_one","0","direct_first","1","iß06en04","0","21","1","1","3","1","null","","","<div class = 'row'><div class = 'column'><img src = 'usneg/9050.bmp' width = '100%;'></div><div class = 'column'><img src = 'category3/CS10.png' width = '70%;'></div></div>","null","neg","CS","CS","3","category3/CS10.png","","","","",""
"","html-keyboard-response","22","279089","0.0-6.0-0.0-0.16","4wn7ob94sy","many_one","0","direct_first","1","iß06en04","0","21","1","1","3","1","null","","","<div class = 'row'><div class = 'column'><img src = 'usneg/3160.bmp' width = '100%;'></div><div class = 'column'><img src = 'category2/CS7.png' width = '70%;'></div></div>","null","neg","CS","CS","2","category2/CS7.png","","","","",""
"","html-keyboard-response","23","281629","0.0-6.0-0.0-0.17","4wn7ob94sy","many_one","0","direct_first","1","iß06en04","0","21","1","1","3","1","null","","","<div class = 'row'><div class = 'column'><img src = 'uspos/1340.bmp' width = '100%;'></div><div class = 'column'><img src = 'category4/CS5.png' width = '70%;'></div></div>","null","pos","CS","CS","4","category4/CS5.png","","","","",""
"","html-keyboard-response","24","284169","0.0-6.0-0.0-0.18","4wn7ob94sy","many_one","0","direct_first","1","iß06en04","0","21","1","1","3","1","null","","","<div class = 'row'><div class = 'column'><img src = 'usneg/9830.bmp' width = '100%;'></div><div class = 'column'><img src = 'category3/CS2.png' width = '70%;'></div></div>","null","neg","CS","CS","3","category3/CS2.png","","","","",""
"","html-keyboard-response","25","286708","0.0-6.0-0.0-0.19","4wn7ob94sy","many_one","0","direct_first","1","iß06en04","0","21","1","1","3","1","null","","","<div class = 'row'><div class = 'column'><img src = 'category2/CS8.png' width = '70%;'></div><div class = 'column'><img src = 'usneg/9421.bmp' width = '100%;'></div></div>","null","neg","CS","CS","2","category2/CS8.png","","","","",""
"","survey-html-form","26","290757","0.0-6.0-1.0","4wn7ob94sy","many_one","0","direct_first","1","iß06en04","0","21","1","1","3","1","3527","","{}","","","","","","","","","","","",""
"","html-keyboard-response","27","294789","0.0-6.0-2.0-0.0","4wn7ob94sy","many_one","0","direct_first","1","iß06en04","0","21","1","1","3","1","null","","","<div class = 'row'><div class = 'column'><img src = 'category4/CS5.png' width = '70%;'></div><div class = 'column'><img src = 'uspos/1340.bmp' width = '100%;'></div></div>","null","pos","CS","CS","4","category4/CS5.png","","","","",""
"","html-keyboard-response","28","297329","0.0-6.0-2.0-0.1","4wn7ob94sy","many_one","0","direct_first","1","iß06en04","0","21","1","1","3","1","null","","","<div class = 'row'><div class = 'column'><img src = 'category4/CS8.png' width = '70%;'></div><div class = 'column'><img src = 'uspos/2150.bmp' width = '100%;'></div></div>","null","pos","CS","CS","4","category4/CS8.png","","","","",""
"","html-keyboard-response","29","299869","0.0-6.0-2.0-0.2","4wn7ob94sy","many_one","0","direct_first","1","iß06en04","0","21","1","1","3","1","null","","","<div class = 'row'><div class = 'column'><img src = 'usneg/9830.bmp' width = '100%;'></div><div class = 'column'><img src = 'category3/CS2.png' width = '70%;'></div></div>","null","neg","CS","CS","3","category3/CS2.png","","","","",""
"","html-keyboard-response","30","302409","0.0-6.0-2.0-0.3","4wn7ob94sy","many_one","0","direct_first","1","iß06en04","0","21","1","1","3","1","null","","","<div class = 'row'><div class = 'column'><img src = 'usneg/9050.bmp' width = '100%;'></div><div class = 'column'><img src = 'category3/CS10.png' width = '70%;'></div></div>","null","neg","CS","CS","3","category3/CS10.png","","","","",""
"","html-keyboard-response","31","304944","0.0-6.0-2.0-0.4","4wn7ob94sy","many_one","0","direct_first","1","iß06en04","0","21","1","1","3","1","null","","","<div class = 'row'><div class = 'column'><img src = 'category1/CS3.png' width = '70%;'></div><div class = 'column'><img src = 'uspos/7580.bmp' width = '100%;'></div></div>","null","pos","CS","CS","1","category1/CS3.png","","","","",""
"","html-keyboard-response","32","307448","0.0-6.0-2.0-0.5","4wn7ob94sy","many_one","0","direct_first","1","iß06en04","0","21","1","1","3","1","null","","","<div class = 'row'><div class = 'column'><img src = 'category4/CS6.png' width = '70%;'></div><div class = 'column'><img src = 'uspos/2160.bmp' width = '100%;'></div></div>","null","pos","CS","CS","4","category4/CS6.png","","","","",""
"","html-keyboard-response","33","309989","0.0-6.0-2.0-0.6","4wn7ob94sy","many_one","0","direct_first","1","iß06en04","0","21","1","1","3","1","null","","","<div class = 'row'><div class = 'column'><img src = 'uspos/2040.bmp' width = '100%;'></div><div class = 'column'><img src = 'category1/CS4.png' width = '70%;'></div></div>","null","pos","CS","CS","1","category1/CS4.png","","","","",""
"","html-keyboard-response","34","312528","0.0-6.0-2.0-0.7","4wn7ob94sy","many_one","0","direct_first","1","iß06en04","0","21","1","1","3","1","null","","","<div class = 'row'><div class = 'column'><img src = 'category3/CS1.png' width = '70%;'></div><div class = 'column'><img src = 'usneg/9340.bmp' width = '100%;'></div></div>","null","neg","CS","CS","3","category3/CS1.png","","","","",""
"","html-keyboard-response","35","315069","0.0-6.0-2.0-0.8","4wn7ob94sy","many_one","0","direct_first","1","iß06en04","0","21","1","1","3","1","null","","","<div class = 'row'><div class = 'column'><img src = 'usneg/9421.bmp' width = '100%;'></div><div class = 'column'><img src = 'category2/CS8.png' width = '70%;'></div></div>","null","neg","CS","CS","2","category2/CS8.png","","","","",""
"","html-keyboard-response","36","317609","0.0-6.0-2.0-0.9","4wn7ob94sy","many_one","0","direct_first","1","iß06en04","0","21","1","1","3","1","null","","","<div class = 'row'><div class = 'column'><img src = 'category3/CS3.png' width = '70%;'></div><div class = 'column'><img src = 'usneg/8485.bmp' width = '100%;'></div></div>","null","neg","CS","CS","3","category3/CS3.png","","","","",""
"","html-keyboard-response","37","320128","0.0-6.0-2.0-0.10","4wn7ob94sy","many_one","0","direct_first","1","iß06en04","0","21","1","1","3","1","null","","","<div class = 'row'><div class = 'column'><img src = 'uspos/7325.bmp' width = '100%;'></div><div class = 'column'><img src = 'category1/CS10.png' width = '70%;'></div></div>","null","pos","CS","CS","1","category1/CS10.png","","","","",""
"","html-keyboard-response","38","322668","0.0-6.0-2.0-0.11","4wn7ob94sy","many_one","0","direct_first","1","iß06en04","0","21","1","1","3","1","null","","","<div class = 'row'><div class = 'column'><img src = 'uspos/5621.bmp' width = '100%;'></div><div class = 'column'><img src = 'category1/CS8.png' width = '70%;'></div></div>","null","pos","CS","CS","1","category1/CS8.png","","","","",""
"","html-keyboard-response","39","325198","0.0-6.0-2.0-0.12","4wn7ob94sy","many_one","0","direct_first","1","iß06en04","0","21","1","1","3","1","null","","","<div class = 'row'><div class = 'column'><img src = 'uspos/5700.bmp' width = '100%;'></div><div class = 'column'><img src = 'category4/CS4.png' width = '70%;'></div></div>","null","pos","CS","CS","4","category4/CS4.png","","","","",""
"","html-keyboard-response","40","327738","0.0-6.0-2.0-0.13","4wn7ob94sy","many_one","0","direct_first","1","iß06en04","0","21","1","1","3","1","null","","","<div class = 'row'><div class = 'column'><img src = 'category2/CS5.png' width = '70%;'></div><div class = 'column'><img src = 'usneg/2900.bmp' width = '100%;'></div></div>","null","neg","CS","CS","2","category2/CS5.png","","","","",""
"","html-keyboard-response","41","330268","0.0-6.0-2.0-0.14","4wn7ob94sy","many_one","0","direct_first","1","iß06en04","0","21","1","1","3","1","null","","","<div class = 'row'><div class = 'column'><img src = 'usneg/6212.bmp' width = '100%;'></div><div class = 'column'><img src = 'category2/CS1.png' width = '70%;'></div></div>","null","neg","CS","CS","2","category2/CS1.png","","","","",""
"","html-keyboard-response","42","332798","0.0-6.0-2.0-0.15","4wn7ob94sy","many_one","0","direct_first","1","iß06en04","0","21","1","1","3","1","null","","","<div class = 'row'><div class = 'column'><img src = 'category3/CS9.png' width = '70%;'></div><div class = 'column'><img src = 'usneg/9404.bmp' width = '100%;'></div></div>","null","neg","CS","CS","3","category3/CS9.png","","","","",""
"","html-keyboard-response","43","335338","0.0-6.0-2.0-0.16","4wn7ob94sy","many_one","0","direct_first","1","iß06en04","0","21","1","1","3","1","null","","","<div class = 'row'><div class = 'column'><img src = 'uspos/2360.bmp' width = '100%;'></div><div class = 'column'><img src = 'category1/CS6.png' width = '70%;'></div></div>","null","pos","CS","CS","1","category1/CS6.png","","","","",""
"","html-keyboard-response","44","337878","0.0-6.0-2.0-0.17","4wn7ob94sy","many_one","0","direct_first","1","iß06en04","0","21","1","1","3","1","null","","","<div class = 'row'><div class = 'column'><img src = 'category4/CS1.png' width = '70%;'></div><div class = 'column'><img src = 'uspos/5470.bmp' width = '100%;'></div></div>","null","pos","CS","CS","4","category4/CS1.png","","","","",""
"","html-keyboard-response","45","340417","0.0-6.0-2.0-0.18","4wn7ob94sy","many_one","0","direct_first","1","iß06en04","0","21","1","1","3","1","null","","","<div class = 'row'><div class = 'column'><img src = 'usneg/3160.bmp' width = '100%;'></div><div class = 'column'><img src = 'category2/CS7.png' width = '70%;'></div></div>","null","neg","CS","CS","2","category2/CS7.png","","","","",""
"","html-keyboard-response","46","342956","0.0-6.0-2.0-0.19","4wn7ob94sy","many_one","0","direct_first","1","iß06en04","0","21","1","1","3","1","null","","","<div class = 'row'><div class = 'column'><img src = 'category2/CS6.png' width = '70%;'></div><div class = 'column'><img src = 'usneg/6570.1.bmp' width = '100%;'></div></div>","null","neg","CS","CS","2","category2/CS6.png","","","","",""
"","survey-html-form","47","350284","0.0-6.0-3.0","4wn7ob94sy","many_one","0","direct_first","1","iß06en04","0","21","1","1","3","1","6826","","{}","","","","","","","","","","","",""
"","html-keyboard-response","48","354318","0.0-6.0-4.0-0.0","4wn7ob94sy","many_one","0","direct_first","1","iß06en04","0","21","1","1","3","1","null","","","<div class = 'row'><div class = 'column'><img src = 'category4/CS5.png' width = '70%;'></div><div class = 'column'><img src = 'uspos/1340.bmp' width = '100%;'></div></div>","null","pos","CS","CS","4","category4/CS5.png","","","","",""
"","html-keyboard-response","49","356857","0.0-6.0-4.0-0.1","4wn7ob94sy","many_one","0","direct_first","1","iß06en04","0","21","1","1","3","1","null","","","<div class = 'row'><div class = 'column'><img src = 'category1/CS4.png' width = '70%;'></div><div class = 'column'><img src = 'uspos/2040.bmp' width = '100%;'></div></div>","null","pos","CS","CS","1","category1/CS4.png","","","","",""
"","html-keyboard-response","50","359398","0.0-6.0-4.0-0.2","4wn7ob94sy","many_one","0","direct_first","1","iß06en04","0","21","1","1","3","1","null","","","<div class = 'row'><div class = 'column'><img src = 'category2/CS1.png' width = '70%;'></div><div class = 'column'><img src = 'usneg/6212.bmp' width = '100%;'></div></div>","null","neg","CS","CS","2","category2/CS1.png","","","","",""
"","html-keyboard-response","51","361938","0.0-6.0-4.0-0.3","4wn7ob94sy","many_one","0","direct_first","1","iß06en04","0","21","1","1","3","1","null","","","<div class = 'row'><div class = 'column'><img src = 'uspos/5621.bmp' width = '100%;'></div><div class = 'column'><img src = 'category1/CS8.png' width = '70%;'></div></div>","null","pos","CS","CS","1","category1/CS8.png","","","","",""
"","html-keyboard-response","52","364477","0.0-6.0-4.0-0.4","4wn7ob94sy","many_one","0","direct_first","1","iß06en04","0","21","1","1","3","1","null","","","<div class = 'row'><div class = 'column'><img src = 'category4/CS1.png' width = '70%;'></div><div class = 'column'><img src = 'uspos/5470.bmp' width = '100%;'></div></div>","null","pos","CS","CS","4","category4/CS1.png","","","","",""
"","html-keyboard-response","53","367013","0.0-6.0-4.0-0.5","4wn7ob94sy","many_one","0","direct_first","1","iß06en04","0","21","1","1","3","1","null","","","<div class = 'row'><div class = 'column'><img src = 'usneg/9421.bmp' width = '100%;'></div><div class = 'column'><img src = 'category2/CS8.png' width = '70%;'></div></div>","null","neg","CS","CS","2","category2/CS8.png","","","","",""
"","html-keyboard-response","54","369548","0.0-6.0-4.0-0.6","4wn7ob94sy","many_one","0","direct_first","1","iß06en04","0","21","1","1","3","1","null","","","<div class = 'row'><div class = 'column'><img src = 'category4/CS8.png' width = '70%;'></div><div class = 'column'><img src = 'uspos/2150.bmp' width = '100%;'></div></div>","null","pos","CS","CS","4","category4/CS8.png","","","","",""
"","html-keyboard-response","55","372077","0.0-6.0-4.0-0.7","4wn7ob94sy","many_one","0","direct_first","1","iß06en04","0","21","1","1","3","1","null","","","<div class = 'row'><div class = 'column'><img src = 'uspos/5700.bmp' width = '100%;'></div><div class = 'column'><img src = 'category4/CS4.png' width = '70%;'></div></div>","null","pos","CS","CS","4","category4/CS4.png","","","","",""
"","html-keyboard-response","56","374617","0.0-6.0-4.0-0.8","4wn7ob94sy","many_one","0","direct_first","1","iß06en04","0","21","1","1","3","1","null","","","<div class = 'row'><div class = 'column'><img src = 'usneg/9830.bmp' width = '100%;'></div><div class = 'column'><img src = 'category3/CS2.png' width = '70%;'></div></div>","null","neg","CS","CS","3","category3/CS2.png","","","","",""
"","html-keyboard-response","57","377147","0.0-6.0-4.0-0.9","4wn7ob94sy","many_one","0","direct_first","1","iß06en04","0","21","1","1","3","1","null","","","<div class = 'row'><div class = 'column'><img src = 'category3/CS10.png' width = '70%;'></div><div class = 'column'><img src = 'usneg/9050.bmp' width = '100%;'></div></div>","null","neg","CS","CS","3","category3/CS10.png","","","","",""
"","html-keyboard-response","58","379668","0.0-6.0-4.0-0.10","4wn7ob94sy","many_one","0","direct_first","1","iß06en04","0","21","1","1","3","1","null","","","<div class = 'row'><div class = 'column'><img src = 'usneg/3160.bmp' width = '100%;'></div><div class = 'column'><img src = 'category2/CS7.png' width = '70%;'></div></div>","null","neg","CS","CS","2","category2/CS7.png","","","","",""
"","html-keyboard-response","59","382177","0.0-6.0-4.0-0.11","4wn7ob94sy","many_one","0","direct_first","1","iß06en04","0","21","1","1","3","1","null","","","<div class = 'row'><div class = 'column'><img src = 'usneg/9340.bmp' width = '100%;'></div><div class = 'column'><img src = 'category3/CS1.png' width = '70%;'></div></div>","null","neg","CS","CS","3","category3/CS1.png","","","","",""
"","html-keyboard-response","60","384717","0.0-6.0-4.0-0.12","4wn7ob94sy","many_one","0","direct_first","1","iß06en04","0","21","1","1","3","1","null","","","<div class = 'row'><div class = 'column'><img src = 'usneg/9404.bmp' width = '100%;'></div><div class = 'column'><img src = 'category3/CS9.png' width = '70%;'></div></div>","null","neg","CS","CS","3","category3/CS9.png","","","","",""
"","html-keyboard-response","61","387257","0.0-6.0-4.0-0.13","4wn7ob94sy","many_one","0","direct_first","1","iß06en04","0","21","1","1","3","1","null","","","<div class = 'row'><div class = 'column'><img src = 'usneg/8485.bmp' width = '100%;'></div><div class = 'column'><img src = 'category3/CS3.png' width = '70%;'></div></div>","null","neg","CS","CS","3","category3/CS3.png","","","","",""
"","html-keyboard-response","62","389787","0.0-6.0-4.0-0.14","4wn7ob94sy","many_one","0","direct_first","1","iß06en04","0","21","1","1","3","1","null","","","<div class = 'row'><div class = 'column'><img src = 'category4/CS6.png' width = '70%;'></div><div class = 'column'><img src = 'uspos/2160.bmp' width = '100%;'></div></div>","null","pos","CS","CS","4","category4/CS6.png","","","","",""
"","html-keyboard-response","63","392327","0.0-6.0-4.0-0.15","4wn7ob94sy","many_one","0","direct_first","1","iß06en04","0","21","1","1","3","1","null","","","<div class = 'row'><div class = 'column'><img src = 'usneg/6570.1.bmp' width = '100%;'></div><div class = 'column'><img src = 'category2/CS6.png' width = '70%;'></div></div>","null","neg","CS","CS","2","category2/CS6.png","","","","",""
"","html-keyboard-response","64","394867","0.0-6.0-4.0-0.16","4wn7ob94sy","many_one","0","direct_first","1","iß06en04","0","21","1","1","3","1","null","","","<div class = 'row'><div class = 'column'><img src = 'uspos/2360.bmp' width = '100%;'></div><div class = 'column'><img src = 'category1/CS6.png' width = '70%;'></div></div>","null","pos","CS","CS","1","category1/CS6.png","","","","",""
"","html-keyboard-response","65","397406","0.0-6.0-4.0-0.17","4wn7ob94sy","many_one","0","direct_first","1","iß06en04","0","21","1","1","3","1","null","","","<div class = 'row'><div class = 'column'><img src = 'category1/CS10.png' width = '70%;'></div><div class = 'column'><img src = 'uspos/7325.bmp' width = '100%;'></div></div>","null","pos","CS","CS","1","category1/CS10.png","","","","",""
"","html-keyboard-response","66","399947","0.0-6.0-4.0-0.18","4wn7ob94sy","many_one","0","direct_first","1","iß06en04","0","21","1","1","3","1","null","","","<div class = 'row'><div class = 'column'><img src = 'uspos/7580.bmp' width = '100%;'></div><div class = 'column'><img src = 'category1/CS3.png' width = '70%;'></div></div>","null","pos","CS","CS","1","category1/CS3.png","","","","",""
"","html-keyboard-response","67","402486","0.0-6.0-4.0-0.19","4wn7ob94sy","many_one","0","direct_first","1","iß06en04","0","21","1","1","3","1","null","","","<div class = 'row'><div class = 'column'><img src = 'usneg/2900.bmp' width = '100%;'></div><div class = 'column'><img src = 'category2/CS5.png' width = '70%;'></div></div>","null","neg","CS","CS","2","category2/CS5.png","","","","",""
"","survey-html-form","68","405530","0.0-6.0-5.0","4wn7ob94sy","many_one","0","direct_first","1","iß06en04","0","21","1","1","3","1","2522","","{}","","","","","","","","","","","",""
"","html-keyboard-response","69","409567","0.0-6.0-6.0-0.0","4wn7ob94sy","many_one","0","direct_first","1","iß06en04","0","21","1","1","3","1","null","","","<div class = 'row'><div class = 'column'><img src = 'category3/CS3.png' width = '70%;'></div><div class = 'column'><img src = 'usneg/8485.bmp' width = '100%;'></div></div>","null","neg","CS","CS","3","category3/CS3.png","","","","",""
"","html-keyboard-response","70","412107","0.0-6.0-6.0-0.1","4wn7ob94sy","many_one","0","direct_first","1","iß06en04","0","21","1","1","3","1","null","","","<div class = 'row'><div class = 'column'><img src = 'uspos/2150.bmp' width = '100%;'></div><div class = 'column'><img src = 'category4/CS8.png' width = '70%;'></div></div>","null","pos","CS","CS","4","category4/CS8.png","","","","",""
"","html-keyboard-response","71","414647","0.0-6.0-6.0-0.2","4wn7ob94sy","many_one","0","direct_first","1","iß06en04","0","21","1","1","3","1","null","","","<div class = 'row'><div class = 'column'><img src = 'usneg/2900.bmp' width = '100%;'></div><div class = 'column'><img src = 'category2/CS5.png' width = '70%;'></div></div>","null","neg","CS","CS","2","category2/CS5.png","","","","",""
"","html-keyboard-response","72","417186","0.0-6.0-6.0-0.3","4wn7ob94sy","many_one","0","direct_first","1","iß06en04","0","21","1","1","3","1","null","","","<div class = 'row'><div class = 'column'><img src = 'usneg/6570.1.bmp' width = '100%;'></div><div class = 'column'><img src = 'category2/CS6.png' width = '70%;'></div></div>","null","neg","CS","CS","2","category2/CS6.png","","","","",""
"","html-keyboard-response","73","419726","0.0-6.0-6.0-0.4","4wn7ob94sy","many_one","0","direct_first","1","iß06en04","0","21","1","1","3","1","null","","","<div class = 'row'><div class = 'column'><img src = 'category2/CS8.png' width = '70%;'></div><div class = 'column'><img src = 'usneg/9421.bmp' width = '100%;'></div></div>","null","neg","CS","CS","2","category2/CS8.png","","","","",""
"","html-keyboard-response","74","422267","0.0-6.0-6.0-0.5","4wn7ob94sy","many_one","0","direct_first","1","iß06en04","0","21","1","1","3","1","null","","","<div class = 'row'><div class = 'column'><img src = 'category3/CS2.png' width = '70%;'></div><div class = 'column'><img src = 'usneg/9830.bmp' width = '100%;'></div></div>","null","neg","CS","CS","3","category3/CS2.png","","","","",""
"","html-keyboard-response","75","424806","0.0-6.0-6.0-0.6","4wn7ob94sy","many_one","0","direct_first","1","iß06en04","0","21","1","1","3","1","null","","","<div class = 'row'><div class = 'column'><img src = 'uspos/7580.bmp' width = '100%;'></div><div class = 'column'><img src = 'category1/CS3.png' width = '70%;'></div></div>","null","pos","CS","CS","1","category1/CS3.png","","","","",""
"","html-keyboard-response","76","427346","0.0-6.0-6.0-0.7","4wn7ob94sy","many_one","0","direct_first","1","iß06en04","0","21","1","1","3","1","null","","","<div class = 'row'><div class = 'column'><img src = 'uspos/1340.bmp' width = '100%;'></div><div class = 'column'><img src = 'category4/CS5.png' width = '70%;'></div></div>","null","pos","CS","CS","4","category4/CS5.png","","","","",""
"","html-keyboard-response","77","429886","0.0-6.0-6.0-0.8","4wn7ob94sy","many_one","0","direct_first","1","iß06en04","0","21","1","1","3","1","null","","","<div class = 'row'><div class = 'column'><img src = 'category1/CS8.png' width = '70%;'></div><div class = 'column'><img src = 'uspos/5621.bmp' width = '100%;'></div></div>","null","pos","CS","CS","1","category1/CS8.png","","","","",""
"","html-keyboard-response","78","432426","0.0-6.0-6.0-0.9","4wn7ob94sy","many_one","0","direct_first","1","iß06en04","0","21","1","1","3","1","null","","","<div class = 'row'><div class = 'column'><img src = 'category4/CS1.png' width = '70%;'></div><div class = 'column'><img src = 'uspos/5470.bmp' width = '100%;'></div></div>","null","pos","CS","CS","4","category4/CS1.png","","","","",""
"","html-keyboard-response","79","434966","0.0-6.0-6.0-0.10","4wn7ob94sy","many_one","0","direct_first","1","iß06en04","0","21","1","1","3","1","null","","","<div class = 'row'><div class = 'column'><img src = 'category2/CS7.png' width = '70%;'></div><div class = 'column'><img src = 'usneg/3160.bmp' width = '100%;'></div></div>","null","neg","CS","CS","2","category2/CS7.png","","","","",""
"","html-keyboard-response","80","437502","0.0-6.0-6.0-0.11","4wn7ob94sy","many_one","0","direct_first","1","iß06en04","0","21","1","1","3","1","null","","","<div class = 'row'><div class = 'column'><img src = 'category4/CS6.png' width = '70%;'></div><div class = 'column'><img src = 'uspos/2160.bmp' width = '100%;'></div></div>","null","pos","CS","CS","4","category4/CS6.png","","","","",""
"","html-keyboard-response","81","440004","0.0-6.0-6.0-0.12","4wn7ob94sy","many_one","0","direct_first","1","iß06en04","0","21","1","1","3","1","null","","","<div class = 'row'><div class = 'column'><img src = 'category3/CS10.png' width = '70%;'></div><div class = 'column'><img src = 'usneg/9050.bmp' width = '100%;'></div></div>","null","neg","CS","CS","3","category3/CS10.png","","","","",""
"","html-keyboard-response","82","442506","0.0-6.0-6.0-0.13","4wn7ob94sy","many_one","0","direct_first","1","iß06en04","0","21","1","1","3","1","null","","","<div class = 'row'><div class = 'column'><img src = 'category1/CS10.png' width = '70%;'></div><div class = 'column'><img src = 'uspos/7325.bmp' width = '100%;'></div></div>","null","pos","CS","CS","1","category1/CS10.png","","","","",""
"","html-keyboard-response","83","445026","0.0-6.0-6.0-0.14","4wn7ob94sy","many_one","0","direct_first","1","iß06en04","0","21","1","1","3","1","null","","","<div class = 'row'><div class = 'column'><img src = 'uspos/2040.bmp' width = '100%;'></div><div class = 'column'><img src = 'category1/CS4.png' width = '70%;'></div></div>","null","pos","CS","CS","1","category1/CS4.png","","","","",""
"","html-keyboard-response","84","447566","0.0-6.0-6.0-0.15","4wn7ob94sy","many_one","0","direct_first","1","iß06en04","0","21","1","1","3","1","null","","","<div class = 'row'><div class = 'column'><img src = 'category3/CS1.png' width = '70%;'></div><div class = 'column'><img src = 'usneg/9340.bmp' width = '100%;'></div></div>","null","neg","CS","CS","3","category3/CS1.png","","","","",""
"","html-keyboard-response","85","450096","0.0-6.0-6.0-0.16","4wn7ob94sy","many_one","0","direct_first","1","iß06en04","0","21","1","1","3","1","null","","","<div class = 'row'><div class = 'column'><img src = 'category2/CS1.png' width = '70%;'></div><div class = 'column'><img src = 'usneg/6212.bmp' width = '100%;'></div></div>","null","neg","CS","CS","2","category2/CS1.png","","","","",""
"","html-keyboard-response","86","452625","0.0-6.0-6.0-0.17","4wn7ob94sy","many_one","0","direct_first","1","iß06en04","0","21","1","1","3","1","null","","","<div class = 'row'><div class = 'column'><img src = 'uspos/5700.bmp' width = '100%;'></div><div class = 'column'><img src = 'category4/CS4.png' width = '70%;'></div></div>","null","pos","CS","CS","4","category4/CS4.png","","","","",""
"","html-keyboard-response","87","455166","0.0-6.0-6.0-0.18","4wn7ob94sy","many_one","0","direct_first","1","iß06en04","0","21","1","1","3","1","null","","","<div class = 'row'><div class = 'column'><img src = 'category1/CS6.png' width = '70%;'></div><div class = 'column'><img src = 'uspos/2360.bmp' width = '100%;'></div></div>","null","pos","CS","CS","1","category1/CS6.png","","","","",""
"","html-keyboard-response","88","457695","0.0-6.0-6.0-0.19","4wn7ob94sy","many_one","0","direct_first","1","iß06en04","0","21","1","1","3","1","null","","","<div class = 'row'><div class = 'column'><img src = 'usneg/9404.bmp' width = '100%;'></div><div class = 'column'><img src = 'category3/CS9.png' width = '70%;'></div></div>","null","neg","CS","CS","3","category3/CS9.png","","","","",""
"","survey-html-form","89","468001","0.0-7.0","4wn7ob94sy","many_one","0","direct_first","1","iß06en04","0","21","1","1","3","1","9786","","{}","","","","","","","","","","","",""
"","image-slider-response","90","477248","0.0-8.0-0.0","4wn7ob94sy","many_one","0","direct_first","1","iß06en04","0","21","1","1","3","1","7234","","","","","neg","GS","GSnew","3","category3/GS3.png","-57","targets/33.png","direct","",""
"","image-slider-response","91","481473","0.0-8.0-0.1","4wn7ob94sy","many_one","0","direct_first","1","iß06en04","0","21","1","1","3","1","4222","","","","","neg","GS","GSold","3","category3/CS5.png","-75","targets/24.png","direct","",""
"","image-slider-response","92","492536","0.0-8.0-0.2","4wn7ob94sy","many_one","0","direct_first","1","iß06en04","0","21","1","1","3","1","11063","","","","","neg","CS","CS","2","category2/CS1.png","-94","targets/41.png","direct","",""
"","image-slider-response","93","497304","0.0-8.0-0.3","4wn7ob94sy","many_one","0","direct_first","1","iß06en04","0","21","1","1","3","1","4766","","","","","neg","GS","abstract","3","category3/wang.png","-26","targets/19.png","direct","",""
"","image-slider-response","94","502240","0.0-8.0-0.4","4wn7ob94sy","many_one","0","direct_first","1","iß06en04","0","21","1","1","3","1","4934","","","","","neg","CS","CS","2","category2/CS7.png","-79","targets/30.png","direct","",""
"","image-slider-response","95","507047","0.0-8.0-0.5","4wn7ob94sy","many_one","0","direct_first","1","iß06en04","0","21","1","1","3","1","4807","","","","","pos","GS","GSnew","4","category4/GS3.png","27","targets/14.png","direct","",""
"","image-slider-response","96","510856","0.0-8.0-0.6","4wn7ob94sy","many_one","0","direct_first","1","iß06en04","0","21","1","1","3","1","3807","","","","","pos","GS","GSold","1","category1/CS1.png","32","targets/28.png","direct","",""
"","image-slider-response","97","517216","0.0-8.0-0.7","4wn7ob94sy","many_one","0","direct_first","1","iß06en04","0","21","1","1","3","1","6359","","","","","neg","GS","GSnew","2","category2/GS1.png","8","targets/43.png","direct","",""
"","image-slider-response","98","522264","0.0-8.0-0.8","4wn7ob94sy","many_one","0","direct_first","1","iß06en04","0","21","1","1","3","1","5046","","","","","neg","GS","GSnew","2","category2/GS2.png","11","targets/6.png","direct","",""
"","image-slider-response","99","527168","0.0-8.0-0.9","4wn7ob94sy","many_one","0","direct_first","1","iß06en04","0","21","1","1","3","1","4902","","","","","pos","GS","GSnew","1","category1/GS2.png","11","targets/42.png","direct","",""
"","image-slider-response","100","533032","0.0-8.0-0.10","4wn7ob94sy","many_one","0","direct_first","1","iß06en04","0","21","1","1","3","1","5863","","","","","neg","CS","CS","2","category2/CS5.png","-19","targets/21.png","direct","",""
"","image-slider-response","101","539216","0.0-8.0-0.11","4wn7ob94sy","many_one","0","direct_first","1","iß06en04","0","21","1","1","3","1","6183","","","","","pos","CS","CS","1","category1/CS8.png","41","targets/5.png","direct","",""
"","image-slider-response","102","542375","0.0-8.0-0.12","4wn7ob94sy","many_one","0","direct_first","1","iß06en04","0","21","1","1","3","1","3159","","","","","neg","CS","CS","3","category3/CS9.png","-77","targets/1.png","direct","",""
"","image-slider-response","103","545847","0.0-8.0-0.13","4wn7ob94sy","many_one","0","direct_first","1","iß06en04","0","21","1","1","3","1","3470","","","","","neg","GS","abstract","2","category2/men.png","-26","targets/40.png","direct","",""
"","image-slider-response","104","548616","0.0-8.0-0.14","4wn7ob94sy","many_one","0","direct_first","1","iß06en04","0","21","1","1","3","1","2767","","","","","neg","GS","GSold","3","category3/CS6.png","-41","targets/46.png","direct","",""
"","image-slider-response","105","551448","0.0-8.0-0.15","4wn7ob94sy","many_one","0","direct_first","1","iß06en04","0","21","1","1","3","1","2831","","","","","neg","CS","CS","3","category3/CS2.png","-55","targets/25.png","direct","",""
"","image-slider-response","106","556176","0.0-8.0-0.16","4wn7ob94sy","many_one","0","direct_first","1","iß06en04","0","21","1","1","3","1","4727","","","","","neg","GS","GSnew","3","category3/GS2.png","-18","targets/3.png","direct","",""
"","image-slider-response","107","559056","0.0-8.0-0.17","4wn7ob94sy","many_one","0","direct_first","1","iß06en04","0","21","1","1","3","1","2879","","","","","neg","GS","GSnew","3","category3/GS1.png","-30","targets/22.png","direct","",""
"","image-slider-response","108","563472","0.0-8.0-0.18","4wn7ob94sy","many_one","0","direct_first","1","iß06en04","0","21","1","1","3","1","4415","","","","","pos","GS","GSold","1","category1/CS9.png","29","targets/31.png","direct","",""
"","image-slider-response","109","566224","0.0-8.0-0.19","4wn7ob94sy","many_one","0","direct_first","1","iß06en04","0","21","1","1","3","1","2750","","","","","neg","CS","CS","3","category3/CS3.png","-25","targets/26.png","direct","",""
"","image-slider-response","110","571247","0.0-8.0-0.20","4wn7ob94sy","many_one","0","direct_first","1","iß06en04","0","21","1","1","3","1","5022","","","","","neg","GS","GSold","2","category2/CS3.png","-19","targets/2.png","direct","",""
"","image-slider-response","111","574655","0.0-8.0-0.21","4wn7ob94sy","many_one","0","direct_first","1","iß06en04","0","21","1","1","3","1","3408","","","","","neg","GS","GSold","2","category2/CS2.png","-8","targets/9.png","direct","",""
"","image-slider-response","112","577263","0.0-8.0-0.22","4wn7ob94sy","many_one","0","direct_first","1","iß06en04","0","21","1","1","3","1","2607","","","","","neg","GS","GSold","3","category3/CS8.png","-28","targets/20.png","direct","",""
"","image-slider-response","113","580127","0.0-8.0-0.23","4wn7ob94sy","many_one","0","direct_first","1","iß06en04","0","21","1","1","3","1","2862","","","","","neg","GS","GSnew","2","category2/GS3.png","27","targets/4.png","direct","",""
"","image-slider-response","114","583232","0.0-8.0-0.24","4wn7ob94sy","many_one","0","direct_first","1","iß06en04","0","21","1","1","3","1","3103","","","","","neg","CS","CS","2","category2/CS8.png","-20","targets/35.png","direct","",""
"","image-slider-response","115","590728","0.0-8.0-0.25","4wn7ob94sy","many_one","0","direct_first","1","iß06en04","0","21","1","1","3","1","7495","","","","","neg","CS","CS","2","category2/CS6.png","-89","targets/15.png","direct","",""
"","image-slider-response","116","596472","0.0-8.0-0.26","4wn7ob94sy","many_one","0","direct_first","1","iß06en04","0","21","1","1","3","1","5745","","","","","pos","GS","GSnew","4","category4/GS2.png","-8","targets/7.png","direct","",""
"","image-slider-response","117","601055","0.0-8.0-0.27","4wn7ob94sy","many_one","0","direct_first","1","iß06en04","0","21","1","1","3","1","4581","","","","","pos","CS","CS","4","category4/CS8.png","34","targets/10.png","direct","",""
"","image-slider-response","118","608863","0.0-8.0-0.28","4wn7ob94sy","many_one","0","direct_first","1","iß06en04","0","21","1","1","3","1","7807","","","","","pos","CS","CS","4","category4/CS4.png","92","targets/37.png","direct","",""
"","image-slider-response","119","611351","0.0-8.0-0.29","4wn7ob94sy","many_one","0","direct_first","1","iß06en04","0","21","1","1","3","1","2487","","","","","pos","GS","abstract","4","category4/lin.png","83","targets/36.png","direct","",""
"","image-slider-response","120","614447","0.0-8.0-0.30","4wn7ob94sy","many_one","0","direct_first","1","iß06en04","0","21","1","1","3","1","3096","","","","","neg","GS","GSold","2","category2/CS9.png","-31","targets/44.png","direct","",""
"","image-slider-response","121","617663","0.0-8.0-0.31","4wn7ob94sy","many_one","0","direct_first","1","iß06en04","0","21","1","1","3","1","3215","","","","","pos","CS","CS","1","category1/CS10.png","100","targets/12.png","direct","",""
"","image-slider-response","122","622671","0.0-8.0-0.32","4wn7ob94sy","many_one","0","direct_first","1","iß06en04","0","21","1","1","3","1","5006","","","","","pos","GS","GSnew","1","category1/GS1.png","32","targets/45.png","direct","",""
"","image-slider-response","123","625983","0.0-8.0-0.33","4wn7ob94sy","many_one","0","direct_first","1","iß06en04","0","21","1","1","3","1","3311","","","","","pos","CS","CS","4","category4/CS1.png","96","targets/27.png","direct","",""
"","image-slider-response","124","628919","0.0-8.0-0.34","4wn7ob94sy","many_one","0","direct_first","1","iß06en04","0","21","1","1","3","1","2935","","","","","pos","GS","GSold","4","category4/CS10.png","66","targets/32.png","direct","",""
"","image-slider-response","125","632790","0.0-8.0-0.35","4wn7ob94sy","many_one","0","direct_first","1","iß06en04","0","21","1","1","3","1","3870","","","","","pos","GS","GSold","4","category4/CS2.png","48","targets/17.png","direct","",""
"","image-slider-response","126","635503","0.0-8.0-0.36","4wn7ob94sy","many_one","0","direct_first","1","iß06en04","0","21","1","1","3","1","2711","","","","","pos","CS","CS","1","category1/CS6.png","15","targets/16.png","direct","",""
"","image-slider-response","127","639808","0.0-8.0-0.37","4wn7ob94sy","many_one","0","direct_first","1","iß06en04","0","21","1","1","3","1","4304","","","","","pos","GS","GSnew","4","category4/GS1.png","20","targets/8.png","direct","",""
"","image-slider-response","128","642295","0.0-8.0-0.38","4wn7ob94sy","many_one","0","direct_first","1","iß06en04","0","21","1","1","3","1","2487","","","","","neg","CS","CS","3","category3/CS10.png","-43","targets/47.png","direct","",""
"","image-slider-response","129","647607","0.0-8.0-0.39","4wn7ob94sy","many_one","0","direct_first","1","iß06en04","0","21","1","1","3","1","5310","","","","","pos","CS","CS","1","category1/CS4.png","10","targets/34.png","direct","",""
"","image-slider-response","130","649911","0.0-8.0-0.40","4wn7ob94sy","many_one","0","direct_first","1","iß06en04","0","21","1","1","3","1","2303","","","","","pos","CS","CS","1","category1/CS3.png","8","targets/13.png","direct","",""
"","image-slider-response","131","652647","0.0-8.0-0.41","4wn7ob94sy","many_one","0","direct_first","1","iß06en04","0","21","1","1","3","1","2734","","","","","neg","CS","CS","3","category3/CS1.png","-74","targets/23.png","direct","",""
"","image-slider-response","132","655327","0.0-8.0-0.42","4wn7ob94sy","many_one","0","direct_first","1","iß06en04","0","21","1","1","3","1","2678","","","","","pos","GS","GSold","4","category4/CS7.png","22","targets/39.png","direct","",""
"","image-slider-response","133","659143","0.0-8.0-0.43","4wn7ob94sy","many_one","0","direct_first","1","iß06en04","0","21","1","1","3","1","3814","","","","","pos","GS","GSnew","1","category1/GS3.png","15","targets/11.png","direct","",""
"","image-slider-response","134","661847","0.0-8.0-0.44","4wn7ob94sy","many_one","0","direct_first","1","iß06en04","0","21","1","1","3","1","2702","","","","","pos","GS","abstract","1","category1/ma.png","21","targets/18.png","direct","",""
"","image-slider-response","135","664071","0.0-8.0-0.45","4wn7ob94sy","many_one","0","direct_first","1","iß06en04","0","21","1","1","3","1","2223","","","","","pos","CS","CS","4","category4/CS5.png","13","targets/38.png","direct","",""
"","image-slider-response","136","666430","0.0-8.0-0.46","4wn7ob94sy","many_one","0","direct_first","1","iß06en04","0","21","1","1","3","1","2359","","","","","pos","CS","CS","4","category4/CS6.png","25","targets/48.png","direct","",""
"","image-slider-response","137","670823","0.0-8.0-0.47","4wn7ob94sy","many_one","0","direct_first","1","iß06en04","0","21","1","1","3","1","4391","","","","","pos","GS","GSold","1","category1/CS7.png","5","targets/29.png","direct","",""
"","html-keyboard-response","138","719639","0.0-9.0","4wn7ob94sy","many_one","0","direct_first","1","iß06en04","0","21","1","1","3","1","48815","","","<p>Sie sehen nun die chinesischen Zeichen nur ganz kurz. Danach sehen Sie die jeweilige Aussprache der Zeichen als Silbe auf dem Bildschrim. Ihre Aufgabe ist es, für jede Silbe anzugeben, ob diese etwas angenehmes, oder unangenehmes bedeuten könnte. Verlassen Sie sich hier vor allem auf Ihre Intuition.<br><br>Die Zeichen werden nur zur Orientierung dargestellt, beachten Sie sie deshalb nicht. Konzentrieren Sie sich vor allem auf die Silben. <br>Reagieren Sie mit folgenden zwei Tasten: <br><br><b>'D' </b> wenn die Silbe etwas <b>unangenehmes</b> bedeuten könnte. <br><b>'K'</b> wenn die Silbe etwas <b>angenehmes</b> bedeuten könnte. <br><br>Bitte legen Sie nun den Zeigefinger der linken Hand auf die Taste 'D' und den Zeigefinger der rechten Hand auf die Taste 'K'. <br>Reagieren Sie auf jede Silbe so schnell wie möglich. Uns interessiert Ihre spontane Reaktion. <br> <br> <br>Drücken Sie 'D' oder 'K', um die nächste Aufgabe zu starten. </p>","75","","","","","","","","","",""
"","html-keyboard-response","139","722663","0.0-10.0-0.0","4wn7ob94sy","many_one","0","direct_first","1","iß06en04","0","21","1","1","3","1","null","","","<div style=""font-size:60px;"">+</div>","null","","","","","","","","","",""
"","html-keyboard-response","140","722763","0.0-10.0-1.0","4wn7ob94sy","many_one","0","direct_first","1","iß06en04","0","21","1","1","3","1","null","","","<img src = 'category1/CS3.png' width = '100%;'>","null","","","","","","","","","",""
"","html-keyboard-response","141","723043","0.0-10.0-2.0","4wn7ob94sy","many_one","0","direct_first","1","iß06en04","0","21","1","1","3","1","null","","","<img src = 'targets/13.png' width = '100%;'>","null","","","","","","","","","",""
"","html-keyboard-response","142","725120","0.0-10.0-3.0","4wn7ob94sy","many_one","0","direct_first","1","iß06en04","0","21","1","1","3","1","2073","","","<img src = 'targets/mask.png' width = '100%;'>","68","pos","CS","CS","1","category1/CS3.png","","targets/13.png","indirect","0","0"
"","html-keyboard-response","143","726643","0.0-10.0-0.1","4wn7ob94sy","many_one","0","direct_first","1","iß06en04","0","21","1","1","3","1","null","","","<div style=""font-size:60px;"">+</div>","null","","","","","","","","","",""
"","html-keyboard-response","144","726743","0.0-10.0-1.1","4wn7ob94sy","many_one","0","direct_first","1","iß06en04","0","21","1","1","3","1","null","","","<img src = 'category3/CS2.png' width = '100%;'>","null","","","","","","","","","",""
"","html-keyboard-response","145","727023","0.0-10.0-2.1","4wn7ob94sy","many_one","0","direct_first","1","iß06en04","0","21","1","1","3","1","null","","","<img src = 'targets/25.png' width = '100%;'>","null","","","","","","","","","",""
"","html-keyboard-response","146","727983","0.0-10.0-3.1","4wn7ob94sy","many_one","0","direct_first","1","iß06en04","0","21","1","1","3","1","958","","","<img src = 'targets/mask.png' width = '100%;'>","68","neg","CS","CS","3","category3/CS2.png","","targets/25.png","indirect","0","1"
"","html-keyboard-response","147","729523","0.0-10.0-0.2","4wn7ob94sy","many_one","0","direct_first","1","iß06en04","0","21","1","1","3","1","null","","","<div style=""font-size:60px;"">+</div>","null","","","","","","","","","",""
"","html-keyboard-response","148","729624","0.0-10.0-1.2","4wn7ob94sy","many_one","0","direct_first","1","iß06en04","0","21","1","1","3","1","null","","","<img src = 'category2/CS2.png' width = '100%;'>","null","","","","","","","","","",""
"","html-keyboard-response","149","729903","0.0-10.0-2.2","4wn7ob94sy","many_one","0","direct_first","1","iß06en04","0","21","1","1","3","1","null","","","<img src = 'targets/9.png' width = '100%;'>","null","","","","","","","","","",""
"","html-keyboard-response","150","730767","0.0-10.0-3.2","4wn7ob94sy","many_one","0","direct_first","1","iß06en04","0","21","1","1","3","1","863","","","<img src = 'targets/mask.png' width = '100%;'>","75","neg","GS","GSold","2","category2/CS2.png","","targets/9.png","indirect","1","2"
"","html-keyboard-response","151","732293","0.0-10.0-0.3","4wn7ob94sy","many_one","0","direct_first","1","iß06en04","0","21","1","1","3","1","null","","","<div style=""font-size:60px;"">+</div>","null","","","","","","","","","",""
"","html-keyboard-response","152","732394","0.0-10.0-1.3","4wn7ob94sy","many_one","0","direct_first","1","iß06en04","0","21","1","1","3","1","null","","","<img src = 'category3/CS10.png' width = '100%;'>","null","","","","","","","","","",""
"","html-keyboard-response","153","732674","0.0-10.0-2.3","4wn7ob94sy","many_one","0","direct_first","1","iß06en04","0","21","1","1","3","1","null","","","<img src = 'targets/47.png' width = '100%;'>","null","","","","","","","","","",""
"","html-keyboard-response","154","734576","0.0-10.0-3.3","4wn7ob94sy","many_one","0","direct_first","1","iß06en04","0","21","1","1","3","1","1900","","","<img src = 'targets/mask.png' width = '100%;'>","75","neg","CS","CS","3","category3/CS10.png","","targets/47.png","indirect","1","3"
"","html-keyboard-response","155","736113","0.0-10.0-0.4","4wn7ob94sy","many_one","0","direct_first","1","iß06en04","0","21","1","1","3","1","null","","","<div style=""font-size:60px;"">+</div>","null","","","","","","","","","",""
"","html-keyboard-response","156","736214","0.0-10.0-1.4","4wn7ob94sy","many_one","0","direct_first","1","iß06en04","0","21","1","1","3","1","null","","","<img src = 'category2/CS5.png' width = '100%;'>","null","","","","","","","","","",""
"","html-keyboard-response","157","736494","0.0-10.0-2.4","4wn7ob94sy","many_one","0","direct_first","1","iß06en04","0","21","1","1","3","1","null","","","<img src = 'targets/21.png' width = '100%;'>","null","","","","","","","","","",""
"","html-keyboard-response","158","737624","0.0-10.0-3.4","4wn7ob94sy","many_one","0","direct_first","1","iß06en04","0","21","1","1","3","1","1128","","","<img src = 'targets/mask.png' width = '100%;'>","68","neg","CS","CS","2","category2/CS5.png","","targets/21.png","indirect","0","4"
"","html-keyboard-response","159","739153","0.0-10.0-0.5","4wn7ob94sy","many_one","0","direct_first","1","iß06en04","0","21","1","1","3","1","null","","","<div style=""font-size:60px;"">+</div>","null","","","","","","","","","",""
"","html-keyboard-response","160","739254","0.0-10.0-1.5","4wn7ob94sy","many_one","0","direct_first","1","iß06en04","0","21","1","1","3","1","null","","","<img src = 'category3/CS9.png' width = '100%;'>","null","","","","","","","","","",""
"","html-keyboard-response","161","739533","0.0-10.0-2.5","4wn7ob94sy","many_one","0","direct_first","1","iß06en04","0","21","1","1","3","1","null","","","<img src = 'targets/1.png' width = '100%;'>","null","","","","","","","","","",""
"","html-keyboard-response","162","740991","0.0-10.0-3.5","4wn7ob94sy","many_one","0","direct_first","1","iß06en04","0","21","1","1","3","1","1456","","","<img src = 'targets/mask.png' width = '100%;'>","75","neg","CS","CS","3","category3/CS9.png","","targets/1.png","indirect","1","5"
"","html-keyboard-response","163","742513","0.0-10.0-0.6","4wn7ob94sy","many_one","0","direct_first","1","iß06en04","0","21","1","1","3","1","null","","","<div style=""font-size:60px;"">+</div>","null","","","","","","","","","",""
"","html-keyboard-response","164","742613","0.0-10.0-1.6","4wn7ob94sy","many_one","0","direct_first","1","iß06en04","0","21","1","1","3","1","null","","","<img src = 'category2/CS7.png' width = '100%;'>","null","","","","","","","","","",""
"","html-keyboard-response","165","742894","0.0-10.0-2.6","4wn7ob94sy","many_one","0","direct_first","1","iß06en04","0","21","1","1","3","1","null","","","<img src = 'targets/30.png' width = '100%;'>","null","","","","","","","","","",""
"","html-keyboard-response","166","743838","0.0-10.0-3.6","4wn7ob94sy","many_one","0","direct_first","1","iß06en04","0","21","1","1","3","1","943","","","<img src = 'targets/mask.png' width = '100%;'>","68","neg","CS","CS","2","category2/CS7.png","","targets/30.png","indirect","0","6"
"","html-keyboard-response","167","745353","0.0-10.0-0.7","4wn7ob94sy","many_one","0","direct_first","1","iß06en04","0","21","1","1","3","1","null","","","<div style=""font-size:60px;"">+</div>","null","","","","","","","","","",""
"","html-keyboard-response","168","745445","0.0-10.0-1.7","4wn7ob94sy","many_one","0","direct_first","1","iß06en04","0","21","1","1","3","1","null","","","<img src = 'category1/CS10.png' width = '100%;'>","null","","","","","","","","","",""
"","html-keyboard-response","169","745697","0.0-10.0-2.7","4wn7ob94sy","many_one","0","direct_first","1","iß06en04","0","21","1","1","3","1","null","","","<img src = 'targets/12.png' width = '100%;'>","null","","","","","","","","","",""
"","html-keyboard-response","170","746686","0.0-10.0-3.7","4wn7ob94sy","many_one","0","direct_first","1","iß06en04","0","21","1","1","3","1","989","","","<img src = 'targets/mask.png' width = '100%;'>","75","pos","CS","CS","1","category1/CS10.png","","targets/12.png","indirect","1","7"
"","html-keyboard-response","171","748203","0.0-10.0-0.8","4wn7ob94sy","many_one","0","direct_first","1","iß06en04","0","21","1","1","3","1","null","","","<div style=""font-size:60px;"">+</div>","null","","","","","","","","","",""
"","html-keyboard-response","172","748303","0.0-10.0-1.8","4wn7ob94sy","many_one","0","direct_first","1","iß06en04","0","21","1","1","3","1","null","","","<img src = 'category4/CS8.png' width = '100%;'>","null","","","","","","","","","",""
"","html-keyboard-response","173","748583","0.0-10.0-2.8","4wn7ob94sy","many_one","0","direct_first","1","iß06en04","0","21","1","1","3","1","null","","","<img src = 'targets/10.png' width = '100%;'>","null","","","","","","","","","",""
"","html-keyboard-response","174","750006","0.0-10.0-3.8","4wn7ob94sy","many_one","0","direct_first","1","iß06en04","0","21","1","1","3","1","1422","","","<img src = 'targets/mask.png' width = '100%;'>","75","pos","CS","CS","4","category4/CS8.png","","targets/10.png","indirect","1","8"
"","html-keyboard-response","175","751540","0.0-10.0-0.9","4wn7ob94sy","many_one","0","direct_first","1","iß06en04","0","21","1","1","3","1","null","","","<div style=""font-size:60px;"">+</div>","null","","","","","","","","","",""
"","html-keyboard-response","176","751639","0.0-10.0-1.9","4wn7ob94sy","many_one","0","direct_first","1","iß06en04","0","21","1","1","3","1","null","","","<img src = 'category1/CS8.png' width = '100%;'>","null","","","","","","","","","",""
"","html-keyboard-response","177","751923","0.0-10.0-2.9","4wn7ob94sy","many_one","0","direct_first","1","iß06en04","0","21","1","1","3","1","null","","","<img src = 'targets/5.png' width = '100%;'>","null","","","","","","","","","",""
"","html-keyboard-response","178","754639","0.0-10.0-3.9","4wn7ob94sy","many_one","0","direct_first","1","iß06en04","0","21","1","1","3","1","2715","","","<img src = 'targets/mask.png' width = '100%;'>","68","pos","CS","CS","1","category1/CS8.png","","targets/5.png","indirect","0","9"
"","html-keyboard-response","179","756163","0.0-10.0-0.10","4wn7ob94sy","many_one","0","direct_first","1","iß06en04","0","21","1","1","3","1","null","","","<div style=""font-size:60px;"">+</div>","null","","","","","","","","","",""
"","html-keyboard-response","180","756263","0.0-10.0-1.10","4wn7ob94sy","many_one","0","direct_first","1","iß06en04","0","21","1","1","3","1","null","","","<img src = 'category4/CS1.png' width = '100%;'>","null","","","","","","","","","",""
"","html-keyboard-response","181","756543","0.0-10.0-2.10","4wn7ob94sy","many_one","0","direct_first","1","iß06en04","0","21","1","1","3","1","null","","","<img src = 'targets/27.png' width = '100%;'>","null","","","","","","","","","",""
"","html-keyboard-response","182","757279","0.0-10.0-3.10","4wn7ob94sy","many_one","0","direct_first","1","iß06en04","0","21","1","1","3","1","735","","","<img src = 'targets/mask.png' width = '100%;'>","75","pos","CS","CS","4","category4/CS1.png","","targets/27.png","indirect","1","10"
"","html-keyboard-response","183","758803","0.0-10.0-0.11","4wn7ob94sy","many_one","0","direct_first","1","iß06en04","0","21","1","1","3","1","null","","","<div style=""font-size:60px;"">+</div>","null","","","","","","","","","",""
"","html-keyboard-response","184","758903","0.0-10.0-1.11","4wn7ob94sy","many_one","0","direct_first","1","iß06en04","0","21","1","1","3","1","null","","","<img src = 'category4/CS6.png' width = '100%;'>","null","","","","","","","","","",""
"","html-keyboard-response","185","759183","0.0-10.0-2.11","4wn7ob94sy","many_one","0","direct_first","1","iß06en04","0","21","1","1","3","1","null","","","<img src = 'targets/48.png' width = '100%;'>","null","","","","","","","","","",""
"","html-keyboard-response","186","760087","0.0-10.0-3.11","4wn7ob94sy","many_one","0","direct_first","1","iß06en04","0","21","1","1","3","1","903","","","<img src = 'targets/mask.png' width = '100%;'>","75","pos","CS","CS","4","category4/CS6.png","","targets/48.png","indirect","1","11"
"","html-keyboard-response","187","761614","0.0-10.0-0.12","4wn7ob94sy","many_one","0","direct_first","1","iß06en04","0","21","1","1","3","1","null","","","<div style=""font-size:60px;"">+</div>","null","","","","","","","","","",""
"","html-keyboard-response","188","761713","0.0-10.0-1.12","4wn7ob94sy","many_one","0","direct_first","1","iß06en04","0","21","1","1","3","1","null","","","<img src = 'category3/CS3.png' width = '100%;'>","null","","","","","","","","","",""
"","html-keyboard-response","189","761994","0.0-10.0-2.12","4wn7ob94sy","many_one","0","direct_first","1","iß06en04","0","21","1","1","3","1","null","","","<img src = 'targets/26.png' width = '100%;'>","null","","","","","","","","","",""
"","html-keyboard-response","190","762960","0.0-10.0-3.12","4wn7ob94sy","many_one","0","direct_first","1","iß06en04","0","21","1","1","3","1","965","","","<img src = 'targets/mask.png' width = '100%;'>","68","neg","CS","CS","3","category3/CS3.png","","targets/26.png","indirect","0","12"
"","html-keyboard-response","191","764493","0.0-10.0-0.13","4wn7ob94sy","many_one","0","direct_first","1","iß06en04","0","21","1","1","3","1","null","","","<div style=""font-size:60px;"">+</div>","null","","","","","","","","","",""
"","html-keyboard-response","192","764592","0.0-10.0-1.13","4wn7ob94sy","many_one","0","direct_first","1","iß06en04","0","21","1","1","3","1","null","","","<img src = 'category2/CS6.png' width = '100%;'>","null","","","","","","","","","",""
"","html-keyboard-response","193","764869","0.0-10.0-2.13","4wn7ob94sy","many_one","0","direct_first","1","iß06en04","0","21","1","1","3","1","null","","","<img src = 'targets/15.png' width = '100%;'>","null","","","","","","","","","",""
"","html-keyboard-response","194","765879","0.0-10.0-3.13","4wn7ob94sy","many_one","0","direct_first","1","iß06en04","0","21","1","1","3","1","1010","","","<img src = 'targets/mask.png' width = '100%;'>","75","neg","CS","CS","2","category2/CS6.png","","targets/15.png","indirect","1","13"
"","html-keyboard-response","195","767413","0.0-10.0-0.14","4wn7ob94sy","many_one","0","direct_first","1","iß06en04","0","21","1","1","3","1","null","","","<div style=""font-size:60px;"">+</div>","null","","","","","","","","","",""
"","html-keyboard-response","196","767513","0.0-10.0-1.14","4wn7ob94sy","many_one","0","direct_first","1","iß06en04","0","21","1","1","3","1","null","","","<img src = 'category3/CS1.png' width = '100%;'>","null","","","","","","","","","",""
"","html-keyboard-response","197","767793","0.0-10.0-2.14","4wn7ob94sy","many_one","0","direct_first","1","iß06en04","0","21","1","1","3","1","null","","","<img src = 'targets/23.png' width = '100%;'>","null","","","","","","","","","",""
"","html-keyboard-response","198","769703","0.0-10.0-3.14","4wn7ob94sy","many_one","0","direct_first","1","iß06en04","0","21","1","1","3","1","1908","","","<img src = 'targets/mask.png' width = '100%;'>","68","neg","CS","CS","3","category3/CS1.png","","targets/23.png","indirect","0","14"
"","html-keyboard-response","199","771232","0.0-10.0-0.15","4wn7ob94sy","many_one","0","direct_first","1","iß06en04","0","21","1","1","3","1","null","","","<div style=""font-size:60px;"">+</div>","null","","","","","","","","","",""
"","html-keyboard-response","200","771333","0.0-10.0-1.15","4wn7ob94sy","many_one","0","direct_first","1","iß06en04","0","21","1","1","3","1","null","","","<img src = 'category1/CS6.png' width = '100%;'>","null","","","","","","","","","",""
"","html-keyboard-response","201","771613","0.0-10.0-2.15","4wn7ob94sy","many_one","0","direct_first","1","iß06en04","0","21","1","1","3","1","null","","","<img src = 'targets/16.png' width = '100%;'>","null","","","","","","","","","",""
"","html-keyboard-response","202","773383","0.0-10.0-3.15","4wn7ob94sy","many_one","0","direct_first","1","iß06en04","0","21","1","1","3","1","1768","","","<img src = 'targets/mask.png' width = '100%;'>","75","pos","CS","CS","1","category1/CS6.png","","targets/16.png","indirect","1","15"
"","html-keyboard-response","203","774923","0.0-10.0-0.16","4wn7ob94sy","many_one","0","direct_first","1","iß06en04","0","21","1","1","3","1","null","","","<div style=""font-size:60px;"">+</div>","null","","","","","","","","","",""
"","html-keyboard-response","204","775023","0.0-10.0-1.16","4wn7ob94sy","many_one","0","direct_first","1","iß06en04","0","21","1","1","3","1","null","","","<img src = 'category4/CS4.png' width = '100%;'>","null","","","","","","","","","",""
"","html-keyboard-response","205","775303","0.0-10.0-2.16","4wn7ob94sy","many_one","0","direct_first","1","iß06en04","0","21","1","1","3","1","null","","","<img src = 'targets/37.png' width = '100%;'>","null","","","","","","","","","",""
"","html-keyboard-response","206","776070","0.0-10.0-3.16","4wn7ob94sy","many_one","0","direct_first","1","iß06en04","0","21","1","1","3","1","767","","","<img src = 'targets/mask.png' width = '100%;'>","75","pos","CS","CS","4","category4/CS4.png","","targets/37.png","indirect","1","16"
"","html-keyboard-response","207","777599","0.0-10.0-0.17","4wn7ob94sy","many_one","0","direct_first","1","iß06en04","0","21","1","1","3","1","null","","","<div style=""font-size:60px;"">+</div>","null","","","","","","","","","",""
"","html-keyboard-response","208","777700","0.0-10.0-1.17","4wn7ob94sy","many_one","0","direct_first","1","iß06en04","0","21","1","1","3","1","null","","","<img src = 'category2/CS8.png' width = '100%;'>","null","","","","","","","","","",""
"","html-keyboard-response","209","777983","0.0-10.0-2.17","4wn7ob94sy","many_one","0","direct_first","1","iß06en04","0","21","1","1","3","1","null","","","<img src = 'targets/35.png' width = '100%;'>","null","","","","","","","","","",""
"","html-keyboard-response","210","778711","0.0-10.0-3.17","4wn7ob94sy","many_one","0","direct_first","1","iß06en04","0","21","1","1","3","1","727","","","<img src = 'targets/mask.png' width = '100%;'>","75","neg","CS","CS","2","category2/CS8.png","","targets/35.png","indirect","1","17"
"","html-keyboard-response","211","780243","0.0-10.0-0.18","4wn7ob94sy","many_one","0","direct_first","1","iß06en04","0","21","1","1","3","1","null","","","<div style=""font-size:60px;"">+</div>","null","","","","","","","","","",""
"","html-keyboard-response","212","780343","0.0-10.0-1.18","4wn7ob94sy","many_one","0","direct_first","1","iß06en04","0","21","1","1","3","1","null","","","<img src = 'category4/CS7.png' width = '100%;'>","null","","","","","","","","","",""
"","html-keyboard-response","213","780623","0.0-10.0-2.18","4wn7ob94sy","many_one","0","direct_first","1","iß06en04","0","21","1","1","3","1","null","","","<img src = 'targets/39.png' width = '100%;'>","null","","","","","","","","","",""
"","html-keyboard-response","214","781382","0.0-10.0-3.18","4wn7ob94sy","many_one","0","direct_first","1","iß06en04","0","21","1","1","3","1","760","","","<img src = 'targets/mask.png' width = '100%;'>","75","pos","GS","GSold","4","category4/CS7.png","","targets/39.png","indirect","1","18"
"","html-keyboard-response","215","782923","0.0-10.0-0.19","4wn7ob94sy","many_one","0","direct_first","1","iß06en04","0","21","1","1","3","1","null","","","<div style=""font-size:60px;"">+</div>","null","","","","","","","","","",""
"","html-keyboard-response","216","783023","0.0-10.0-1.19","4wn7ob94sy","many_one","0","direct_first","1","iß06en04","0","21","1","1","3","1","null","","","<img src = 'category2/CS3.png' width = '100%;'>","null","","","","","","","","","",""
"","html-keyboard-response","217","783303","0.0-10.0-2.19","4wn7ob94sy","many_one","0","direct_first","1","iß06en04","0","21","1","1","3","1","null","","","<img src = 'targets/2.png' width = '100%;'>","null","","","","","","","","","",""
"","html-keyboard-response","218","787831","0.0-10.0-3.19","4wn7ob94sy","many_one","0","direct_first","1","iß06en04","0","21","1","1","3","1","4526","","","<img src = 'targets/mask.png' width = '100%;'>","75","neg","GS","GSold","2","category2/CS3.png","","targets/2.png","indirect","1","19"
"","html-keyboard-response","219","789363","0.0-10.0-0.20","4wn7ob94sy","many_one","0","direct_first","1","iß06en04","0","21","1","1","3","1","null","","","<div style=""font-size:60px;"">+</div>","null","","","","","","","","","",""
"","html-keyboard-response","220","789463","0.0-10.0-1.20","4wn7ob94sy","many_one","0","direct_first","1","iß06en04","0","21","1","1","3","1","null","","","<img src = 'category2/CS9.png' width = '100%;'>","null","","","","","","","","","",""
"","html-keyboard-response","221","789743","0.0-10.0-2.20","4wn7ob94sy","many_one","0","direct_first","1","iß06en04","0","21","1","1","3","1","null","","","<img src = 'targets/44.png' width = '100%;'>","null","","","","","","","","","",""
"","html-keyboard-response","222","791143","0.0-10.0-3.20","4wn7ob94sy","many_one","0","direct_first","1","iß06en04","0","21","1","1","3","1","1398","","","<img src = 'targets/mask.png' width = '100%;'>","75","neg","GS","GSold","2","category2/CS9.png","","targets/44.png","indirect","1","20"
"","html-keyboard-response","223","792683","0.0-10.0-0.21","4wn7ob94sy","many_one","0","direct_first","1","iß06en04","0","21","1","1","3","1","null","","","<div style=""font-size:60px;"">+</div>","null","","","","","","","","","",""
"","html-keyboard-response","224","792783","0.0-10.0-1.21","4wn7ob94sy","many_one","0","direct_first","1","iß06en04","0","21","1","1","3","1","null","","","<img src = 'category2/CS1.png' width = '100%;'>","null","","","","","","","","","",""
"","html-keyboard-response","225","793063","0.0-10.0-2.21","4wn7ob94sy","many_one","0","direct_first","1","iß06en04","0","21","1","1","3","1","null","","","<img src = 'targets/41.png' width = '100%;'>","null","","","","","","","","","",""
"","html-keyboard-response","226","794991","0.0-10.0-3.21","4wn7ob94sy","many_one","0","direct_first","1","iß06en04","0","21","1","1","3","1","1926","","","<img src = 'targets/mask.png' width = '100%;'>","68","neg","CS","CS","2","category2/CS1.png","","targets/41.png","indirect","0","21"
"","html-keyboard-response","227","796523","0.0-10.0-0.22","4wn7ob94sy","many_one","0","direct_first","1","iß06en04","0","21","1","1","3","1","null","","","<div style=""font-size:60px;"">+</div>","null","","","","","","","","","",""
"","html-keyboard-response","228","796623","0.0-10.0-1.22","4wn7ob94sy","many_one","0","direct_first","1","iß06en04","0","21","1","1","3","1","null","","","<img src = 'category4/CS5.png' width = '100%;'>","null","","","","","","","","","",""
"","html-keyboard-response","229","796903","0.0-10.0-2.22","4wn7ob94sy","many_one","0","direct_first","1","iß06en04","0","21","1","1","3","1","null","","","<img src = 'targets/38.png' width = '100%;'>","null","","","","","","","","","",""
"","html-keyboard-response","230","797511","0.0-10.0-3.22","4wn7ob94sy","many_one","0","direct_first","1","iß06en04","0","21","1","1","3","1","606","","","<img src = 'targets/mask.png' width = '100%;'>","75","pos","CS","CS","4","category4/CS5.png","","targets/38.png","indirect","1","22"
"","html-keyboard-response","231","799023","0.0-10.0-0.23","4wn7ob94sy","many_one","0","direct_first","1","iß06en04","0","21","1","1","3","1","null","","","<div style=""font-size:60px;"">+</div>","null","","","","","","","","","",""
"","html-keyboard-response","232","799123","0.0-10.0-1.23","4wn7ob94sy","many_one","0","direct_first","1","iß06en04","0","21","1","1","3","1","null","","","<img src = 'category1/CS4.png' width = '100%;'>","null","","","","","","","","","",""
"","html-keyboard-response","233","799403","0.0-10.0-2.23","4wn7ob94sy","many_one","0","direct_first","1","iß06en04","0","21","1","1","3","1","null","","","<img src = 'targets/34.png' width = '100%;'>","null","","","","","","","","","",""
"","html-keyboard-response","234","800799","0.0-10.0-3.23","4wn7ob94sy","many_one","0","direct_first","1","iß06en04","0","21","1","1","3","1","1394","","","<img src = 'targets/mask.png' width = '100%;'>","68","pos","CS","CS","1","category1/CS4.png","","targets/34.png","indirect","0","23"
"","survey-html-form","235","804000","0.0-11.0","4wn7ob94sy","many_one","0","direct_first","1","iß06en04","0","21","1","1","3","1","2697","","{}","","","","","","","","","","","",""
"","html-keyboard-response","236","807004","0.0-12.0-0.0","4wn7ob94sy","many_one","0","direct_first","1","iß06en04","0","21","1","1","3","1","null","","","<div style=""font-size:60px;"">+</div>","null","","","","","","","","","",""
"","html-keyboard-response","237","807097","0.0-12.0-1.0","4wn7ob94sy","many_one","0","direct_first","1","iß06en04","0","21","1","1","3","1","null","","","<img src = 'category2/GS1.png' width = '100%;'>","null","","","","","","","","","",""
"","html-keyboard-response","238","807363","0.0-12.0-2.0","4wn7ob94sy","many_one","0","direct_first","1","iß06en04","0","21","1","1","3","1","null","","","<img src = 'targets/43.png' width = '100%;'>","null","","","","","","","","","",""
"","html-keyboard-response","239","808614","0.0-12.0-3.0","4wn7ob94sy","many_one","0","direct_first","1","iß06en04","0","21","1","1","3","1","1249","","","<img src = 'targets/mask.png' width = '100%;'>","68","neg","GS","GSnew","2","category2/GS1.png","","targets/43.png","indirect","0","24"
"","html-keyboard-response","240","810123","0.0-12.0-0.1","4wn7ob94sy","many_one","0","direct_first","1","iß06en04","0","21","1","1","3","1","null","","","<div style=""font-size:60px;"">+</div>","null","","","","","","","","","",""
"","html-keyboard-response","241","810223","0.0-12.0-1.1","4wn7ob94sy","many_one","0","direct_first","1","iß06en04","0","21","1","1","3","1","null","","","<img src = 'category2/men.png' width = '100%;'>","null","","","","","","","","","",""
"","html-keyboard-response","242","810503","0.0-12.0-2.1","4wn7ob94sy","many_one","0","direct_first","1","iß06en04","0","21","1","1","3","1","null","","","<img src = 'targets/40.png' width = '100%;'>","null","","","","","","","","","",""
"","html-keyboard-response","243","811215","0.0-12.0-3.1","4wn7ob94sy","many_one","0","direct_first","1","iß06en04","0","21","1","1","3","1","710","","","<img src = 'targets/mask.png' width = '100%;'>","68","neg","GS","abstract","2","category2/men.png","","targets/40.png","indirect","0","25"
"","html-keyboard-response","244","812733","0.0-12.0-0.2","4wn7ob94sy","many_one","0","direct_first","1","iß06en04","0","21","1","1","3","1","null","","","<div style=""font-size:60px;"">+</div>","null","","","","","","","","","",""
"","html-keyboard-response","245","812833","0.0-12.0-1.2","4wn7ob94sy","many_one","0","direct_first","1","iß06en04","0","21","1","1","3","1","null","","","<img src = 'category4/GS3.png' width = '100%;'>","null","","","","","","","","","",""
"","html-keyboard-response","246","813113","0.0-12.0-2.2","4wn7ob94sy","many_one","0","direct_first","1","iß06en04","0","21","1","1","3","1","null","","","<img src = 'targets/14.png' width = '100%;'>","null","","","","","","","","","",""
"","html-keyboard-response","247","813871","0.0-12.0-3.2","4wn7ob94sy","many_one","0","direct_first","1","iß06en04","0","21","1","1","3","1","756","","","<img src = 'targets/mask.png' width = '100%;'>","75","pos","GS","GSnew","4","category4/GS3.png","","targets/14.png","indirect","1","26"
"","html-keyboard-response","248","815393","0.0-12.0-0.3","4wn7ob94sy","many_one","0","direct_first","1","iß06en04","0","21","1","1","3","1","null","","","<div style=""font-size:60px;"">+</div>","null","","","","","","","","","",""
"","html-keyboard-response","249","815493","0.0-12.0-1.3","4wn7ob94sy","many_one","0","direct_first","1","iß06en04","0","21","1","1","3","1","null","","","<img src = 'category1/ma.png' width = '100%;'>","null","","","","","","","","","",""
"","html-keyboard-response","250","815773","0.0-12.0-2.3","4wn7ob94sy","many_one","0","direct_first","1","iß06en04","0","21","1","1","3","1","null","","","<img src = 'targets/18.png' width = '100%;'>","null","","","","","","","","","",""
"","html-keyboard-response","251","816607","0.0-12.0-3.3","4wn7ob94sy","many_one","0","direct_first","1","iß06en04","0","21","1","1","3","1","832","","","<img src = 'targets/mask.png' width = '100%;'>","75","pos","GS","abstract","1","category1/ma.png","","targets/18.png","indirect","1","27"
"","html-keyboard-response","252","818123","0.0-12.0-0.4","4wn7ob94sy","many_one","0","direct_first","1","iß06en04","0","21","1","1","3","1","null","","","<div style=""font-size:60px;"">+</div>","null","","","","","","","","","",""
"","html-keyboard-response","253","818223","0.0-12.0-1.4","4wn7ob94sy","many_one","0","direct_first","1","iß06en04","0","21","1","1","3","1","null","","","<img src = 'category4/GS1.png' width = '100%;'>","null","","","","","","","","","",""
"","html-keyboard-response","254","818503","0.0-12.0-2.4","4wn7ob94sy","many_one","0","direct_first","1","iß06en04","0","21","1","1","3","1","null","","","<img src = 'targets/8.png' width = '100%;'>","null","","","","","","","","","",""
"","html-keyboard-response","255","819383","0.0-12.0-3.4","4wn7ob94sy","many_one","0","direct_first","1","iß06en04","0","21","1","1","3","1","879","","","<img src = 'targets/mask.png' width = '100%;'>","75","pos","GS","GSnew","4","category4/GS1.png","","targets/8.png","indirect","1","28"
"","html-keyboard-response","256","820923","0.0-12.0-0.5","4wn7ob94sy","many_one","0","direct_first","1","iß06en04","0","21","1","1","3","1","null","","","<div style=""font-size:60px;"">+</div>","null","","","","","","","","","",""
"","html-keyboard-response","257","821023","0.0-12.0-1.5","4wn7ob94sy","many_one","0","direct_first","1","iß06en04","0","21","1","1","3","1","null","","","<img src = 'category2/GS2.png' width = '100%;'>","null","","","","","","","","","",""
"","html-keyboard-response","258","821303","0.0-12.0-2.5","4wn7ob94sy","many_one","0","direct_first","1","iß06en04","0","21","1","1","3","1","null","","","<img src = 'targets/6.png' width = '100%;'>","null","","","","","","","","","",""
"","html-keyboard-response","259","822495","0.0-12.0-3.5","4wn7ob94sy","many_one","0","direct_first","1","iß06en04","0","21","1","1","3","1","1190","","","<img src = 'targets/mask.png' width = '100%;'>","68","neg","GS","GSnew","2","category2/GS2.png","","targets/6.png","indirect","0","29"
"","html-keyboard-response","260","824023","0.0-12.0-0.6","4wn7ob94sy","many_one","0","direct_first","1","iß06en04","0","21","1","1","3","1","null","","","<div style=""font-size:60px;"">+</div>","null","","","","","","","","","",""
"","html-keyboard-response","261","824123","0.0-12.0-1.6","4wn7ob94sy","many_one","0","direct_first","1","iß06en04","0","21","1","1","3","1","null","","","<img src = 'category1/GS2.png' width = '100%;'>","null","","","","","","","","","",""
"","html-keyboard-response","262","824402","0.0-12.0-2.6","4wn7ob94sy","many_one","0","direct_first","1","iß06en04","0","21","1","1","3","1","null","","","<img src = 'targets/42.png' width = '100%;'>","null","","","","","","","","","",""
"","html-keyboard-response","263","825383","0.0-12.0-3.6","4wn7ob94sy","many_one","0","direct_first","1","iß06en04","0","21","1","1","3","1","980","","","<img src = 'targets/mask.png' width = '100%;'>","68","pos","GS","GSnew","1","category1/GS2.png","","targets/42.png","indirect","0","30"
"","html-keyboard-response","264","826923","0.0-12.0-0.7","4wn7ob94sy","many_one","0","direct_first","1","iß06en04","0","21","1","1","3","1","null","","","<div style=""font-size:60px;"">+</div>","null","","","","","","","","","",""
"","html-keyboard-response","265","827023","0.0-12.0-1.7","4wn7ob94sy","many_one","0","direct_first","1","iß06en04","0","21","1","1","3","1","null","","","<img src = 'category1/CS9.png' width = '100%;'>","null","","","","","","","","","",""
"","html-keyboard-response","266","827303","0.0-12.0-2.7","4wn7ob94sy","many_one","0","direct_first","1","iß06en04","0","21","1","1","3","1","null","","","<img src = 'targets/31.png' width = '100%;'>","null","","","","","","","","","",""
"","html-keyboard-response","267","828903","0.0-12.0-3.7","4wn7ob94sy","many_one","0","direct_first","1","iß06en04","0","21","1","1","3","1","1599","","","<img src = 'targets/mask.png' width = '100%;'>","75","pos","GS","GSold","1","category1/CS9.png","","targets/31.png","indirect","1","31"
"","html-keyboard-response","268","830432","0.0-12.0-0.8","4wn7ob94sy","many_one","0","direct_first","1","iß06en04","0","21","1","1","3","1","null","","","<div style=""font-size:60px;"">+</div>","null","","","","","","","","","",""
"","html-keyboard-response","269","830533","0.0-12.0-1.8","4wn7ob94sy","many_one","0","direct_first","1","iß06en04","0","21","1","1","3","1","null","","","<img src = 'category4/CS2.png' width = '100%;'>","null","","","","","","","","","",""
"","html-keyboard-response","270","830813","0.0-12.0-2.8","4wn7ob94sy","many_one","0","direct_first","1","iß06en04","0","21","1","1","3","1","null","","","<img src = 'targets/17.png' width = '100%;'>","null","","","","","","","","","",""
"","html-keyboard-response","271","831295","0.0-12.0-3.8","4wn7ob94sy","many_one","0","direct_first","1","iß06en04","0","21","1","1","3","1","480","","","<img src = 'targets/mask.png' width = '100%;'>","75","pos","GS","GSold","4","category4/CS2.png","","targets/17.png","indirect","1","32"
"","html-keyboard-response","272","832832","0.0-12.0-0.9","4wn7ob94sy","many_one","0","direct_first","1","iß06en04","0","21","1","1","3","1","null","","","<div style=""font-size:60px;"">+</div>","null","","","","","","","","","",""
"","html-keyboard-response","273","832933","0.0-12.0-1.9","4wn7ob94sy","many_one","0","direct_first","1","iß06en04","0","21","1","1","3","1","null","","","<img src = 'category4/GS2.png' width = '100%;'>","null","","","","","","","","","",""
"","html-keyboard-response","274","833213","0.0-12.0-2.9","4wn7ob94sy","many_one","0","direct_first","1","iß06en04","0","21","1","1","3","1","null","","","<img src = 'targets/7.png' width = '100%;'>","null","","","","","","","","","",""
"","html-keyboard-response","275","834695","0.0-12.0-3.9","4wn7ob94sy","many_one","0","direct_first","1","iß06en04","0","21","1","1","3","1","1481","","","<img src = 'targets/mask.png' width = '100%;'>","68","pos","GS","GSnew","4","category4/GS2.png","","targets/7.png","indirect","0","33"
"","html-keyboard-response","276","836233","0.0-12.0-0.10","4wn7ob94sy","many_one","0","direct_first","1","iß06en04","0","21","1","1","3","1","null","","","<div style=""font-size:60px;"">+</div>","null","","","","","","","","","",""
"","html-keyboard-response","277","836332","0.0-12.0-1.10","4wn7ob94sy","many_one","0","direct_first","1","iß06en04","0","21","1","1","3","1","null","","","<img src = 'category3/GS3.png' width = '100%;'>","null","","","","","","","","","",""
"","html-keyboard-response","278","836613","0.0-12.0-2.10","4wn7ob94sy","many_one","0","direct_first","1","iß06en04","0","21","1","1","3","1","null","","","<img src = 'targets/33.png' width = '100%;'>","null","","","","","","","","","",""
"","html-keyboard-response","279","837159","0.0-12.0-3.10","4wn7ob94sy","many_one","0","direct_first","1","iß06en04","0","21","1","1","3","1","544","","","<img src = 'targets/mask.png' width = '100%;'>","68","neg","GS","GSnew","3","category3/GS3.png","","targets/33.png","indirect","0","34"
"","html-keyboard-response","280","838672","0.0-12.0-0.11","4wn7ob94sy","many_one","0","direct_first","1","iß06en04","0","21","1","1","3","1","null","","","<div style=""font-size:60px;"">+</div>","null","","","","","","","","","",""
"","html-keyboard-response","281","838773","0.0-12.0-1.11","4wn7ob94sy","many_one","0","direct_first","1","iß06en04","0","21","1","1","3","1","null","","","<img src = 'category4/CS10.png' width = '100%;'>","null","","","","","","","","","",""
"","html-keyboard-response","282","839053","0.0-12.0-2.11","4wn7ob94sy","many_one","0","direct_first","1","iß06en04","0","21","1","1","3","1","null","","","<img src = 'targets/32.png' width = '100%;'>","null","","","","","","","","","",""
"","html-keyboard-response","283","839518","0.0-12.0-3.11","4wn7ob94sy","many_one","0","direct_first","1","iß06en04","0","21","1","1","3","1","464","","","<img src = 'targets/mask.png' width = '100%;'>","75","pos","GS","GSold","4","category4/CS10.png","","targets/32.png","indirect","1","35"
"","html-keyboard-response","284","841053","0.0-12.0-0.12","4wn7ob94sy","many_one","0","direct_first","1","iß06en04","0","21","1","1","3","1","null","","","<div style=""font-size:60px;"">+</div>","null","","","","","","","","","",""
"","html-keyboard-response","285","841153","0.0-12.0-1.12","4wn7ob94sy","many_one","0","direct_first","1","iß06en04","0","21","1","1","3","1","null","","","<img src = 'category3/GS2.png' width = '100%;'>","null","","","","","","","","","",""
"","html-keyboard-response","286","841433","0.0-12.0-2.12","4wn7ob94sy","many_one","0","direct_first","1","iß06en04","0","21","1","1","3","1","null","","","<img src = 'targets/3.png' width = '100%;'>","null","","","","","","","","","",""
"","html-keyboard-response","287","841975","0.0-12.0-3.12","4wn7ob94sy","many_one","0","direct_first","1","iß06en04","0","21","1","1","3","1","541","","","<img src = 'targets/mask.png' width = '100%;'>","68","neg","GS","GSnew","3","category3/GS2.png","","targets/3.png","indirect","0","36"
"","html-keyboard-response","288","843513","0.0-12.0-0.13","4wn7ob94sy","many_one","0","direct_first","1","iß06en04","0","21","1","1","3","1","null","","","<div style=""font-size:60px;"">+</div>","null","","","","","","","","","",""
"","html-keyboard-response","289","843613","0.0-12.0-1.13","4wn7ob94sy","many_one","0","direct_first","1","iß06en04","0","21","1","1","3","1","null","","","<img src = 'category1/CS1.png' width = '100%;'>","null","","","","","","","","","",""
"","html-keyboard-response","290","843883","0.0-12.0-2.13","4wn7ob94sy","many_one","0","direct_first","1","iß06en04","0","21","1","1","3","1","null","","","<img src = 'targets/28.png' width = '100%;'>","null","","","","","","","","","",""
"","html-keyboard-response","291","845375","0.0-12.0-3.13","4wn7ob94sy","many_one","0","direct_first","1","iß06en04","0","21","1","1","3","1","1491","","","<img src = 'targets/mask.png' width = '100%;'>","68","pos","GS","GSold","1","category1/CS1.png","","targets/28.png","indirect","0","37"
"","html-keyboard-response","292","846903","0.0-12.0-0.14","4wn7ob94sy","many_one","0","direct_first","1","iß06en04","0","21","1","1","3","1","null","","","<div style=""font-size:60px;"">+</div>","null","","","","","","","","","",""
"","html-keyboard-response","293","847003","0.0-12.0-1.14","4wn7ob94sy","many_one","0","direct_first","1","iß06en04","0","21","1","1","3","1","null","","","<img src = 'category3/CS8.png' width = '100%;'>","null","","","","","","","","","",""
"","html-keyboard-response","294","847283","0.0-12.0-2.14","4wn7ob94sy","many_one","0","direct_first","1","iß06en04","0","21","1","1","3","1","null","","","<img src = 'targets/20.png' width = '100%;'>","null","","","","","","","","","",""
"","html-keyboard-response","295","848215","0.0-12.0-3.14","4wn7ob94sy","many_one","0","direct_first","1","iß06en04","0","21","1","1","3","1","930","","","<img src = 'targets/mask.png' width = '100%;'>","68","neg","GS","GSold","3","category3/CS8.png","","targets/20.png","indirect","0","38"
"","html-keyboard-response","296","849723","0.0-12.0-0.15","4wn7ob94sy","many_one","0","direct_first","1","iß06en04","0","21","1","1","3","1","null","","","<div style=""font-size:60px;"">+</div>","null","","","","","","","","","",""
"","html-keyboard-response","297","849823","0.0-12.0-1.15","4wn7ob94sy","many_one","0","direct_first","1","iß06en04","0","21","1","1","3","1","null","","","<img src = 'category2/GS3.png' width = '100%;'>","null","","","","","","","","","",""
"","html-keyboard-response","298","850103","0.0-12.0-2.15","4wn7ob94sy","many_one","0","direct_first","1","iß06en04","0","21","1","1","3","1","null","","","<img src = 'targets/4.png' width = '100%;'>","null","","","","","","","","","",""
"","html-keyboard-response","299","851975","0.0-12.0-3.15","4wn7ob94sy","many_one","0","direct_first","1","iß06en04","0","21","1","1","3","1","1872","","","<img src = 'targets/mask.png' width = '100%;'>","68","neg","GS","GSnew","2","category2/GS3.png","","targets/4.png","indirect","0","39"
"","html-keyboard-response","300","853503","0.0-12.0-0.16","4wn7ob94sy","many_one","0","direct_first","1","iß06en04","0","21","1","1","3","1","null","","","<div style=""font-size:60px;"">+</div>","null","","","","","","","","","",""
"","html-keyboard-response","301","853602","0.0-12.0-1.16","4wn7ob94sy","many_one","0","direct_first","1","iß06en04","0","21","1","1","3","1","null","","","<img src = 'category3/wang.png' width = '100%;'>","null","","","","","","","","","",""
"","html-keyboard-response","302","853883","0.0-12.0-2.16","4wn7ob94sy","many_one","0","direct_first","1","iß06en04","0","21","1","1","3","1","null","","","<img src = 'targets/19.png' width = '100%;'>","null","","","","","","","","","",""
"","html-keyboard-response","303","854303","0.0-12.0-3.16","4wn7ob94sy","many_one","0","direct_first","1","iß06en04","0","21","1","1","3","1","420","","","<img src = 'targets/mask.png' width = '100%;'>","68","neg","GS","abstract","3","category3/wang.png","","targets/19.png","indirect","0","40"
"","html-keyboard-response","304","855843","0.0-12.0-0.17","4wn7ob94sy","many_one","0","direct_first","1","iß06en04","0","21","1","1","3","1","null","","","<div style=""font-size:60px;"">+</div>","null","","","","","","","","","",""
"","html-keyboard-response","305","855943","0.0-12.0-1.17","4wn7ob94sy","many_one","0","direct_first","1","iß06en04","0","21","1","1","3","1","null","","","<img src = 'category4/lin.png' width = '100%;'>","null","","","","","","","","","",""
"","html-keyboard-response","306","856222","0.0-12.0-2.17","4wn7ob94sy","many_one","0","direct_first","1","iß06en04","0","21","1","1","3","1","null","","","<img src = 'targets/36.png' width = '100%;'>","null","","","","","","","","","",""
"","html-keyboard-response","307","856654","0.0-12.0-3.17","4wn7ob94sy","many_one","0","direct_first","1","iß06en04","0","21","1","1","3","1","431","","","<img src = 'targets/mask.png' width = '100%;'>","75","pos","GS","abstract","4","category4/lin.png","","targets/36.png","indirect","1","41"
"","html-keyboard-response","308","858182","0.0-12.0-0.18","4wn7ob94sy","many_one","0","direct_first","1","iß06en04","0","21","1","1","3","1","null","","","<div style=""font-size:60px;"">+</div>","null","","","","","","","","","",""
"","html-keyboard-response","309","858283","0.0-12.0-1.18","4wn7ob94sy","many_one","0","direct_first","1","iß06en04","0","21","1","1","3","1","null","","","<img src = 'category3/GS1.png' width = '100%;'>","null","","","","","","","","","",""
"","html-keyboard-response","310","858542","0.0-12.0-2.18","4wn7ob94sy","many_one","0","direct_first","1","iß06en04","0","21","1","1","3","1","null","","","<img src = 'targets/22.png' width = '100%;'>","null","","","","","","","","","",""
"","html-keyboard-response","311","861046","0.0-12.0-3.18","4wn7ob94sy","many_one","0","direct_first","1","iß06en04","0","21","1","1","3","1","2503","","","<img src = 'targets/mask.png' width = '100%;'>","68","neg","GS","GSnew","3","category3/GS1.png","","targets/22.png","indirect","0","42"
"","html-keyboard-response","312","862583","0.0-12.0-0.19","4wn7ob94sy","many_one","0","direct_first","1","iß06en04","0","21","1","1","3","1","null","","","<div style=""font-size:60px;"">+</div>","null","","","","","","","","","",""
"","html-keyboard-response","313","862683","0.0-12.0-1.19","4wn7ob94sy","many_one","0","direct_first","1","iß06en04","0","21","1","1","3","1","null","","","<img src = 'category1/CS7.png' width = '100%;'>","null","","","","","","","","","",""
"","html-keyboard-response","314","862963","0.0-12.0-2.19","4wn7ob94sy","many_one","0","direct_first","1","iß06en04","0","21","1","1","3","1","null","","","<img src = 'targets/29.png' width = '100%;'>","null","","","","","","","","","",""
"","html-keyboard-response","315","864038","0.0-12.0-3.19","4wn7ob94sy","many_one","0","direct_first","1","iß06en04","0","21","1","1","3","1","1074","","","<img src = 'targets/mask.png' width = '100%;'>","68","pos","GS","GSold","1","category1/CS7.png","","targets/29.png","indirect","0","43"
"","html-keyboard-response","316","865563","0.0-12.0-0.20","4wn7ob94sy","many_one","0","direct_first","1","iß06en04","0","21","1","1","3","1","null","","","<div style=""font-size:60px;"">+</div>","null","","","","","","","","","",""
"","html-keyboard-response","317","865663","0.0-12.0-1.20","4wn7ob94sy","many_one","0","direct_first","1","iß06en04","0","21","1","1","3","1","null","","","<img src = 'category3/CS5.png' width = '100%;'>","null","","","","","","","","","",""
"","html-keyboard-response","318","865943","0.0-12.0-2.20","4wn7ob94sy","many_one","0","direct_first","1","iß06en04","0","21","1","1","3","1","null","","","<img src = 'targets/24.png' width = '100%;'>","null","","","","","","","","","",""
"","html-keyboard-response","319","866342","0.0-12.0-3.20","4wn7ob94sy","many_one","0","direct_first","1","iß06en04","0","21","1","1","3","1","398","","","<img src = 'targets/mask.png' width = '100%;'>","68","neg","GS","GSold","3","category3/CS5.png","","targets/24.png","indirect","0","44"
"","html-keyboard-response","320","867863","0.0-12.0-0.21","4wn7ob94sy","many_one","0","direct_first","1","iß06en04","0","21","1","1","3","1","null","","","<div style=""font-size:60px;"">+</div>","null","","","","","","","","","",""
"","html-keyboard-response","321","867955","0.0-12.0-1.21","4wn7ob94sy","many_one","0","direct_first","1","iß06en04","0","21","1","1","3","1","null","","","<img src = 'category1/GS1.png' width = '100%;'>","null","","","","","","","","","",""
"","html-keyboard-response","322","868223","0.0-12.0-2.21","4wn7ob94sy","many_one","0","direct_first","1","iß06en04","0","21","1","1","3","1","null","","","<img src = 'targets/45.png' width = '100%;'>","null","","","","","","","","","",""
"","html-keyboard-response","323","870038","0.0-12.0-3.21","4wn7ob94sy","many_one","0","direct_first","1","iß06en04","0","21","1","1","3","1","1814","","","<img src = 'targets/mask.png' width = '100%;'>","68","pos","GS","GSnew","1","category1/GS1.png","","targets/45.png","indirect","0","45"
"","html-keyboard-response","324","871562","0.0-12.0-0.22","4wn7ob94sy","many_one","0","direct_first","1","iß06en04","0","21","1","1","3","1","null","","","<div style=""font-size:60px;"">+</div>","null","","","","","","","","","",""
"","html-keyboard-response","325","871663","0.0-12.0-1.22","4wn7ob94sy","many_one","0","direct_first","1","iß06en04","0","21","1","1","3","1","null","","","<img src = 'category3/CS6.png' width = '100%;'>","null","","","","","","","","","",""
"","html-keyboard-response","326","871943","0.0-12.0-2.22","4wn7ob94sy","many_one","0","direct_first","1","iß06en04","0","21","1","1","3","1","null","","","<img src = 'targets/46.png' width = '100%;'>","null","","","","","","","","","",""
"","html-keyboard-response","327","872918","0.0-12.0-3.22","4wn7ob94sy","many_one","0","direct_first","1","iß06en04","0","21","1","1","3","1","974","","","<img src = 'targets/mask.png' width = '100%;'>","68","neg","GS","GSold","3","category3/CS6.png","","targets/46.png","indirect","0","46"
"","html-keyboard-response","328","874442","0.0-12.0-0.23","4wn7ob94sy","many_one","0","direct_first","1","iß06en04","0","21","1","1","3","1","null","","","<div style=""font-size:60px;"">+</div>","null","","","","","","","","","",""
"","html-keyboard-response","329","874542","0.0-12.0-1.23","4wn7ob94sy","many_one","0","direct_first","1","iß06en04","0","21","1","1","3","1","null","","","<img src = 'category1/GS3.png' width = '100%;'>","null","","","","","","","","","",""
"","html-keyboard-response","330","874822","0.0-12.0-2.23","4wn7ob94sy","many_one","0","direct_first","1","iß06en04","0","21","1","1","3","1","null","","","<img src = 'targets/11.png' width = '100%;'>","null","","","","","","","","","",""
"","html-keyboard-response","331","875783","0.0-12.0-3.23","4wn7ob94sy","many_one","0","direct_first","1","iß06en04","0","21","1","1","3","1","959","","","<img src = 'targets/mask.png' width = '100%;'>","75","pos","GS","GSnew","1","category1/GS3.png","","targets/11.png","indirect","1","47"
"","survey-html-form","332","881703","0.0-13.0","4wn7ob94sy","many_one","0","direct_first","1","iß06en04","0","21","1","1","3","1","5400","","{}","","","","","","","","","","","",""
"","image-slider-response","333","890709","0.0-14.0-0.0","4wn7ob94sy","many_one","0","direct_first","1","iß06en04","0","21","1","1","3","1","8004","","","","","neg","All","all","2","category2/men_all.png","-45","","all","",""
"","image-slider-response","334","895077","0.0-14.0-0.1","4wn7ob94sy","many_one","0","direct_first","1","iß06en04","0","21","1","1","3","1","4367","","","","","pos","All","all","4","category4/lin_all.png","94","","all","",""
"","image-slider-response","335","899197","0.0-14.0-0.2","4wn7ob94sy","many_one","0","direct_first","1","iß06en04","0","21","1","1","3","1","4118","","","","","neg","All","all","3","category3/wang_all.png","-78","","all","",""
"","image-slider-response","336","903845","0.0-14.0-0.3","4wn7ob94sy","many_one","0","direct_first","1","iß06en04","0","21","1","1","3","1","4646","","","","","pos","All","all","1","category1/ma_all.png","38","","all","",""
"","survey-text","337","917566","0.0-15.0","4wn7ob94sy","many_one","0","direct_first","1","iß06en04","0","21","1","1","3","1","13717","","{""Q0"":""""}","","","","","","","","","","","",""
