"success","trial_type","trial_index","time_elapsed","internal_node_id","subject","condition","condition_code","measure","measure_code","codeword","gender","age","education","chinese","fach","handedness","comment","hinschauen","ablenkung","gewissenhaft","rt","url","responses","stimulus","key_press","val","type","type_specific","category","cs_selected","target","indirect","task","nr_pres","response"
"true","fullscreen","0","5653","0.0-0.0","wzdkk0pc1n","one_one","1","indirect_first","0","in05in25","0","24","1","1","3","1","","0","1","0","","","","","","","","","","","","","","",""
"","external-html","1","34079","0.0-1.0","wzdkk0pc1n","one_one","1","indirect_first","0","in05in25","0","24","1","1","3","1","","0","1","0","28372.349999961443","text/information.html","","","","","","","","","","","","",""
"","external-html","2","49819","0.0-2.0","wzdkk0pc1n","one_one","1","indirect_first","0","in05in25","0","24","1","1","3","1","","0","1","0","15649.689999991097","text/consent.html","","","","","","","","","","","","",""
"","survey-html-form","3","101119","0.0-3.0","wzdkk0pc1n","one_one","1","indirect_first","0","in05in25","0","24","1","1","3","1","","0","1","0","51296.46999994293","","{""codeword_enter"":""in05in25""}","","","","","","","","","","","",""
"","survey-html-form","4","122290","0.0-4.0","wzdkk0pc1n","one_one","1","indirect_first","0","in05in25","0","24","1","1","3","1","","0","1","0","21167.720000026748","","{""age"":""24"",""education"":""1"",""subject"":""3"",""gender"":""0"",""handedness"":""1"",""chinese"":""1""}","","","","","","","","","","","",""
"","survey-html-form","5","124023","0.0-5.0","wzdkk0pc1n","one_one","1","indirect_first","0","in05in25","0","24","1","1","3","1","","0","1","0","1731.3999999314547","","{}","","","","","","","","","","","",""
"","html-keyboard-response","6","128029","0.0-6.0-0.0-0.0","wzdkk0pc1n","one_one","1","indirect_first","0","in05in25","0","24","1","1","3","1","","0","1","0","null","","","<div class = 'row'><div class = 'column'><img src = 'category2/CS1.png' width = '70%;'></div><div class = 'column'><img src = 'usneg/6212.bmp' width = '100%;'></div></div>","null","neg","CS","CS","2","category2/CS1.png","","","","",""
"","html-keyboard-response","7","130538","0.0-6.0-0.0-0.1","wzdkk0pc1n","one_one","1","indirect_first","0","in05in25","0","24","1","1","3","1","","0","1","0","null","","","<div class = 'row'><div class = 'column'><img src = 'category1/CS9.png' width = '70%;'></div><div class = 'column'><img src = 'usneg/1280.bmp' width = '100%;'></div></div>","null","neg","CS","CS","1","category1/CS9.png","","","","",""
"","html-keyboard-response","8","133047","0.0-6.0-0.0-0.2","wzdkk0pc1n","one_one","1","indirect_first","0","in05in25","0","24","1","1","3","1","","0","1","0","null","","","<div class = 'row'><div class = 'column'><img src = 'uspos/5760.bmp' width = '100%;'></div><div class = 'column'><img src = 'category4/CS4.png' width = '70%;'></div></div>","null","pos","CS","CS","4","category4/CS4.png","","","","",""
"","html-keyboard-response","9","135559","0.0-6.0-0.0-0.3","wzdkk0pc1n","one_one","1","indirect_first","0","in05in25","0","24","1","1","3","1","","0","1","0","null","","","<div class = 'row'><div class = 'column'><img src = 'usneg/6212.bmp' width = '100%;'></div><div class = 'column'><img src = 'category2/CS1.png' width = '70%;'></div></div>","null","neg","CS","CS","2","category2/CS1.png","","","","",""
"","html-keyboard-response","10","138070","0.0-6.0-0.0-0.4","wzdkk0pc1n","one_one","1","indirect_first","0","in05in25","0","24","1","1","3","1","","0","1","0","null","","","<div class = 'row'><div class = 'column'><img src = 'uspos/2341.bmp' width = '100%;'></div><div class = 'column'><img src = 'category3/CS4.png' width = '70%;'></div></div>","null","pos","CS","CS","3","category3/CS4.png","","","","",""
"","html-keyboard-response","11","140581","0.0-6.0-0.0-0.5","wzdkk0pc1n","one_one","1","indirect_first","0","in05in25","0","24","1","1","3","1","","0","1","0","null","","","<div class = 'row'><div class = 'column'><img src = 'uspos/5760.bmp' width = '100%;'></div><div class = 'column'><img src = 'category4/CS4.png' width = '70%;'></div></div>","null","pos","CS","CS","4","category4/CS4.png","","","","",""
"","html-keyboard-response","12","143094","0.0-6.0-0.0-0.6","wzdkk0pc1n","one_one","1","indirect_first","0","in05in25","0","24","1","1","3","1","","0","1","0","null","","","<div class = 'row'><div class = 'column'><img src = 'usneg/6212.bmp' width = '100%;'></div><div class = 'column'><img src = 'category2/CS1.png' width = '70%;'></div></div>","null","neg","CS","CS","2","category2/CS1.png","","","","",""
"","html-keyboard-response","13","145602","0.0-6.0-0.0-0.7","wzdkk0pc1n","one_one","1","indirect_first","0","in05in25","0","24","1","1","3","1","","0","1","0","null","","","<div class = 'row'><div class = 'column'><img src = 'category3/CS4.png' width = '70%;'></div><div class = 'column'><img src = 'uspos/2341.bmp' width = '100%;'></div></div>","null","pos","CS","CS","3","category3/CS4.png","","","","",""
"","html-keyboard-response","14","148109","0.0-6.0-0.0-0.8","wzdkk0pc1n","one_one","1","indirect_first","0","in05in25","0","24","1","1","3","1","","0","1","0","null","","","<div class = 'row'><div class = 'column'><img src = 'uspos/5760.bmp' width = '100%;'></div><div class = 'column'><img src = 'category4/CS4.png' width = '70%;'></div></div>","null","pos","CS","CS","4","category4/CS4.png","","","","",""
"","html-keyboard-response","15","150620","0.0-6.0-0.0-0.9","wzdkk0pc1n","one_one","1","indirect_first","0","in05in25","0","24","1","1","3","1","","0","1","0","null","","","<div class = 'row'><div class = 'column'><img src = 'usneg/6212.bmp' width = '100%;'></div><div class = 'column'><img src = 'category2/CS1.png' width = '70%;'></div></div>","null","neg","CS","CS","2","category2/CS1.png","","","","",""
"","html-keyboard-response","16","153127","0.0-6.0-0.0-0.10","wzdkk0pc1n","one_one","1","indirect_first","0","in05in25","0","24","1","1","3","1","","0","1","0","null","","","<div class = 'row'><div class = 'column'><img src = 'usneg/1280.bmp' width = '100%;'></div><div class = 'column'><img src = 'category1/CS9.png' width = '70%;'></div></div>","null","neg","CS","CS","1","category1/CS9.png","","","","",""
"","html-keyboard-response","17","155639","0.0-6.0-0.0-0.11","wzdkk0pc1n","one_one","1","indirect_first","0","in05in25","0","24","1","1","3","1","","0","1","0","null","","","<div class = 'row'><div class = 'column'><img src = 'uspos/5760.bmp' width = '100%;'></div><div class = 'column'><img src = 'category4/CS4.png' width = '70%;'></div></div>","null","pos","CS","CS","4","category4/CS4.png","","","","",""
"","html-keyboard-response","18","158151","0.0-6.0-0.0-0.12","wzdkk0pc1n","one_one","1","indirect_first","0","in05in25","0","24","1","1","3","1","","0","1","0","null","","","<div class = 'row'><div class = 'column'><img src = 'usneg/1280.bmp' width = '100%;'></div><div class = 'column'><img src = 'category1/CS9.png' width = '70%;'></div></div>","null","neg","CS","CS","1","category1/CS9.png","","","","",""
"","html-keyboard-response","19","160659","0.0-6.0-0.0-0.13","wzdkk0pc1n","one_one","1","indirect_first","0","in05in25","0","24","1","1","3","1","","0","1","0","null","","","<div class = 'row'><div class = 'column'><img src = 'category2/CS1.png' width = '70%;'></div><div class = 'column'><img src = 'usneg/6212.bmp' width = '100%;'></div></div>","null","neg","CS","CS","2","category2/CS1.png","","","","",""
"","html-keyboard-response","20","163169","0.0-6.0-0.0-0.14","wzdkk0pc1n","one_one","1","indirect_first","0","in05in25","0","24","1","1","3","1","","0","1","0","null","","","<div class = 'row'><div class = 'column'><img src = 'category3/CS4.png' width = '70%;'></div><div class = 'column'><img src = 'uspos/2341.bmp' width = '100%;'></div></div>","null","pos","CS","CS","3","category3/CS4.png","","","","",""
"","html-keyboard-response","21","165675","0.0-6.0-0.0-0.15","wzdkk0pc1n","one_one","1","indirect_first","0","in05in25","0","24","1","1","3","1","","0","1","0","null","","","<div class = 'row'><div class = 'column'><img src = 'category1/CS9.png' width = '70%;'></div><div class = 'column'><img src = 'usneg/1280.bmp' width = '100%;'></div></div>","null","neg","CS","CS","1","category1/CS9.png","","","","",""
"","html-keyboard-response","22","168184","0.0-6.0-0.0-0.16","wzdkk0pc1n","one_one","1","indirect_first","0","in05in25","0","24","1","1","3","1","","0","1","0","null","","","<div class = 'row'><div class = 'column'><img src = 'uspos/2341.bmp' width = '100%;'></div><div class = 'column'><img src = 'category3/CS4.png' width = '70%;'></div></div>","null","pos","CS","CS","3","category3/CS4.png","","","","",""
"","html-keyboard-response","23","170693","0.0-6.0-0.0-0.17","wzdkk0pc1n","one_one","1","indirect_first","0","in05in25","0","24","1","1","3","1","","0","1","0","null","","","<div class = 'row'><div class = 'column'><img src = 'category1/CS9.png' width = '70%;'></div><div class = 'column'><img src = 'usneg/1280.bmp' width = '100%;'></div></div>","null","neg","CS","CS","1","category1/CS9.png","","","","",""
"","html-keyboard-response","24","173204","0.0-6.0-0.0-0.18","wzdkk0pc1n","one_one","1","indirect_first","0","in05in25","0","24","1","1","3","1","","0","1","0","null","","","<div class = 'row'><div class = 'column'><img src = 'uspos/2341.bmp' width = '100%;'></div><div class = 'column'><img src = 'category3/CS4.png' width = '70%;'></div></div>","null","pos","CS","CS","3","category3/CS4.png","","","","",""
"","html-keyboard-response","25","175710","0.0-6.0-0.0-0.19","wzdkk0pc1n","one_one","1","indirect_first","0","in05in25","0","24","1","1","3","1","","0","1","0","null","","","<div class = 'row'><div class = 'column'><img src = 'uspos/5760.bmp' width = '100%;'></div><div class = 'column'><img src = 'category4/CS4.png' width = '70%;'></div></div>","null","pos","CS","CS","4","category4/CS4.png","","","","",""
"","survey-html-form","26","179271","0.0-6.0-1.0","wzdkk0pc1n","one_one","1","indirect_first","0","in05in25","0","24","1","1","3","1","","0","1","0","3054.9400000600144","","{}","","","","","","","","","","","",""
"","html-keyboard-response","27","183273","0.0-6.0-2.0-0.0","wzdkk0pc1n","one_one","1","indirect_first","0","in05in25","0","24","1","1","3","1","","0","1","0","null","","","<div class = 'row'><div class = 'column'><img src = 'usneg/1280.bmp' width = '100%;'></div><div class = 'column'><img src = 'category1/CS9.png' width = '70%;'></div></div>","null","neg","CS","CS","1","category1/CS9.png","","","","",""
"","html-keyboard-response","28","185783","0.0-6.0-2.0-0.1","wzdkk0pc1n","one_one","1","indirect_first","0","in05in25","0","24","1","1","3","1","","0","1","0","null","","","<div class = 'row'><div class = 'column'><img src = 'category2/CS1.png' width = '70%;'></div><div class = 'column'><img src = 'usneg/6212.bmp' width = '100%;'></div></div>","null","neg","CS","CS","2","category2/CS1.png","","","","",""
"","html-keyboard-response","29","188291","0.0-6.0-2.0-0.2","wzdkk0pc1n","one_one","1","indirect_first","0","in05in25","0","24","1","1","3","1","","0","1","0","null","","","<div class = 'row'><div class = 'column'><img src = 'uspos/5760.bmp' width = '100%;'></div><div class = 'column'><img src = 'category4/CS4.png' width = '70%;'></div></div>","null","pos","CS","CS","4","category4/CS4.png","","","","",""
"","html-keyboard-response","30","190801","0.0-6.0-2.0-0.3","wzdkk0pc1n","one_one","1","indirect_first","0","in05in25","0","24","1","1","3","1","","0","1","0","null","","","<div class = 'row'><div class = 'column'><img src = 'usneg/1280.bmp' width = '100%;'></div><div class = 'column'><img src = 'category1/CS9.png' width = '70%;'></div></div>","null","neg","CS","CS","1","category1/CS9.png","","","","",""
"","html-keyboard-response","31","193309","0.0-6.0-2.0-0.4","wzdkk0pc1n","one_one","1","indirect_first","0","in05in25","0","24","1","1","3","1","","0","1","0","null","","","<div class = 'row'><div class = 'column'><img src = 'uspos/2341.bmp' width = '100%;'></div><div class = 'column'><img src = 'category3/CS4.png' width = '70%;'></div></div>","null","pos","CS","CS","3","category3/CS4.png","","","","",""
"","html-keyboard-response","32","195818","0.0-6.0-2.0-0.5","wzdkk0pc1n","one_one","1","indirect_first","0","in05in25","0","24","1","1","3","1","","0","1","0","null","","","<div class = 'row'><div class = 'column'><img src = 'uspos/5760.bmp' width = '100%;'></div><div class = 'column'><img src = 'category4/CS4.png' width = '70%;'></div></div>","null","pos","CS","CS","4","category4/CS4.png","","","","",""
"","html-keyboard-response","33","198326","0.0-6.0-2.0-0.6","wzdkk0pc1n","one_one","1","indirect_first","0","in05in25","0","24","1","1","3","1","","0","1","0","null","","","<div class = 'row'><div class = 'column'><img src = 'category2/CS1.png' width = '70%;'></div><div class = 'column'><img src = 'usneg/6212.bmp' width = '100%;'></div></div>","null","neg","CS","CS","2","category2/CS1.png","","","","",""
"","html-keyboard-response","34","200833","0.0-6.0-2.0-0.7","wzdkk0pc1n","one_one","1","indirect_first","0","in05in25","0","24","1","1","3","1","","0","1","0","null","","","<div class = 'row'><div class = 'column'><img src = 'uspos/5760.bmp' width = '100%;'></div><div class = 'column'><img src = 'category4/CS4.png' width = '70%;'></div></div>","null","pos","CS","CS","4","category4/CS4.png","","","","",""
"","html-keyboard-response","35","203340","0.0-6.0-2.0-0.8","wzdkk0pc1n","one_one","1","indirect_first","0","in05in25","0","24","1","1","3","1","","0","1","0","null","","","<div class = 'row'><div class = 'column'><img src = 'category1/CS9.png' width = '70%;'></div><div class = 'column'><img src = 'usneg/1280.bmp' width = '100%;'></div></div>","null","neg","CS","CS","1","category1/CS9.png","","","","",""
"","html-keyboard-response","36","205849","0.0-6.0-2.0-0.9","wzdkk0pc1n","one_one","1","indirect_first","0","in05in25","0","24","1","1","3","1","","0","1","0","null","","","<div class = 'row'><div class = 'column'><img src = 'category4/CS4.png' width = '70%;'></div><div class = 'column'><img src = 'uspos/5760.bmp' width = '100%;'></div></div>","null","pos","CS","CS","4","category4/CS4.png","","","","",""
"","html-keyboard-response","37","208357","0.0-6.0-2.0-0.10","wzdkk0pc1n","one_one","1","indirect_first","0","in05in25","0","24","1","1","3","1","","0","1","0","null","","","<div class = 'row'><div class = 'column'><img src = 'category3/CS4.png' width = '70%;'></div><div class = 'column'><img src = 'uspos/2341.bmp' width = '100%;'></div></div>","null","pos","CS","CS","3","category3/CS4.png","","","","",""
"","html-keyboard-response","38","210867","0.0-6.0-2.0-0.11","wzdkk0pc1n","one_one","1","indirect_first","0","in05in25","0","24","1","1","3","1","","0","1","0","null","","","<div class = 'row'><div class = 'column'><img src = 'uspos/5760.bmp' width = '100%;'></div><div class = 'column'><img src = 'category4/CS4.png' width = '70%;'></div></div>","null","pos","CS","CS","4","category4/CS4.png","","","","",""
"","html-keyboard-response","39","213376","0.0-6.0-2.0-0.12","wzdkk0pc1n","one_one","1","indirect_first","0","in05in25","0","24","1","1","3","1","","0","1","0","null","","","<div class = 'row'><div class = 'column'><img src = 'usneg/6212.bmp' width = '100%;'></div><div class = 'column'><img src = 'category2/CS1.png' width = '70%;'></div></div>","null","neg","CS","CS","2","category2/CS1.png","","","","",""
"","html-keyboard-response","40","215886","0.0-6.0-2.0-0.13","wzdkk0pc1n","one_one","1","indirect_first","0","in05in25","0","24","1","1","3","1","","0","1","0","null","","","<div class = 'row'><div class = 'column'><img src = 'category3/CS4.png' width = '70%;'></div><div class = 'column'><img src = 'uspos/2341.bmp' width = '100%;'></div></div>","null","pos","CS","CS","3","category3/CS4.png","","","","",""
"","html-keyboard-response","41","218396","0.0-6.0-2.0-0.14","wzdkk0pc1n","one_one","1","indirect_first","0","in05in25","0","24","1","1","3","1","","0","1","0","null","","","<div class = 'row'><div class = 'column'><img src = 'category2/CS1.png' width = '70%;'></div><div class = 'column'><img src = 'usneg/6212.bmp' width = '100%;'></div></div>","null","neg","CS","CS","2","category2/CS1.png","","","","",""
"","html-keyboard-response","42","220908","0.0-6.0-2.0-0.15","wzdkk0pc1n","one_one","1","indirect_first","0","in05in25","0","24","1","1","3","1","","0","1","0","null","","","<div class = 'row'><div class = 'column'><img src = 'category3/CS4.png' width = '70%;'></div><div class = 'column'><img src = 'uspos/2341.bmp' width = '100%;'></div></div>","null","pos","CS","CS","3","category3/CS4.png","","","","",""
"","html-keyboard-response","43","223411","0.0-6.0-2.0-0.16","wzdkk0pc1n","one_one","1","indirect_first","0","in05in25","0","24","1","1","3","1","","0","1","0","null","","","<div class = 'row'><div class = 'column'><img src = 'category1/CS9.png' width = '70%;'></div><div class = 'column'><img src = 'usneg/1280.bmp' width = '100%;'></div></div>","null","neg","CS","CS","1","category1/CS9.png","","","","",""
"","html-keyboard-response","44","225920","0.0-6.0-2.0-0.17","wzdkk0pc1n","one_one","1","indirect_first","0","in05in25","0","24","1","1","3","1","","0","1","0","null","","","<div class = 'row'><div class = 'column'><img src = 'category2/CS1.png' width = '70%;'></div><div class = 'column'><img src = 'usneg/6212.bmp' width = '100%;'></div></div>","null","neg","CS","CS","2","category2/CS1.png","","","","",""
"","html-keyboard-response","45","228427","0.0-6.0-2.0-0.18","wzdkk0pc1n","one_one","1","indirect_first","0","in05in25","0","24","1","1","3","1","","0","1","0","null","","","<div class = 'row'><div class = 'column'><img src = 'usneg/1280.bmp' width = '100%;'></div><div class = 'column'><img src = 'category1/CS9.png' width = '70%;'></div></div>","null","neg","CS","CS","1","category1/CS9.png","","","","",""
"","html-keyboard-response","46","230938","0.0-6.0-2.0-0.19","wzdkk0pc1n","one_one","1","indirect_first","0","in05in25","0","24","1","1","3","1","","0","1","0","null","","","<div class = 'row'><div class = 'column'><img src = 'category3/CS4.png' width = '70%;'></div><div class = 'column'><img src = 'uspos/2341.bmp' width = '100%;'></div></div>","null","pos","CS","CS","3","category3/CS4.png","","","","",""
"","survey-html-form","47","234625","0.0-6.0-3.0","wzdkk0pc1n","one_one","1","indirect_first","0","in05in25","0","24","1","1","3","1","","0","1","0","3182.4849999975413","","{}","","","","","","","","","","","",""
"","html-keyboard-response","48","238634","0.0-6.0-4.0-0.0","wzdkk0pc1n","one_one","1","indirect_first","0","in05in25","0","24","1","1","3","1","","0","1","0","null","","","<div class = 'row'><div class = 'column'><img src = 'category4/CS4.png' width = '70%;'></div><div class = 'column'><img src = 'uspos/5760.bmp' width = '100%;'></div></div>","null","pos","CS","CS","4","category4/CS4.png","","","","",""
"","html-keyboard-response","49","241145","0.0-6.0-4.0-0.1","wzdkk0pc1n","one_one","1","indirect_first","0","in05in25","0","24","1","1","3","1","","0","1","0","null","","","<div class = 'row'><div class = 'column'><img src = 'usneg/6212.bmp' width = '100%;'></div><div class = 'column'><img src = 'category2/CS1.png' width = '70%;'></div></div>","null","neg","CS","CS","2","category2/CS1.png","","","","",""
"","html-keyboard-response","50","243650","0.0-6.0-4.0-0.2","wzdkk0pc1n","one_one","1","indirect_first","0","in05in25","0","24","1","1","3","1","","0","1","0","null","","","<div class = 'row'><div class = 'column'><img src = 'uspos/5760.bmp' width = '100%;'></div><div class = 'column'><img src = 'category4/CS4.png' width = '70%;'></div></div>","null","pos","CS","CS","4","category4/CS4.png","","","","",""
"","html-keyboard-response","51","246160","0.0-6.0-4.0-0.3","wzdkk0pc1n","one_one","1","indirect_first","0","in05in25","0","24","1","1","3","1","","0","1","0","null","","","<div class = 'row'><div class = 'column'><img src = 'uspos/2341.bmp' width = '100%;'></div><div class = 'column'><img src = 'category3/CS4.png' width = '70%;'></div></div>","null","pos","CS","CS","3","category3/CS4.png","","","","",""
"","html-keyboard-response","52","248672","0.0-6.0-4.0-0.4","wzdkk0pc1n","one_one","1","indirect_first","0","in05in25","0","24","1","1","3","1","","0","1","0","null","","","<div class = 'row'><div class = 'column'><img src = 'category4/CS4.png' width = '70%;'></div><div class = 'column'><img src = 'uspos/5760.bmp' width = '100%;'></div></div>","null","pos","CS","CS","4","category4/CS4.png","","","","",""
"","html-keyboard-response","53","251181","0.0-6.0-4.0-0.5","wzdkk0pc1n","one_one","1","indirect_first","0","in05in25","0","24","1","1","3","1","","0","1","0","null","","","<div class = 'row'><div class = 'column'><img src = 'usneg/6212.bmp' width = '100%;'></div><div class = 'column'><img src = 'category2/CS1.png' width = '70%;'></div></div>","null","neg","CS","CS","2","category2/CS1.png","","","","",""
"","html-keyboard-response","54","253689","0.0-6.0-4.0-0.6","wzdkk0pc1n","one_one","1","indirect_first","0","in05in25","0","24","1","1","3","1","","0","1","0","null","","","<div class = 'row'><div class = 'column'><img src = 'category3/CS4.png' width = '70%;'></div><div class = 'column'><img src = 'uspos/2341.bmp' width = '100%;'></div></div>","null","pos","CS","CS","3","category3/CS4.png","","","","",""
"","html-keyboard-response","55","256198","0.0-6.0-4.0-0.7","wzdkk0pc1n","one_one","1","indirect_first","0","in05in25","0","24","1","1","3","1","","0","1","0","null","","","<div class = 'row'><div class = 'column'><img src = 'category2/CS1.png' width = '70%;'></div><div class = 'column'><img src = 'usneg/6212.bmp' width = '100%;'></div></div>","null","neg","CS","CS","2","category2/CS1.png","","","","",""
"","html-keyboard-response","56","258710","0.0-6.0-4.0-0.8","wzdkk0pc1n","one_one","1","indirect_first","0","in05in25","0","24","1","1","3","1","","0","1","0","null","","","<div class = 'row'><div class = 'column'><img src = 'category1/CS9.png' width = '70%;'></div><div class = 'column'><img src = 'usneg/1280.bmp' width = '100%;'></div></div>","null","neg","CS","CS","1","category1/CS9.png","","","","",""
"","html-keyboard-response","57","261217","0.0-6.0-4.0-0.9","wzdkk0pc1n","one_one","1","indirect_first","0","in05in25","0","24","1","1","3","1","","0","1","0","null","","","<div class = 'row'><div class = 'column'><img src = 'uspos/5760.bmp' width = '100%;'></div><div class = 'column'><img src = 'category4/CS4.png' width = '70%;'></div></div>","null","pos","CS","CS","4","category4/CS4.png","","","","",""
"","html-keyboard-response","58","263727","0.0-6.0-4.0-0.10","wzdkk0pc1n","one_one","1","indirect_first","0","in05in25","0","24","1","1","3","1","","0","1","0","null","","","<div class = 'row'><div class = 'column'><img src = 'category2/CS1.png' width = '70%;'></div><div class = 'column'><img src = 'usneg/6212.bmp' width = '100%;'></div></div>","null","neg","CS","CS","2","category2/CS1.png","","","","",""
"","html-keyboard-response","59","266234","0.0-6.0-4.0-0.11","wzdkk0pc1n","one_one","1","indirect_first","0","in05in25","0","24","1","1","3","1","","0","1","0","null","","","<div class = 'row'><div class = 'column'><img src = 'usneg/1280.bmp' width = '100%;'></div><div class = 'column'><img src = 'category1/CS9.png' width = '70%;'></div></div>","null","neg","CS","CS","1","category1/CS9.png","","","","",""
"","html-keyboard-response","60","268746","0.0-6.0-4.0-0.12","wzdkk0pc1n","one_one","1","indirect_first","0","in05in25","0","24","1","1","3","1","","0","1","0","null","","","<div class = 'row'><div class = 'column'><img src = 'category3/CS4.png' width = '70%;'></div><div class = 'column'><img src = 'uspos/2341.bmp' width = '100%;'></div></div>","null","pos","CS","CS","3","category3/CS4.png","","","","",""
"","html-keyboard-response","61","271258","0.0-6.0-4.0-0.13","wzdkk0pc1n","one_one","1","indirect_first","0","in05in25","0","24","1","1","3","1","","0","1","0","null","","","<div class = 'row'><div class = 'column'><img src = 'category1/CS9.png' width = '70%;'></div><div class = 'column'><img src = 'usneg/1280.bmp' width = '100%;'></div></div>","null","neg","CS","CS","1","category1/CS9.png","","","","",""
"","html-keyboard-response","62","273770","0.0-6.0-4.0-0.14","wzdkk0pc1n","one_one","1","indirect_first","0","in05in25","0","24","1","1","3","1","","0","1","0","null","","","<div class = 'row'><div class = 'column'><img src = 'category3/CS4.png' width = '70%;'></div><div class = 'column'><img src = 'uspos/2341.bmp' width = '100%;'></div></div>","null","pos","CS","CS","3","category3/CS4.png","","","","",""
"","html-keyboard-response","63","276273","0.0-6.0-4.0-0.15","wzdkk0pc1n","one_one","1","indirect_first","0","in05in25","0","24","1","1","3","1","","0","1","0","null","","","<div class = 'row'><div class = 'column'><img src = 'category4/CS4.png' width = '70%;'></div><div class = 'column'><img src = 'uspos/5760.bmp' width = '100%;'></div></div>","null","pos","CS","CS","4","category4/CS4.png","","","","",""
"","html-keyboard-response","64","278785","0.0-6.0-4.0-0.16","wzdkk0pc1n","one_one","1","indirect_first","0","in05in25","0","24","1","1","3","1","","0","1","0","null","","","<div class = 'row'><div class = 'column'><img src = 'usneg/6212.bmp' width = '100%;'></div><div class = 'column'><img src = 'category2/CS1.png' width = '70%;'></div></div>","null","neg","CS","CS","2","category2/CS1.png","","","","",""
"","html-keyboard-response","65","281296","0.0-6.0-4.0-0.17","wzdkk0pc1n","one_one","1","indirect_first","0","in05in25","0","24","1","1","3","1","","0","1","0","null","","","<div class = 'row'><div class = 'column'><img src = 'category1/CS9.png' width = '70%;'></div><div class = 'column'><img src = 'usneg/1280.bmp' width = '100%;'></div></div>","null","neg","CS","CS","1","category1/CS9.png","","","","",""
"","html-keyboard-response","66","283809","0.0-6.0-4.0-0.18","wzdkk0pc1n","one_one","1","indirect_first","0","in05in25","0","24","1","1","3","1","","0","1","0","null","","","<div class = 'row'><div class = 'column'><img src = 'uspos/2341.bmp' width = '100%;'></div><div class = 'column'><img src = 'category3/CS4.png' width = '70%;'></div></div>","null","pos","CS","CS","3","category3/CS4.png","","","","",""
"","html-keyboard-response","67","286318","0.0-6.0-4.0-0.19","wzdkk0pc1n","one_one","1","indirect_first","0","in05in25","0","24","1","1","3","1","","0","1","0","null","","","<div class = 'row'><div class = 'column'><img src = 'usneg/1280.bmp' width = '100%;'></div><div class = 'column'><img src = 'category1/CS9.png' width = '70%;'></div></div>","null","neg","CS","CS","1","category1/CS9.png","","","","",""
"","survey-html-form","68","289384","0.0-6.0-5.0","wzdkk0pc1n","one_one","1","indirect_first","0","in05in25","0","24","1","1","3","1","","0","1","0","2560.769999981858","","{}","","","","","","","","","","","",""
"","html-keyboard-response","69","293394","0.0-6.0-6.0-0.0","wzdkk0pc1n","one_one","1","indirect_first","0","in05in25","0","24","1","1","3","1","","0","1","0","null","","","<div class = 'row'><div class = 'column'><img src = 'uspos/2341.bmp' width = '100%;'></div><div class = 'column'><img src = 'category3/CS4.png' width = '70%;'></div></div>","null","pos","CS","CS","3","category3/CS4.png","","","","",""
"","html-keyboard-response","70","295906","0.0-6.0-6.0-0.1","wzdkk0pc1n","one_one","1","indirect_first","0","in05in25","0","24","1","1","3","1","","0","1","0","null","","","<div class = 'row'><div class = 'column'><img src = 'category4/CS4.png' width = '70%;'></div><div class = 'column'><img src = 'uspos/5760.bmp' width = '100%;'></div></div>","null","pos","CS","CS","4","category4/CS4.png","","","","",""
"","html-keyboard-response","71","298417","0.0-6.0-6.0-0.2","wzdkk0pc1n","one_one","1","indirect_first","0","in05in25","0","24","1","1","3","1","","0","1","0","null","","","<div class = 'row'><div class = 'column'><img src = 'category1/CS9.png' width = '70%;'></div><div class = 'column'><img src = 'usneg/1280.bmp' width = '100%;'></div></div>","null","neg","CS","CS","1","category1/CS9.png","","","","",""
"","html-keyboard-response","72","300928","0.0-6.0-6.0-0.3","wzdkk0pc1n","one_one","1","indirect_first","0","in05in25","0","24","1","1","3","1","","0","1","0","null","","","<div class = 'row'><div class = 'column'><img src = 'uspos/5760.bmp' width = '100%;'></div><div class = 'column'><img src = 'category4/CS4.png' width = '70%;'></div></div>","null","pos","CS","CS","4","category4/CS4.png","","","","",""
"","html-keyboard-response","73","303431","0.0-6.0-6.0-0.4","wzdkk0pc1n","one_one","1","indirect_first","0","in05in25","0","24","1","1","3","1","","0","1","0","null","","","<div class = 'row'><div class = 'column'><img src = 'category2/CS1.png' width = '70%;'></div><div class = 'column'><img src = 'usneg/6212.bmp' width = '100%;'></div></div>","null","neg","CS","CS","2","category2/CS1.png","","","","",""
"","html-keyboard-response","74","305943","0.0-6.0-6.0-0.5","wzdkk0pc1n","one_one","1","indirect_first","0","in05in25","0","24","1","1","3","1","","0","1","0","null","","","<div class = 'row'><div class = 'column'><img src = 'category1/CS9.png' width = '70%;'></div><div class = 'column'><img src = 'usneg/1280.bmp' width = '100%;'></div></div>","null","neg","CS","CS","1","category1/CS9.png","","","","",""
"","html-keyboard-response","75","308455","0.0-6.0-6.0-0.6","wzdkk0pc1n","one_one","1","indirect_first","0","in05in25","0","24","1","1","3","1","","0","1","0","null","","","<div class = 'row'><div class = 'column'><img src = 'category2/CS1.png' width = '70%;'></div><div class = 'column'><img src = 'usneg/6212.bmp' width = '100%;'></div></div>","null","neg","CS","CS","2","category2/CS1.png","","","","",""
"","html-keyboard-response","76","310962","0.0-6.0-6.0-0.7","wzdkk0pc1n","one_one","1","indirect_first","0","in05in25","0","24","1","1","3","1","","0","1","0","null","","","<div class = 'row'><div class = 'column'><img src = 'usneg/1280.bmp' width = '100%;'></div><div class = 'column'><img src = 'category1/CS9.png' width = '70%;'></div></div>","null","neg","CS","CS","1","category1/CS9.png","","","","",""
"","html-keyboard-response","77","313474","0.0-6.0-6.0-0.8","wzdkk0pc1n","one_one","1","indirect_first","0","in05in25","0","24","1","1","3","1","","0","1","0","null","","","<div class = 'row'><div class = 'column'><img src = 'category3/CS4.png' width = '70%;'></div><div class = 'column'><img src = 'uspos/2341.bmp' width = '100%;'></div></div>","null","pos","CS","CS","3","category3/CS4.png","","","","",""
"","html-keyboard-response","78","315985","0.0-6.0-6.0-0.9","wzdkk0pc1n","one_one","1","indirect_first","0","in05in25","0","24","1","1","3","1","","0","1","0","null","","","<div class = 'row'><div class = 'column'><img src = 'category2/CS1.png' width = '70%;'></div><div class = 'column'><img src = 'usneg/6212.bmp' width = '100%;'></div></div>","null","neg","CS","CS","2","category2/CS1.png","","","","",""
"","html-keyboard-response","79","318489","0.0-6.0-6.0-0.10","wzdkk0pc1n","one_one","1","indirect_first","0","in05in25","0","24","1","1","3","1","","0","1","0","null","","","<div class = 'row'><div class = 'column'><img src = 'category1/CS9.png' width = '70%;'></div><div class = 'column'><img src = 'usneg/1280.bmp' width = '100%;'></div></div>","null","neg","CS","CS","1","category1/CS9.png","","","","",""
"","html-keyboard-response","80","321001","0.0-6.0-6.0-0.11","wzdkk0pc1n","one_one","1","indirect_first","0","in05in25","0","24","1","1","3","1","","0","1","0","null","","","<div class = 'row'><div class = 'column'><img src = 'uspos/2341.bmp' width = '100%;'></div><div class = 'column'><img src = 'category3/CS4.png' width = '70%;'></div></div>","null","pos","CS","CS","3","category3/CS4.png","","","","",""
"","html-keyboard-response","81","323506","0.0-6.0-6.0-0.12","wzdkk0pc1n","one_one","1","indirect_first","0","in05in25","0","24","1","1","3","1","","0","1","0","null","","","<div class = 'row'><div class = 'column'><img src = 'usneg/6212.bmp' width = '100%;'></div><div class = 'column'><img src = 'category2/CS1.png' width = '70%;'></div></div>","null","neg","CS","CS","2","category2/CS1.png","","","","",""
"","html-keyboard-response","82","326014","0.0-6.0-6.0-0.13","wzdkk0pc1n","one_one","1","indirect_first","0","in05in25","0","24","1","1","3","1","","0","1","0","null","","","<div class = 'row'><div class = 'column'><img src = 'uspos/5760.bmp' width = '100%;'></div><div class = 'column'><img src = 'category4/CS4.png' width = '70%;'></div></div>","null","pos","CS","CS","4","category4/CS4.png","","","","",""
"","html-keyboard-response","83","328523","0.0-6.0-6.0-0.14","wzdkk0pc1n","one_one","1","indirect_first","0","in05in25","0","24","1","1","3","1","","0","1","0","null","","","<div class = 'row'><div class = 'column'><img src = 'category3/CS4.png' width = '70%;'></div><div class = 'column'><img src = 'uspos/2341.bmp' width = '100%;'></div></div>","null","pos","CS","CS","3","category3/CS4.png","","","","",""
"","html-keyboard-response","84","331035","0.0-6.0-6.0-0.15","wzdkk0pc1n","one_one","1","indirect_first","0","in05in25","0","24","1","1","3","1","","0","1","0","null","","","<div class = 'row'><div class = 'column'><img src = 'category4/CS4.png' width = '70%;'></div><div class = 'column'><img src = 'uspos/5760.bmp' width = '100%;'></div></div>","null","pos","CS","CS","4","category4/CS4.png","","","","",""
"","html-keyboard-response","85","333543","0.0-6.0-6.0-0.16","wzdkk0pc1n","one_one","1","indirect_first","0","in05in25","0","24","1","1","3","1","","0","1","0","null","","","<div class = 'row'><div class = 'column'><img src = 'uspos/2341.bmp' width = '100%;'></div><div class = 'column'><img src = 'category3/CS4.png' width = '70%;'></div></div>","null","pos","CS","CS","3","category3/CS4.png","","","","",""
"","html-keyboard-response","86","336054","0.0-6.0-6.0-0.17","wzdkk0pc1n","one_one","1","indirect_first","0","in05in25","0","24","1","1","3","1","","0","1","0","null","","","<div class = 'row'><div class = 'column'><img src = 'usneg/1280.bmp' width = '100%;'></div><div class = 'column'><img src = 'category1/CS9.png' width = '70%;'></div></div>","null","neg","CS","CS","1","category1/CS9.png","","","","",""
"","html-keyboard-response","87","338563","0.0-6.0-6.0-0.18","wzdkk0pc1n","one_one","1","indirect_first","0","in05in25","0","24","1","1","3","1","","0","1","0","null","","","<div class = 'row'><div class = 'column'><img src = 'usneg/6212.bmp' width = '100%;'></div><div class = 'column'><img src = 'category2/CS1.png' width = '70%;'></div></div>","null","neg","CS","CS","2","category2/CS1.png","","","","",""
"","html-keyboard-response","88","341074","0.0-6.0-6.0-0.19","wzdkk0pc1n","one_one","1","indirect_first","0","in05in25","0","24","1","1","3","1","","0","1","0","null","","","<div class = 'row'><div class = 'column'><img src = 'uspos/5760.bmp' width = '100%;'></div><div class = 'column'><img src = 'category4/CS4.png' width = '70%;'></div></div>","null","pos","CS","CS","4","category4/CS4.png","","","","",""
"","html-keyboard-response","89","401624","0.0-7.0","wzdkk0pc1n","one_one","1","indirect_first","0","in05in25","0","24","1","1","3","1","","0","1","0","60043.6950000003","","","<p>Sie sehen nun die chinesischen Zeichen nur ganz kurz. Danach sehen Sie die jeweilige Aussprache der Zeichen als Silbe auf dem Bildschrim. Ihre Aufgabe ist es, für jede Silbe anzugeben, ob diese etwas angenehmes, oder unangenehmes bedeuten könnte. Verlassen Sie sich hier vor allem auf Ihre Intuition.<br><br>Die Zeichen werden nur zur Orientierung dargestellt, beachten Sie sie deshalb nicht. Konzentrieren Sie sich vor allem auf die Silben. <br>Reagieren Sie mit folgenden zwei Tasten: <br><br><b>'D' </b> wenn die Silbe etwas <b>unangenehmes</b> bedeuten könnte. <br><b>'K'</b> wenn die Silbe etwas <b>angenehmes</b> bedeuten könnte. <br><br>Bitte legen Sie nun den Zeigefinger der linken Hand auf die Taste 'D' und den Zeigefinger der rechten Hand auf die Taste 'K'. <br>Reagieren Sie auf jede Silbe so schnell wie möglich. Uns interessiert Ihre spontane Reaktion. <br> <br> <br>Drücken Sie 'D' oder 'K', um die nächste Aufgabe zu starten. </p>","75","","","","","","","","","",""
"","html-keyboard-response","90","404631","0.0-8.0-0.0","wzdkk0pc1n","one_one","1","indirect_first","0","in05in25","0","24","1","1","3","1","","0","1","0","null","","","<div style=""font-size:60px;"">+</div>","null","","","","","","","","","",""
"","html-keyboard-response","91","404725","0.0-8.0-1.0","wzdkk0pc1n","one_one","1","indirect_first","0","in05in25","0","24","1","1","3","1","","0","1","0","null","","","<img src = 'category3/CS9.png' width = '100%;'>","null","","","","","","","","","",""
"","html-keyboard-response","92","404978","0.0-8.0-2.0","wzdkk0pc1n","one_one","1","indirect_first","0","in05in25","0","24","1","1","3","1","","0","1","0","null","","","<img src = 'targets/16.png' width = '100%;'>","null","","","","","","","","","",""
"","html-keyboard-response","93","408328","0.0-8.0-3.0","wzdkk0pc1n","one_one","1","indirect_first","0","in05in25","0","24","1","1","3","1","","0","1","0","3349.3599999928847","","","<img src = 'targets/mask.png' width = '100%;'>","68","pos","GS","GSold","3","category3/CS9.png","targets/16.png","0","indirect","0",""
"","html-keyboard-response","94","409835","0.0-8.0-0.1","wzdkk0pc1n","one_one","1","indirect_first","0","in05in25","0","24","1","1","3","1","","0","1","0","null","","","<div style=""font-size:60px;"">+</div>","null","","","","","","","","","",""
"","html-keyboard-response","95","409931","0.0-8.0-1.1","wzdkk0pc1n","one_one","1","indirect_first","0","in05in25","0","24","1","1","3","1","","0","1","0","null","","","<img src = 'category1/CS5.png' width = '100%;'>","null","","","","","","","","","",""
"","html-keyboard-response","96","410187","0.0-8.0-2.1","wzdkk0pc1n","one_one","1","indirect_first","0","in05in25","0","24","1","1","3","1","","0","1","0","null","","","<img src = 'targets/32.png' width = '100%;'>","null","","","","","","","","","",""
"","html-keyboard-response","97","412337","0.0-8.0-3.1","wzdkk0pc1n","one_one","1","indirect_first","0","in05in25","0","24","1","1","3","1","","0","1","0","2149.280000012368","","","<img src = 'targets/mask.png' width = '100%;'>","68","neg","GS","GSold","1","category1/CS5.png","targets/32.png","0","indirect","1",""
"","html-keyboard-response","98","413843","0.0-8.0-0.2","wzdkk0pc1n","one_one","1","indirect_first","0","in05in25","0","24","1","1","3","1","","0","1","0","null","","","<div style=""font-size:60px;"">+</div>","null","","","","","","","","","",""
"","html-keyboard-response","99","413935","0.0-8.0-1.2","wzdkk0pc1n","one_one","1","indirect_first","0","in05in25","0","24","1","1","3","1","","0","1","0","null","","","<img src = 'category4/CS4.png' width = '100%;'>","null","","","","","","","","","",""
"","html-keyboard-response","100","414193","0.0-8.0-2.2","wzdkk0pc1n","one_one","1","indirect_first","0","in05in25","0","24","1","1","3","1","","0","1","0","null","","","<img src = 'targets/44.png' width = '100%;'>","null","","","","","","","","","",""
"","html-keyboard-response","101","415648","0.0-8.0-3.2","wzdkk0pc1n","one_one","1","indirect_first","0","in05in25","0","24","1","1","3","1","","0","1","0","1453.9749999530613","","","<img src = 'targets/mask.png' width = '100%;'>","75","pos","CS","CS","4","category4/CS4.png","targets/44.png","1","indirect","2",""
"","html-keyboard-response","102","417151","0.0-8.0-0.3","wzdkk0pc1n","one_one","1","indirect_first","0","in05in25","0","24","1","1","3","1","","0","1","0","null","","","<div style=""font-size:60px;"">+</div>","null","","","","","","","","","",""
"","html-keyboard-response","103","417245","0.0-8.0-1.3","wzdkk0pc1n","one_one","1","indirect_first","0","in05in25","0","24","1","1","3","1","","0","1","0","null","","","<img src = 'category3/CS4.png' width = '100%;'>","null","","","","","","","","","",""
"","html-keyboard-response","104","417501","0.0-8.0-2.3","wzdkk0pc1n","one_one","1","indirect_first","0","in05in25","0","24","1","1","3","1","","0","1","0","null","","","<img src = 'targets/5.png' width = '100%;'>","null","","","","","","","","","",""
"","html-keyboard-response","105","419097","0.0-8.0-3.3","wzdkk0pc1n","one_one","1","indirect_first","0","in05in25","0","24","1","1","3","1","","0","1","0","1594.7449998930097","","","<img src = 'targets/mask.png' width = '100%;'>","75","pos","CS","CS","3","category3/CS4.png","targets/5.png","1","indirect","3",""
"","html-keyboard-response","106","420603","0.0-8.0-0.4","wzdkk0pc1n","one_one","1","indirect_first","0","in05in25","0","24","1","1","3","1","","0","1","0","null","","","<div style=""font-size:60px;"">+</div>","null","","","","","","","","","",""
"","html-keyboard-response","107","420695","0.0-8.0-1.4","wzdkk0pc1n","one_one","1","indirect_first","0","in05in25","0","24","1","1","3","1","","0","1","0","null","","","<img src = 'category4/CS1.png' width = '100%;'>","null","","","","","","","","","",""
"","html-keyboard-response","108","420954","0.0-8.0-2.4","wzdkk0pc1n","one_one","1","indirect_first","0","in05in25","0","24","1","1","3","1","","0","1","0","null","","","<img src = 'targets/29.png' width = '100%;'>","null","","","","","","","","","",""
"","html-keyboard-response","109","421985","0.0-8.0-3.4","wzdkk0pc1n","one_one","1","indirect_first","0","in05in25","0","24","1","1","3","1","","0","1","0","1028.9750000229105","","","<img src = 'targets/mask.png' width = '100%;'>","75","pos","GS","GSold","4","category4/CS1.png","targets/29.png","1","indirect","4",""
"","html-keyboard-response","110","423489","0.0-8.0-0.5","wzdkk0pc1n","one_one","1","indirect_first","0","in05in25","0","24","1","1","3","1","","0","1","0","null","","","<div style=""font-size:60px;"">+</div>","null","","","","","","","","","",""
"","html-keyboard-response","111","423581","0.0-8.0-1.5","wzdkk0pc1n","one_one","1","indirect_first","0","in05in25","0","24","1","1","3","1","","0","1","0","null","","","<img src = 'category2/CS6.png' width = '100%;'>","null","","","","","","","","","",""
"","html-keyboard-response","112","423837","0.0-8.0-2.5","wzdkk0pc1n","one_one","1","indirect_first","0","in05in25","0","24","1","1","3","1","","0","1","0","null","","","<img src = 'targets/46.png' width = '100%;'>","null","","","","","","","","","",""
"","html-keyboard-response","113","425176","0.0-8.0-3.5","wzdkk0pc1n","one_one","1","indirect_first","0","in05in25","0","24","1","1","3","1","","0","1","0","1337.595000048168","","","<img src = 'targets/mask.png' width = '100%;'>","75","neg","GS","GSold","2","category2/CS6.png","targets/46.png","1","indirect","5",""
"","html-keyboard-response","114","426681","0.0-8.0-0.6","wzdkk0pc1n","one_one","1","indirect_first","0","in05in25","0","24","1","1","3","1","","0","1","0","null","","","<div style=""font-size:60px;"">+</div>","null","","","","","","","","","",""
"","html-keyboard-response","115","426775","0.0-8.0-1.6","wzdkk0pc1n","one_one","1","indirect_first","0","in05in25","0","24","1","1","3","1","","0","1","0","null","","","<img src = 'category2/CS2.png' width = '100%;'>","null","","","","","","","","","",""
"","html-keyboard-response","116","427030","0.0-8.0-2.6","wzdkk0pc1n","one_one","1","indirect_first","0","in05in25","0","24","1","1","3","1","","0","1","0","null","","","<img src = 'targets/37.png' width = '100%;'>","null","","","","","","","","","",""
"","html-keyboard-response","117","428137","0.0-8.0-3.6","wzdkk0pc1n","one_one","1","indirect_first","0","in05in25","0","24","1","1","3","1","","0","1","0","1104.0299999294803","","","<img src = 'targets/mask.png' width = '100%;'>","68","neg","GS","GSold","2","category2/CS2.png","targets/37.png","0","indirect","6",""
"","html-keyboard-response","118","429643","0.0-8.0-0.7","wzdkk0pc1n","one_one","1","indirect_first","0","in05in25","0","24","1","1","3","1","","0","1","0","null","","","<div style=""font-size:60px;"">+</div>","null","","","","","","","","","",""
"","html-keyboard-response","119","429739","0.0-8.0-1.7","wzdkk0pc1n","one_one","1","indirect_first","0","in05in25","0","24","1","1","3","1","","0","1","0","null","","","<img src = 'category1/CS6.png' width = '100%;'>","null","","","","","","","","","",""
"","html-keyboard-response","120","429995","0.0-8.0-2.7","wzdkk0pc1n","one_one","1","indirect_first","0","in05in25","0","24","1","1","3","1","","0","1","0","null","","","<img src = 'targets/28.png' width = '100%;'>","null","","","","","","","","","",""
"","html-keyboard-response","121","430793","0.0-8.0-3.7","wzdkk0pc1n","one_one","1","indirect_first","0","in05in25","0","24","1","1","3","1","","0","1","0","796.680000028573","","","<img src = 'targets/mask.png' width = '100%;'>","75","neg","GS","GSold","1","category1/CS6.png","targets/28.png","1","indirect","7",""
"","html-keyboard-response","122","432302","0.0-8.0-0.8","wzdkk0pc1n","one_one","1","indirect_first","0","in05in25","0","24","1","1","3","1","","0","1","0","null","","","<div style=""font-size:60px;"">+</div>","null","","","","","","","","","",""
"","html-keyboard-response","123","432398","0.0-8.0-1.8","wzdkk0pc1n","one_one","1","indirect_first","0","in05in25","0","24","1","1","3","1","","0","1","0","null","","","<img src = 'category4/CS5.png' width = '100%;'>","null","","","","","","","","","",""
"","html-keyboard-response","124","432655","0.0-8.0-2.8","wzdkk0pc1n","one_one","1","indirect_first","0","in05in25","0","24","1","1","3","1","","0","1","0","null","","","<img src = 'targets/21.png' width = '100%;'>","null","","","","","","","","","",""
"","html-keyboard-response","125","434569","0.0-8.0-3.8","wzdkk0pc1n","one_one","1","indirect_first","0","in05in25","0","24","1","1","3","1","","0","1","0","1912.8800000762567","","","<img src = 'targets/mask.png' width = '100%;'>","68","pos","GS","GSold","4","category4/CS5.png","targets/21.png","0","indirect","8",""
"","html-keyboard-response","126","436074","0.0-8.0-0.9","wzdkk0pc1n","one_one","1","indirect_first","0","in05in25","0","24","1","1","3","1","","0","1","0","null","","","<div style=""font-size:60px;"">+</div>","null","","","","","","","","","",""
"","html-keyboard-response","127","436170","0.0-8.0-1.9","wzdkk0pc1n","one_one","1","indirect_first","0","in05in25","0","24","1","1","3","1","","0","1","0","null","","","<img src = 'category3/CS8.png' width = '100%;'>","null","","","","","","","","","",""
"","html-keyboard-response","128","436428","0.0-8.0-2.9","wzdkk0pc1n","one_one","1","indirect_first","0","in05in25","0","24","1","1","3","1","","0","1","0","null","","","<img src = 'targets/20.png' width = '100%;'>","null","","","","","","","","","",""
"","html-keyboard-response","129","437513","0.0-8.0-3.9","wzdkk0pc1n","one_one","1","indirect_first","0","in05in25","0","24","1","1","3","1","","0","1","0","1084.6499999752268","","","<img src = 'targets/mask.png' width = '100%;'>","68","pos","GS","GSold","3","category3/CS8.png","targets/20.png","0","indirect","9",""
"","html-keyboard-response","130","439016","0.0-8.0-0.10","wzdkk0pc1n","one_one","1","indirect_first","0","in05in25","0","24","1","1","3","1","","0","1","0","null","","","<div style=""font-size:60px;"">+</div>","null","","","","","","","","","",""
"","html-keyboard-response","131","439112","0.0-8.0-1.10","wzdkk0pc1n","one_one","1","indirect_first","0","in05in25","0","24","1","1","3","1","","0","1","0","null","","","<img src = 'category2/CS10.png' width = '100%;'>","null","","","","","","","","","",""
"","html-keyboard-response","132","439367","0.0-8.0-2.10","wzdkk0pc1n","one_one","1","indirect_first","0","in05in25","0","24","1","1","3","1","","0","1","0","null","","","<img src = 'targets/10.png' width = '100%;'>","null","","","","","","","","","",""
"","html-keyboard-response","133","440249","0.0-8.0-3.10","wzdkk0pc1n","one_one","1","indirect_first","0","in05in25","0","24","1","1","3","1","","0","1","0","881.1599999899045","","","<img src = 'targets/mask.png' width = '100%;'>","75","neg","GS","GSold","2","category2/CS10.png","targets/10.png","1","indirect","10",""
"","html-keyboard-response","134","441756","0.0-8.0-0.11","wzdkk0pc1n","one_one","1","indirect_first","0","in05in25","0","24","1","1","3","1","","0","1","0","null","","","<div style=""font-size:60px;"">+</div>","null","","","","","","","","","",""
"","html-keyboard-response","135","441849","0.0-8.0-1.11","wzdkk0pc1n","one_one","1","indirect_first","0","in05in25","0","24","1","1","3","1","","0","1","0","null","","","<img src = 'category4/CS10.png' width = '100%;'>","null","","","","","","","","","",""
"","html-keyboard-response","136","442105","0.0-8.0-2.11","wzdkk0pc1n","one_one","1","indirect_first","0","in05in25","0","24","1","1","3","1","","0","1","0","null","","","<img src = 'targets/47.png' width = '100%;'>","null","","","","","","","","","",""
"","html-keyboard-response","137","443185","0.0-8.0-3.11","wzdkk0pc1n","one_one","1","indirect_first","0","in05in25","0","24","1","1","3","1","","0","1","0","1079.6299999346957","","","<img src = 'targets/mask.png' width = '100%;'>","68","pos","GS","GSold","4","category4/CS10.png","targets/47.png","0","indirect","11",""
"","html-keyboard-response","138","444688","0.0-8.0-0.12","wzdkk0pc1n","one_one","1","indirect_first","0","in05in25","0","24","1","1","3","1","","0","1","0","null","","","<div style=""font-size:60px;"">+</div>","null","","","","","","","","","",""
"","html-keyboard-response","139","444782","0.0-8.0-1.12","wzdkk0pc1n","one_one","1","indirect_first","0","in05in25","0","24","1","1","3","1","","0","1","0","null","","","<img src = 'category2/CS1.png' width = '100%;'>","null","","","","","","","","","",""
"","html-keyboard-response","140","445040","0.0-8.0-2.12","wzdkk0pc1n","one_one","1","indirect_first","0","in05in25","0","24","1","1","3","1","","0","1","0","null","","","<img src = 'targets/40.png' width = '100%;'>","null","","","","","","","","","",""
"","html-keyboard-response","141","446281","0.0-8.0-3.12","wzdkk0pc1n","one_one","1","indirect_first","0","in05in25","0","24","1","1","3","1","","0","1","0","1240.2700000675395","","","<img src = 'targets/mask.png' width = '100%;'>","75","neg","CS","CS","2","category2/CS1.png","targets/40.png","1","indirect","12",""
"","html-keyboard-response","142","447787","0.0-8.0-0.13","wzdkk0pc1n","one_one","1","indirect_first","0","in05in25","0","24","1","1","3","1","","0","1","0","null","","","<div style=""font-size:60px;"">+</div>","null","","","","","","","","","",""
"","html-keyboard-response","143","447882","0.0-8.0-1.13","wzdkk0pc1n","one_one","1","indirect_first","0","in05in25","0","24","1","1","3","1","","0","1","0","null","","","<img src = 'category3/CS1.png' width = '100%;'>","null","","","","","","","","","",""
"","html-keyboard-response","144","448141","0.0-8.0-2.13","wzdkk0pc1n","one_one","1","indirect_first","0","in05in25","0","24","1","1","3","1","","0","1","0","null","","","<img src = 'targets/13.png' width = '100%;'>","null","","","","","","","","","",""
"","html-keyboard-response","145","448795","0.0-8.0-3.13","wzdkk0pc1n","one_one","1","indirect_first","0","in05in25","0","24","1","1","3","1","","0","1","0","652.280000038445","","","<img src = 'targets/mask.png' width = '100%;'>","75","pos","GS","GSold","3","category3/CS1.png","targets/13.png","1","indirect","13",""
"","html-keyboard-response","146","450298","0.0-8.0-0.14","wzdkk0pc1n","one_one","1","indirect_first","0","in05in25","0","24","1","1","3","1","","0","1","0","null","","","<div style=""font-size:60px;"">+</div>","null","","","","","","","","","",""
"","html-keyboard-response","147","450394","0.0-8.0-1.14","wzdkk0pc1n","one_one","1","indirect_first","0","in05in25","0","24","1","1","3","1","","0","1","0","null","","","<img src = 'category1/CS2.png' width = '100%;'>","null","","","","","","","","","",""
"","html-keyboard-response","148","450650","0.0-8.0-2.14","wzdkk0pc1n","one_one","1","indirect_first","0","in05in25","0","24","1","1","3","1","","0","1","0","null","","","<img src = 'targets/4.png' width = '100%;'>","null","","","","","","","","","",""
"","html-keyboard-response","149","451865","0.0-8.0-3.14","wzdkk0pc1n","one_one","1","indirect_first","0","in05in25","0","24","1","1","3","1","","0","1","0","1213.9500000048429","","","<img src = 'targets/mask.png' width = '100%;'>","75","neg","GS","GSold","1","category1/CS2.png","targets/4.png","1","indirect","14",""
"","html-keyboard-response","150","453368","0.0-8.0-0.15","wzdkk0pc1n","one_one","1","indirect_first","0","in05in25","0","24","1","1","3","1","","0","1","0","null","","","<div style=""font-size:60px;"">+</div>","null","","","","","","","","","",""
"","html-keyboard-response","151","453464","0.0-8.0-1.15","wzdkk0pc1n","one_one","1","indirect_first","0","in05in25","0","24","1","1","3","1","","0","1","0","null","","","<img src = 'category1/CS9.png' width = '100%;'>","null","","","","","","","","","",""
"","html-keyboard-response","152","453720","0.0-8.0-2.15","wzdkk0pc1n","one_one","1","indirect_first","0","in05in25","0","24","1","1","3","1","","0","1","0","null","","","<img src = 'targets/33.png' width = '100%;'>","null","","","","","","","","","",""
"","html-keyboard-response","153","453954","0.0-8.0-3.15","wzdkk0pc1n","one_one","1","indirect_first","0","in05in25","0","24","1","1","3","1","","0","1","0","232.3499999474734","","","<img src = 'targets/mask.png' width = '100%;'>","68","neg","CS","CS","1","category1/CS9.png","targets/33.png","0","indirect","15",""
"","survey-html-form","154","456226","0.0-9.0","wzdkk0pc1n","one_one","1","indirect_first","0","in05in25","0","24","1","1","3","1","","0","1","0","1769.6449999930337","","{}","","","","","","","","","","","",""
"","html-keyboard-response","155","459234","0.0-10.0-0.0","wzdkk0pc1n","one_one","1","indirect_first","0","in05in25","0","24","1","1","3","1","","0","1","0","null","","","<div style=""font-size:60px;"">+</div>","null","","","","","","","","","",""
"","html-keyboard-response","156","459326","0.0-10.0-1.0","wzdkk0pc1n","one_one","1","indirect_first","0","in05in25","0","24","1","1","3","1","","0","1","0","null","","","<img src = 'category3/GS3.png' width = '100%;'>","null","","","","","","","","","",""
"","html-keyboard-response","157","459581","0.0-10.0-2.0","wzdkk0pc1n","one_one","1","indirect_first","0","in05in25","0","24","1","1","3","1","","0","1","0","null","","","<img src = 'targets/48.png' width = '100%;'>","null","","","","","","","","","",""
"","html-keyboard-response","158","461210","0.0-10.0-3.0","wzdkk0pc1n","one_one","1","indirect_first","0","in05in25","0","24","1","1","3","1","","0","1","0","1627.07499996759","","","<img src = 'targets/mask.png' width = '100%;'>","75","pos","GS","GSnew","3","category3/GS3.png","targets/48.png","1","indirect","16",""
"","html-keyboard-response","159","462714","0.0-10.0-0.1","wzdkk0pc1n","one_one","1","indirect_first","0","in05in25","0","24","1","1","3","1","","0","1","0","null","","","<div style=""font-size:60px;"">+</div>","null","","","","","","","","","",""
"","html-keyboard-response","160","462810","0.0-10.0-1.1","wzdkk0pc1n","one_one","1","indirect_first","0","in05in25","0","24","1","1","3","1","","0","1","0","null","","","<img src = 'category3/GS2.png' width = '100%;'>","null","","","","","","","","","",""
"","html-keyboard-response","161","463066","0.0-10.0-2.1","wzdkk0pc1n","one_one","1","indirect_first","0","in05in25","0","24","1","1","3","1","","0","1","0","null","","","<img src = 'targets/1.png' width = '100%;'>","null","","","","","","","","","",""
"","html-keyboard-response","162","463705","0.0-10.0-3.1","wzdkk0pc1n","one_one","1","indirect_first","0","in05in25","0","24","1","1","3","1","","0","1","0","638.2549999980256","","","<img src = 'targets/mask.png' width = '100%;'>","75","pos","GS","GSnew","3","category3/GS2.png","targets/1.png","1","indirect","17",""
"","html-keyboard-response","163","465213","0.0-10.0-0.2","wzdkk0pc1n","one_one","1","indirect_first","0","in05in25","0","24","1","1","3","1","","0","1","0","null","","","<div style=""font-size:60px;"">+</div>","null","","","","","","","","","",""
"","html-keyboard-response","164","465305","0.0-10.0-1.2","wzdkk0pc1n","one_one","1","indirect_first","0","in05in25","0","24","1","1","3","1","","0","1","0","null","","","<img src = 'category2/GS2.png' width = '100%;'>","null","","","","","","","","","",""
"","html-keyboard-response","165","465556","0.0-10.0-2.2","wzdkk0pc1n","one_one","1","indirect_first","0","in05in25","0","24","1","1","3","1","","0","1","0","null","","","<img src = 'targets/25.png' width = '100%;'>","null","","","","","","","","","",""
"","html-keyboard-response","166","466314","0.0-10.0-3.2","wzdkk0pc1n","one_one","1","indirect_first","0","in05in25","0","24","1","1","3","1","","0","1","0","757.4500000337139","","","<img src = 'targets/mask.png' width = '100%;'>","75","neg","GS","GSnew","2","category2/GS2.png","targets/25.png","1","indirect","18",""
"","html-keyboard-response","167","467818","0.0-10.0-0.3","wzdkk0pc1n","one_one","1","indirect_first","0","in05in25","0","24","1","1","3","1","","0","1","0","null","","","<div style=""font-size:60px;"">+</div>","null","","","","","","","","","",""
"","html-keyboard-response","168","467912","0.0-10.0-1.3","wzdkk0pc1n","one_one","1","indirect_first","0","in05in25","0","24","1","1","3","1","","0","1","0","null","","","<img src = 'category4/GS1.png' width = '100%;'>","null","","","","","","","","","",""
"","html-keyboard-response","169","468170","0.0-10.0-2.3","wzdkk0pc1n","one_one","1","indirect_first","0","in05in25","0","24","1","1","3","1","","0","1","0","null","","","<img src = 'targets/11.png' width = '100%;'>","null","","","","","","","","","",""
"","html-keyboard-response","170","468954","0.0-10.0-3.3","wzdkk0pc1n","one_one","1","indirect_first","0","in05in25","0","24","1","1","3","1","","0","1","0","782.134999986738","","","<img src = 'targets/mask.png' width = '100%;'>","68","pos","GS","GSnew","4","category4/GS1.png","targets/11.png","0","indirect","19",""
"","html-keyboard-response","171","470462","0.0-10.0-0.4","wzdkk0pc1n","one_one","1","indirect_first","0","in05in25","0","24","1","1","3","1","","0","1","0","null","","","<div style=""font-size:60px;"">+</div>","null","","","","","","","","","",""
"","html-keyboard-response","172","470558","0.0-10.0-1.4","wzdkk0pc1n","one_one","1","indirect_first","0","in05in25","0","24","1","1","3","1","","0","1","0","null","","","<img src = 'category3/GS1.png' width = '100%;'>","null","","","","","","","","","",""
"","html-keyboard-response","173","470814","0.0-10.0-2.4","wzdkk0pc1n","one_one","1","indirect_first","0","in05in25","0","24","1","1","3","1","","0","1","0","null","","","<img src = 'targets/3.png' width = '100%;'>","null","","","","","","","","","",""
"","html-keyboard-response","174","471682","0.0-10.0-3.4","wzdkk0pc1n","one_one","1","indirect_first","0","in05in25","0","24","1","1","3","1","","0","1","0","867.0750000746921","","","<img src = 'targets/mask.png' width = '100%;'>","68","pos","GS","GSnew","3","category3/GS1.png","targets/3.png","0","indirect","20",""
"","html-keyboard-response","175","473188","0.0-10.0-0.5","wzdkk0pc1n","one_one","1","indirect_first","0","in05in25","0","24","1","1","3","1","","0","1","0","null","","","<div style=""font-size:60px;"">+</div>","null","","","","","","","","","",""
"","html-keyboard-response","176","473284","0.0-10.0-1.5","wzdkk0pc1n","one_one","1","indirect_first","0","in05in25","0","24","1","1","3","1","","0","1","0","null","","","<img src = 'category1/GS3.png' width = '100%;'>","null","","","","","","","","","",""
"","html-keyboard-response","177","473539","0.0-10.0-2.5","wzdkk0pc1n","one_one","1","indirect_first","0","in05in25","0","24","1","1","3","1","","0","1","0","null","","","<img src = 'targets/42.png' width = '100%;'>","null","","","","","","","","","",""
"","html-keyboard-response","178","474322","0.0-10.0-3.5","wzdkk0pc1n","one_one","1","indirect_first","0","in05in25","0","24","1","1","3","1","","0","1","0","781.539999996312","","","<img src = 'targets/mask.png' width = '100%;'>","75","neg","GS","GSnew","1","category1/GS3.png","targets/42.png","1","indirect","21",""
"","html-keyboard-response","179","475824","0.0-10.0-0.6","wzdkk0pc1n","one_one","1","indirect_first","0","in05in25","0","24","1","1","3","1","","0","1","0","null","","","<div style=""font-size:60px;"">+</div>","null","","","","","","","","","",""
"","html-keyboard-response","180","475920","0.0-10.0-1.6","wzdkk0pc1n","one_one","1","indirect_first","0","in05in25","0","24","1","1","3","1","","0","1","0","null","","","<img src = 'category2/GS1.png' width = '100%;'>","null","","","","","","","","","",""
"","html-keyboard-response","181","476176","0.0-10.0-2.6","wzdkk0pc1n","one_one","1","indirect_first","0","in05in25","0","24","1","1","3","1","","0","1","0","null","","","<img src = 'targets/34.png' width = '100%;'>","null","","","","","","","","","",""
"","html-keyboard-response","182","476690","0.0-10.0-3.6","wzdkk0pc1n","one_one","1","indirect_first","0","in05in25","0","24","1","1","3","1","","0","1","0","512.6800000434741","","","<img src = 'targets/mask.png' width = '100%;'>","68","neg","GS","GSnew","2","category2/GS1.png","targets/34.png","0","indirect","22",""
"","html-keyboard-response","183","478196","0.0-10.0-0.7","wzdkk0pc1n","one_one","1","indirect_first","0","in05in25","0","24","1","1","3","1","","0","1","0","null","","","<div style=""font-size:60px;"">+</div>","null","","","","","","","","","",""
"","html-keyboard-response","184","478291","0.0-10.0-1.7","wzdkk0pc1n","one_one","1","indirect_first","0","in05in25","0","24","1","1","3","1","","0","1","0","null","","","<img src = 'category4/GS3.png' width = '100%;'>","null","","","","","","","","","",""
"","html-keyboard-response","185","478548","0.0-10.0-2.7","wzdkk0pc1n","one_one","1","indirect_first","0","in05in25","0","24","1","1","3","1","","0","1","0","null","","","<img src = 'targets/31.png' width = '100%;'>","null","","","","","","","","","",""
"","html-keyboard-response","186","479010","0.0-10.0-3.7","wzdkk0pc1n","one_one","1","indirect_first","0","in05in25","0","24","1","1","3","1","","0","1","0","461.574999964796","","","<img src = 'targets/mask.png' width = '100%;'>","75","pos","GS","GSnew","4","category4/GS3.png","targets/31.png","1","indirect","23",""
"","html-keyboard-response","187","480514","0.0-10.0-0.8","wzdkk0pc1n","one_one","1","indirect_first","0","in05in25","0","24","1","1","3","1","","0","1","0","null","","","<div style=""font-size:60px;"">+</div>","null","","","","","","","","","",""
"","html-keyboard-response","188","480606","0.0-10.0-1.8","wzdkk0pc1n","one_one","1","indirect_first","0","in05in25","0","24","1","1","3","1","","0","1","0","null","","","<img src = 'category1/GS2.png' width = '100%;'>","null","","","","","","","","","",""
"","html-keyboard-response","189","480862","0.0-10.0-2.8","wzdkk0pc1n","one_one","1","indirect_first","0","in05in25","0","24","1","1","3","1","","0","1","0","null","","","<img src = 'targets/2.png' width = '100%;'>","null","","","","","","","","","",""
"","html-keyboard-response","190","481250","0.0-10.0-3.8","wzdkk0pc1n","one_one","1","indirect_first","0","in05in25","0","24","1","1","3","1","","0","1","0","386.7900000186637","","","<img src = 'targets/mask.png' width = '100%;'>","68","neg","GS","GSnew","1","category1/GS2.png","targets/2.png","0","indirect","24",""
"","html-keyboard-response","191","482758","0.0-10.0-0.9","wzdkk0pc1n","one_one","1","indirect_first","0","in05in25","0","24","1","1","3","1","","0","1","0","null","","","<div style=""font-size:60px;"">+</div>","null","","","","","","","","","",""
"","html-keyboard-response","192","482850","0.0-10.0-1.9","wzdkk0pc1n","one_one","1","indirect_first","0","in05in25","0","24","1","1","3","1","","0","1","0","null","","","<img src = 'category4/GS2.png' width = '100%;'>","null","","","","","","","","","",""
"","html-keyboard-response","193","483108","0.0-10.0-2.9","wzdkk0pc1n","one_one","1","indirect_first","0","in05in25","0","24","1","1","3","1","","0","1","0","null","","","<img src = 'targets/43.png' width = '100%;'>","null","","","","","","","","","",""
"","html-keyboard-response","194","483402","0.0-10.0-3.9","wzdkk0pc1n","one_one","1","indirect_first","0","in05in25","0","24","1","1","3","1","","0","1","0","293.2000000728294","","","<img src = 'targets/mask.png' width = '100%;'>","75","pos","GS","GSnew","4","category4/GS2.png","targets/43.png","1","indirect","25",""
"","html-keyboard-response","195","484906","0.0-10.0-0.10","wzdkk0pc1n","one_one","1","indirect_first","0","in05in25","0","24","1","1","3","1","","0","1","0","null","","","<div style=""font-size:60px;"">+</div>","null","","","","","","","","","",""
"","html-keyboard-response","196","484998","0.0-10.0-1.10","wzdkk0pc1n","one_one","1","indirect_first","0","in05in25","0","24","1","1","3","1","","0","1","0","null","","","<img src = 'category4/lin.png' width = '100%;'>","null","","","","","","","","","",""
"","html-keyboard-response","197","485253","0.0-10.0-2.10","wzdkk0pc1n","one_one","1","indirect_first","0","in05in25","0","24","1","1","3","1","","0","1","0","null","","","<img src = 'targets/41.png' width = '100%;'>","null","","","","","","","","","",""
"","html-keyboard-response","198","485450","0.0-10.0-3.10","wzdkk0pc1n","one_one","1","indirect_first","0","in05in25","0","24","1","1","3","1","","0","1","0","196.64500001817942","","","<img src = 'targets/mask.png' width = '100%;'>","68","pos","GS","abstract","4","category4/lin.png","targets/41.png","0","indirect","26",""
"","html-keyboard-response","199","486955","0.0-10.0-0.11","wzdkk0pc1n","one_one","1","indirect_first","0","in05in25","0","24","1","1","3","1","","0","1","0","null","","","<div style=""font-size:60px;"">+</div>","null","","","","","","","","","",""
"","html-keyboard-response","200","487051","0.0-10.0-1.11","wzdkk0pc1n","one_one","1","indirect_first","0","in05in25","0","24","1","1","3","1","","0","1","0","null","","","<img src = 'category1/GS1.png' width = '100%;'>","null","","","","","","","","","",""
"","html-keyboard-response","201","487307","0.0-10.0-2.11","wzdkk0pc1n","one_one","1","indirect_first","0","in05in25","0","24","1","1","3","1","","0","1","0","null","","","<img src = 'targets/14.png' width = '100%;'>","null","","","","","","","","","",""
"","html-keyboard-response","202","487618","0.0-10.0-3.11","wzdkk0pc1n","one_one","1","indirect_first","0","in05in25","0","24","1","1","3","1","","0","1","0","310.7399999862537","","","<img src = 'targets/mask.png' width = '100%;'>","68","neg","GS","GSnew","1","category1/GS1.png","targets/14.png","0","indirect","27",""
"","html-keyboard-response","203","489127","0.0-10.0-0.12","wzdkk0pc1n","one_one","1","indirect_first","0","in05in25","0","24","1","1","3","1","","0","1","0","null","","","<div style=""font-size:60px;"">+</div>","null","","","","","","","","","",""
"","html-keyboard-response","204","489222","0.0-10.0-1.12","wzdkk0pc1n","one_one","1","indirect_first","0","in05in25","0","24","1","1","3","1","","0","1","0","null","","","<img src = 'category1/ma.png' width = '100%;'>","null","","","","","","","","","",""
"","html-keyboard-response","205","489479","0.0-10.0-2.12","wzdkk0pc1n","one_one","1","indirect_first","0","in05in25","0","24","1","1","3","1","","0","1","0","null","","","<img src = 'targets/7.png' width = '100%;'>","null","","","","","","","","","",""
"","html-keyboard-response","206","489929","0.0-10.0-3.12","wzdkk0pc1n","one_one","1","indirect_first","0","in05in25","0","24","1","1","3","1","","0","1","0","449.9350000405684","","","<img src = 'targets/mask.png' width = '100%;'>","75","neg","GS","abstract","1","category1/ma.png","targets/7.png","1","indirect","28",""
"","html-keyboard-response","207","491434","0.0-10.0-0.13","wzdkk0pc1n","one_one","1","indirect_first","0","in05in25","0","24","1","1","3","1","","0","1","0","null","","","<div style=""font-size:60px;"">+</div>","null","","","","","","","","","",""
"","html-keyboard-response","208","491529","0.0-10.0-1.13","wzdkk0pc1n","one_one","1","indirect_first","0","in05in25","0","24","1","1","3","1","","0","1","0","null","","","<img src = 'category2/GS3.png' width = '100%;'>","null","","","","","","","","","",""
"","html-keyboard-response","209","491784","0.0-10.0-2.13","wzdkk0pc1n","one_one","1","indirect_first","0","in05in25","0","24","1","1","3","1","","0","1","0","null","","","<img src = 'targets/22.png' width = '100%;'>","null","","","","","","","","","",""
"","html-keyboard-response","210","492330","0.0-10.0-3.13","wzdkk0pc1n","one_one","1","indirect_first","0","in05in25","0","24","1","1","3","1","","0","1","0","544.9650000082329","","","<img src = 'targets/mask.png' width = '100%;'>","75","neg","GS","GSnew","2","category2/GS3.png","targets/22.png","1","indirect","29",""
"","html-keyboard-response","211","493832","0.0-10.0-0.14","wzdkk0pc1n","one_one","1","indirect_first","0","in05in25","0","24","1","1","3","1","","0","1","0","null","","","<div style=""font-size:60px;"">+</div>","null","","","","","","","","","",""
"","html-keyboard-response","212","493924","0.0-10.0-1.14","wzdkk0pc1n","one_one","1","indirect_first","0","in05in25","0","24","1","1","3","1","","0","1","0","null","","","<img src = 'category3/wang.png' width = '100%;'>","null","","","","","","","","","",""
"","html-keyboard-response","213","494179","0.0-10.0-2.14","wzdkk0pc1n","one_one","1","indirect_first","0","in05in25","0","24","1","1","3","1","","0","1","0","null","","","<img src = 'targets/18.png' width = '100%;'>","null","","","","","","","","","",""
"","html-keyboard-response","214","494659","0.0-10.0-3.14","wzdkk0pc1n","one_one","1","indirect_first","0","in05in25","0","24","1","1","3","1","","0","1","0","479.34499999973923","","","<img src = 'targets/mask.png' width = '100%;'>","75","pos","GS","abstract","3","category3/wang.png","targets/18.png","1","indirect","30",""
"","html-keyboard-response","215","496163","0.0-10.0-0.15","wzdkk0pc1n","one_one","1","indirect_first","0","in05in25","0","24","1","1","3","1","","0","1","0","null","","","<div style=""font-size:60px;"">+</div>","null","","","","","","","","","",""
"","html-keyboard-response","216","496254","0.0-10.0-1.15","wzdkk0pc1n","one_one","1","indirect_first","0","in05in25","0","24","1","1","3","1","","0","1","0","null","","","<img src = 'category2/men.png' width = '100%;'>","null","","","","","","","","","",""
"","html-keyboard-response","217","496511","0.0-10.0-2.15","wzdkk0pc1n","one_one","1","indirect_first","0","in05in25","0","24","1","1","3","1","","0","1","0","null","","","<img src = 'targets/26.png' width = '100%;'>","null","","","","","","","","","",""
"","html-keyboard-response","218","496843","0.0-10.0-3.15","wzdkk0pc1n","one_one","1","indirect_first","0","in05in25","0","24","1","1","3","1","","0","1","0","330.89999994263053","","","<img src = 'targets/mask.png' width = '100%;'>","68","neg","GS","abstract","2","category2/men.png","targets/26.png","0","indirect","31",""
"","survey-html-form","219","507345","0.0-11.0","wzdkk0pc1n","one_one","1","indirect_first","0","in05in25","0","24","1","1","3","1","","0","1","0","10001.37499999255","","{}","","","","","","","","","","","",""
"","image-slider-response","220","516807","0.0-12.0-0.0","wzdkk0pc1n","one_one","1","indirect_first","0","in05in25","0","24","1","1","3","1","","0","1","0","7458.600000012666","","","","","neg","GS","GSnew","1","category1/GS3.png","targets/42.png","","direct","","-34"
"","image-slider-response","221","521647","0.0-12.0-0.1","wzdkk0pc1n","one_one","1","indirect_first","0","in05in25","0","24","1","1","3","1","","0","1","0","4837.954999995418","","","","","pos","GS","GSold","4","category4/CS5.png","targets/21.png","","direct","","-82"
"","image-slider-response","222","524521","0.0-12.0-0.2","wzdkk0pc1n","one_one","1","indirect_first","0","in05in25","0","24","1","1","3","1","","0","1","0","2871.969999978319","","","","","pos","GS","GSnew","4","category4/GS1.png","targets/11.png","","direct","","-77"
"","image-slider-response","223","527333","0.0-12.0-0.3","wzdkk0pc1n","one_one","1","indirect_first","0","in05in25","0","24","1","1","3","1","","0","1","0","2810.6299999635667","","","","","neg","GS","GSnew","2","category2/GS3.png","targets/22.png","","direct","","-30"
"","image-slider-response","224","531776","0.0-12.0-0.4","wzdkk0pc1n","one_one","1","indirect_first","0","in05in25","0","24","1","1","3","1","","0","1","0","4440.74999995064","","","","","pos","GS","GSold","4","category4/CS10.png","targets/47.png","","direct","","13"
"","image-slider-response","225","536258","0.0-12.0-0.5","wzdkk0pc1n","one_one","1","indirect_first","0","in05in25","0","24","1","1","3","1","","0","1","0","4480.270000058226","","","","","pos","GS","abstract","4","category4/lin.png","targets/41.png","","direct","","-77"
"","image-slider-response","226","538895","0.0-12.0-0.6","wzdkk0pc1n","one_one","1","indirect_first","0","in05in25","0","24","1","1","3","1","","0","1","0","2635.104999993928","","","","","neg","GS","GSold","1","category1/CS5.png","targets/32.png","","direct","","-22"
"","image-slider-response","227","544392","0.0-12.0-0.7","wzdkk0pc1n","one_one","1","indirect_first","0","in05in25","0","24","1","1","3","1","","0","1","0","5495.684999972582","","","","","pos","GS","GSnew","3","category3/GS2.png","targets/1.png","","direct","","-40"
"","image-slider-response","228","547364","0.0-12.0-0.8","wzdkk0pc1n","one_one","1","indirect_first","0","in05in25","0","24","1","1","3","1","","0","1","0","2969.920000061393","","","","","neg","GS","GSold","2","category2/CS6.png","targets/46.png","","direct","","31"
"","image-slider-response","229","550482","0.0-12.0-0.9","wzdkk0pc1n","one_one","1","indirect_first","0","in05in25","0","24","1","1","3","1","","0","1","0","3117.1249999897555","","","","","neg","GS","GSnew","2","category2/GS2.png","targets/25.png","","direct","","-63"
"","image-slider-response","230","552929","0.0-12.0-0.10","wzdkk0pc1n","one_one","1","indirect_first","0","in05in25","0","24","1","1","3","1","","0","1","0","2445.89500001166","","","","","pos","GS","GSold","3","category3/CS9.png","targets/16.png","","direct","","37"
"","image-slider-response","231","555327","0.0-12.0-0.11","wzdkk0pc1n","one_one","1","indirect_first","0","in05in25","0","24","1","1","3","1","","0","1","0","2396.94500004407","","","","","neg","GS","GSold","2","category2/CS10.png","targets/10.png","","direct","","59"
"","image-slider-response","232","557915","0.0-12.0-0.12","wzdkk0pc1n","one_one","1","indirect_first","0","in05in25","0","24","1","1","3","1","","0","1","0","2586.724999942817","","","","","pos","GS","GSnew","3","category3/GS1.png","targets/3.png","","direct","","-64"
"","image-slider-response","233","560556","0.0-12.0-0.13","wzdkk0pc1n","one_one","1","indirect_first","0","in05in25","0","24","1","1","3","1","","0","1","0","2638.939999975264","","","","","neg","GS","GSnew","1","category1/GS1.png","targets/14.png","","direct","","36"
"","image-slider-response","234","562592","0.0-12.0-0.14","wzdkk0pc1n","one_one","1","indirect_first","0","in05in25","0","24","1","1","3","1","","0","1","0","2035.5899999849498","","","","","neg","GS","abstract","1","category1/ma.png","targets/7.png","","direct","","42"
"","image-slider-response","235","565752","0.0-12.0-0.15","wzdkk0pc1n","one_one","1","indirect_first","0","in05in25","0","24","1","1","3","1","","0","1","0","3158.739999984391","","","","","neg","GS","abstract","2","category2/men.png","targets/26.png","","direct","","52"
"","image-slider-response","236","568092","0.0-12.0-0.16","wzdkk0pc1n","one_one","1","indirect_first","0","in05in25","0","24","1","1","3","1","","0","1","0","2338.1199999712408","","","","","pos","GS","GSnew","3","category3/GS3.png","targets/48.png","","direct","","21"
"","image-slider-response","237","571102","0.0-12.0-0.17","wzdkk0pc1n","one_one","1","indirect_first","0","in05in25","0","24","1","1","3","1","","0","1","0","3008.589999983087","","","","","pos","CS","CS","4","category4/CS4.png","targets/44.png","","direct","","72"
"","image-slider-response","238","574052","0.0-12.0-0.18","wzdkk0pc1n","one_one","1","indirect_first","0","in05in25","0","24","1","1","3","1","","0","1","0","2948.7499999813735","","","","","pos","GS","GSnew","4","category4/GS3.png","targets/31.png","","direct","","-69"
"","image-slider-response","239","576594","0.0-12.0-0.19","wzdkk0pc1n","one_one","1","indirect_first","0","in05in25","0","24","1","1","3","1","","0","1","0","2540.11000005994","","","","","pos","CS","CS","3","category3/CS4.png","targets/5.png","","direct","","28"
"","image-slider-response","240","579110","0.0-12.0-0.20","wzdkk0pc1n","one_one","1","indirect_first","0","in05in25","0","24","1","1","3","1","","0","1","0","2514.5699999993667","","","","","neg","GS","GSnew","2","category2/GS1.png","targets/34.png","","direct","","-32"
"","image-slider-response","241","584295","0.0-12.0-0.21","wzdkk0pc1n","one_one","1","indirect_first","0","in05in25","0","24","1","1","3","1","","0","1","0","5182.784999953583","","","","","pos","GS","GSold","3","category3/CS8.png","targets/20.png","","direct","","49"
"","image-slider-response","242","586953","0.0-12.0-0.22","wzdkk0pc1n","one_one","1","indirect_first","0","in05in25","0","24","1","1","3","1","","0","1","0","2656.3800000585616","","","","","pos","GS","GSnew","4","category4/GS2.png","targets/43.png","","direct","","-92"
"","image-slider-response","243","589871","0.0-12.0-0.23","wzdkk0pc1n","one_one","1","indirect_first","0","in05in25","0","24","1","1","3","1","","0","1","0","2916.510000010021","","","","","neg","CS","CS","1","category1/CS9.png","targets/33.png","","direct","","19"
"","image-slider-response","244","592131","0.0-12.0-0.24","wzdkk0pc1n","one_one","1","indirect_first","0","in05in25","0","24","1","1","3","1","","0","1","0","2258.155000046827","","","","","neg","GS","GSnew","1","category1/GS2.png","targets/2.png","","direct","","28"
"","image-slider-response","245","595515","0.0-12.0-0.25","wzdkk0pc1n","one_one","1","indirect_first","0","in05in25","0","24","1","1","3","1","","0","1","0","3382.714999956079","","","","","pos","GS","abstract","3","category3/wang.png","targets/18.png","","direct","","100"
"","image-slider-response","246","598193","0.0-12.0-0.26","wzdkk0pc1n","one_one","1","indirect_first","0","in05in25","0","24","1","1","3","1","","0","1","0","2676.069999928586","","","","","neg","GS","GSold","1","category1/CS6.png","targets/28.png","","direct","","-15"
"","image-slider-response","247","600763","0.0-12.0-0.27","wzdkk0pc1n","one_one","1","indirect_first","0","in05in25","0","24","1","1","3","1","","0","1","0","2568.9499999862164","","","","","neg","GS","GSold","2","category2/CS2.png","targets/37.png","","direct","","-47"
"","image-slider-response","248","603361","0.0-12.0-0.28","wzdkk0pc1n","one_one","1","indirect_first","0","in05in25","0","24","1","1","3","1","","0","1","0","2596.500000101514","","","","","pos","GS","GSold","3","category3/CS1.png","targets/13.png","","direct","","34"
"","image-slider-response","249","606113","0.0-12.0-0.29","wzdkk0pc1n","one_one","1","indirect_first","0","in05in25","0","24","1","1","3","1","","0","1","0","2750.969999935478","","","","","neg","GS","GSold","1","category1/CS2.png","targets/4.png","","direct","","-47"
"","image-slider-response","250","608735","0.0-12.0-0.30","wzdkk0pc1n","one_one","1","indirect_first","0","in05in25","0","24","1","1","3","1","","0","1","0","2620.0599999865517","","","","","pos","GS","GSold","4","category4/CS1.png","targets/29.png","","direct","","-75"
"","image-slider-response","251","611451","0.0-12.0-0.31","wzdkk0pc1n","one_one","1","indirect_first","0","in05in25","0","24","1","1","3","1","","0","1","0","2714.3299999879673","","","","","neg","CS","CS","2","category2/CS1.png","targets/40.png","","direct","","-41"
"","survey-html-form","252","616299","0.0-13.0","wzdkk0pc1n","one_one","1","indirect_first","0","in05in25","0","24","1","1","3","1","","0","1","0","4847.170000080951","","{}","","","","","","","","","","","",""
"","image-slider-response","253","623169","0.0-14.0-0.0","wzdkk0pc1n","one_one","1","indirect_first","0","in05in25","0","24","1","1","3","1","","0","1","0","5862.70999989938","","","","","neg","All","all","2","category2/men_all.png","","","all","","41"
"","image-slider-response","254","626051","0.0-14.0-0.1","wzdkk0pc1n","one_one","1","indirect_first","0","in05in25","0","24","1","1","3","1","","0","1","0","2880.3850000258535","","","","","pos","All","all","3","category3/wang_all.png","","","all","","100"
"","image-slider-response","255","628707","0.0-14.0-0.2","wzdkk0pc1n","one_one","1","indirect_first","0","in05in25","0","24","1","1","3","1","","0","1","0","2654.2200000258163","","","","","neg","All","all","1","category1/ma_all.png","","","all","","-100"
"","image-slider-response","256","631178","0.0-14.0-0.3","wzdkk0pc1n","one_one","1","indirect_first","0","in05in25","0","24","1","1","3","1","","0","1","0","2469.154999940656","","","","","pos","All","all","4","category4/lin_all.png","","","all","","-91"
"","survey-text","257","636004","0.0-15.0","wzdkk0pc1n","one_one","1","indirect_first","0","in05in25","0","24","1","1","3","1","","0","1","0","4817.4000000581145","","{""comment"":""""}","","","","","","","","","","","",""
"","survey-html-form","258","650909","0.0-16.0","wzdkk0pc1n","one_one","1","indirect_first","0","in05in25","0","24","1","1","3","1","","0","1","0","14902.600000030361","","{""hinschauen"":""0"",""ablenkung"":""1"",""gewissenhaft"":""0""}","","","","","","","","","","","",""
