"success","trial_type","trial_index","time_elapsed","internal_node_id","subject","condition","condition_code","measure","measure_code","codeword","gender","age","education","chinese","fach","handedness","comment","hinschauen","ablenkung","gewissenhaft","rt","url","responses","stimulus","key_press","val","type","type_specific","category","cs_selected","target","indirect","task","nr_pres","response"
"true","fullscreen","0","5428","0.0-0.0","szemrlvd8k","many_one","0","indirect_first","0","in05nd25","0","19","1","1","3","1","","0","1","0","","","","","","","","","","","","","","",""
"","external-html","1","41577","0.0-1.0","szemrlvd8k","many_one","0","indirect_first","0","in05nd25","0","19","1","1","3","1","","0","1","0","36086","text/information.html","","","","","","","","","","","","",""
"","external-html","2","55644","0.0-2.0","szemrlvd8k","many_one","0","indirect_first","0","in05nd25","0","19","1","1","3","1","","0","1","0","13997","text/consent.html","","","","","","","","","","","","",""
"","survey-html-form","3","134027","0.0-3.0","szemrlvd8k","many_one","0","indirect_first","0","in05nd25","0","19","1","1","3","1","","0","1","0","78379","","{""codeword_enter"":""in05nd25""}","","","","","","","","","","","",""
"","survey-html-form","4","156199","0.0-4.0","szemrlvd8k","many_one","0","indirect_first","0","in05nd25","0","19","1","1","3","1","","0","1","0","22170","","{""age"":""19"",""education"":""1"",""subject"":""3"",""gender"":""0"",""handedness"":""1"",""chinese"":""1""}","","","","","","","","","","","",""
"","survey-html-form","5","166780","0.0-5.0","szemrlvd8k","many_one","0","indirect_first","0","in05nd25","0","19","1","1","3","1","","0","1","0","10578","","{}","","","","","","","","","","","",""
"","html-keyboard-response","6","170807","0.0-6.0-0.0-0.0","szemrlvd8k","many_one","0","indirect_first","0","in05nd25","0","19","1","1","3","1","","0","1","0","null","","","<div class = 'row'><div class = 'column'><img src = 'category2/CS6.png' width = '70%;'></div><div class = 'column'><img src = 'uspos/5760.bmp' width = '100%;'></div></div>","null","pos","CS","CS","2","category2/CS6.png","","","","",""
"","html-keyboard-response","7","173346","0.0-6.0-0.0-0.1","szemrlvd8k","many_one","0","indirect_first","0","in05nd25","0","19","1","1","3","1","","0","1","0","null","","","<div class = 'row'><div class = 'column'><img src = 'uspos/2340.bmp' width = '100%;'></div><div class = 'column'><img src = 'category4/CS10.png' width = '70%;'></div></div>","null","pos","CS","CS","4","category4/CS10.png","","","","",""
"","html-keyboard-response","8","175885","0.0-6.0-0.0-0.2","szemrlvd8k","many_one","0","indirect_first","0","in05nd25","0","19","1","1","3","1","","0","1","0","null","","","<div class = 'row'><div class = 'column'><img src = 'category4/CS7.png' width = '70%;'></div><div class = 'column'><img src = 'uspos/2160.bmp' width = '100%;'></div></div>","null","pos","CS","CS","4","category4/CS7.png","","","","",""
"","html-keyboard-response","9","178425","0.0-6.0-0.0-0.3","szemrlvd8k","many_one","0","indirect_first","0","in05nd25","0","19","1","1","3","1","","0","1","0","null","","","<div class = 'row'><div class = 'column'><img src = 'usneg/9280.bmp' width = '100%;'></div><div class = 'column'><img src = 'category1/CS2.png' width = '70%;'></div></div>","null","neg","CS","CS","1","category1/CS2.png","","","","",""
"","html-keyboard-response","10","180966","0.0-6.0-0.0-0.4","szemrlvd8k","many_one","0","indirect_first","0","in05nd25","0","19","1","1","3","1","","0","1","0","null","","","<div class = 'row'><div class = 'column'><img src = 'uspos/2150.bmp' width = '100%;'></div><div class = 'column'><img src = 'category2/CS8.png' width = '70%;'></div></div>","null","pos","CS","CS","2","category2/CS8.png","","","","",""
"","html-keyboard-response","11","183505","0.0-6.0-0.0-0.5","szemrlvd8k","many_one","0","indirect_first","0","in05nd25","0","19","1","1","3","1","","0","1","0","null","","","<div class = 'row'><div class = 'column'><img src = 'usneg/9830.bmp' width = '100%;'></div><div class = 'column'><img src = 'category1/CS7.png' width = '70%;'></div></div>","null","neg","CS","CS","1","category1/CS7.png","","","","",""
"","html-keyboard-response","12","186045","0.0-6.0-0.0-0.6","szemrlvd8k","many_one","0","indirect_first","0","in05nd25","0","19","1","1","3","1","","0","1","0","null","","","<div class = 'row'><div class = 'column'><img src = 'category3/CS9.png' width = '70%;'></div><div class = 'column'><img src = 'usneg/3181.bmp' width = '100%;'></div></div>","null","neg","CS","CS","3","category3/CS9.png","","","","",""
"","html-keyboard-response","13","188575","0.0-6.0-0.0-0.7","szemrlvd8k","many_one","0","indirect_first","0","in05nd25","0","19","1","1","3","1","","0","1","0","null","","","<div class = 'row'><div class = 'column'><img src = 'usneg/9415.bmp' width = '100%;'></div><div class = 'column'><img src = 'category3/CS8.png' width = '70%;'></div></div>","null","neg","CS","CS","3","category3/CS8.png","","","","",""
"","html-keyboard-response","14","191115","0.0-6.0-0.0-0.8","szemrlvd8k","many_one","0","indirect_first","0","in05nd25","0","19","1","1","3","1","","0","1","0","null","","","<div class = 'row'><div class = 'column'><img src = 'usneg/6212.bmp' width = '100%;'></div><div class = 'column'><img src = 'category3/CS1.png' width = '70%;'></div></div>","null","neg","CS","CS","3","category3/CS1.png","","","","",""
"","html-keyboard-response","15","193655","0.0-6.0-0.0-0.9","szemrlvd8k","many_one","0","indirect_first","0","in05nd25","0","19","1","1","3","1","","0","1","0","null","","","<div class = 'row'><div class = 'column'><img src = 'category2/CS4.png' width = '70%;'></div><div class = 'column'><img src = 'uspos/8080.bmp' width = '100%;'></div></div>","null","pos","CS","CS","2","category2/CS4.png","","","","",""
"","html-keyboard-response","16","196185","0.0-6.0-0.0-0.10","szemrlvd8k","many_one","0","indirect_first","0","in05nd25","0","19","1","1","3","1","","0","1","0","null","","","<div class = 'row'><div class = 'column'><img src = 'category4/CS9.png' width = '70%;'></div><div class = 'column'><img src = 'uspos/4599.bmp' width = '100%;'></div></div>","null","pos","CS","CS","4","category4/CS9.png","","","","",""
"","html-keyboard-response","17","198724","0.0-6.0-0.0-0.11","szemrlvd8k","many_one","0","indirect_first","0","in05nd25","0","19","1","1","3","1","","0","1","0","null","","","<div class = 'row'><div class = 'column'><img src = 'uspos/5700.bmp' width = '100%;'></div><div class = 'column'><img src = 'category2/CS7.png' width = '70%;'></div></div>","null","pos","CS","CS","2","category2/CS7.png","","","","",""
"","html-keyboard-response","18","201264","0.0-6.0-0.0-0.12","szemrlvd8k","many_one","0","indirect_first","0","in05nd25","0","19","1","1","3","1","","0","1","0","null","","","<div class = 'row'><div class = 'column'><img src = 'uspos/2550.bmp' width = '100%;'></div><div class = 'column'><img src = 'category2/CS9.png' width = '70%;'></div></div>","null","pos","CS","CS","2","category2/CS9.png","","","","",""
"","html-keyboard-response","19","203804","0.0-6.0-0.0-0.13","szemrlvd8k","many_one","0","indirect_first","0","in05nd25","0","19","1","1","3","1","","0","1","0","null","","","<div class = 'row'><div class = 'column'><img src = 'usneg/9290.bmp' width = '100%;'></div><div class = 'column'><img src = 'category1/CS9.png' width = '70%;'></div></div>","null","neg","CS","CS","1","category1/CS9.png","","","","",""
"","html-keyboard-response","20","206344","0.0-6.0-0.0-0.14","szemrlvd8k","many_one","0","indirect_first","0","in05nd25","0","19","1","1","3","1","","0","1","0","null","","","<div class = 'row'><div class = 'column'><img src = 'category3/CS2.png' width = '70%;'></div><div class = 'column'><img src = 'usneg/1280.bmp' width = '100%;'></div></div>","null","neg","CS","CS","3","category3/CS2.png","","","","",""
"","html-keyboard-response","21","208875","0.0-6.0-0.0-0.15","szemrlvd8k","many_one","0","indirect_first","0","in05nd25","0","19","1","1","3","1","","0","1","0","null","","","<div class = 'row'><div class = 'column'><img src = 'category3/CS3.png' width = '70%;'></div><div class = 'column'><img src = 'usneg/9342.bmp' width = '100%;'></div></div>","null","neg","CS","CS","3","category3/CS3.png","","","","",""
"","html-keyboard-response","22","211405","0.0-6.0-0.0-0.16","szemrlvd8k","many_one","0","indirect_first","0","in05nd25","0","19","1","1","3","1","","0","1","0","null","","","<div class = 'row'><div class = 'column'><img src = 'category1/CS10.png' width = '70%;'></div><div class = 'column'><img src = 'usneg/6838.bmp' width = '100%;'></div></div>","null","neg","CS","CS","1","category1/CS10.png","","","","",""
"","html-keyboard-response","23","213945","0.0-6.0-0.0-0.17","szemrlvd8k","many_one","0","indirect_first","0","in05nd25","0","19","1","1","3","1","","0","1","0","null","","","<div class = 'row'><div class = 'column'><img src = 'usneg/6570.1.bmp' width = '100%;'></div><div class = 'column'><img src = 'category1/CS4.png' width = '70%;'></div></div>","null","neg","CS","CS","1","category1/CS4.png","","","","",""
"","html-keyboard-response","24","216474","0.0-6.0-0.0-0.18","szemrlvd8k","many_one","0","indirect_first","0","in05nd25","0","19","1","1","3","1","","0","1","0","null","","","<div class = 'row'><div class = 'column'><img src = 'uspos/1710.bmp' width = '100%;'></div><div class = 'column'><img src = 'category4/CS4.png' width = '70%;'></div></div>","null","pos","CS","CS","4","category4/CS4.png","","","","",""
"","html-keyboard-response","25","219015","0.0-6.0-0.0-0.19","szemrlvd8k","many_one","0","indirect_first","0","in05nd25","0","19","1","1","3","1","","0","1","0","null","","","<div class = 'row'><div class = 'column'><img src = 'uspos/2057.bmp' width = '100%;'></div><div class = 'column'><img src = 'category4/CS8.png' width = '70%;'></div></div>","null","pos","CS","CS","4","category4/CS8.png","","","","",""
"","survey-html-form","26","226356","0.0-6.0-1.0","szemrlvd8k","many_one","0","indirect_first","0","in05nd25","0","19","1","1","3","1","","0","1","0","6820","","{}","","","","","","","","","","","",""
"","html-keyboard-response","27","230384","0.0-6.0-2.0-0.0","szemrlvd8k","many_one","0","indirect_first","0","in05nd25","0","19","1","1","3","1","","0","1","0","null","","","<div class = 'row'><div class = 'column'><img src = 'usneg/9415.bmp' width = '100%;'></div><div class = 'column'><img src = 'category3/CS8.png' width = '70%;'></div></div>","null","neg","CS","CS","3","category3/CS8.png","","","","",""
"","html-keyboard-response","28","232914","0.0-6.0-2.0-0.1","szemrlvd8k","many_one","0","indirect_first","0","in05nd25","0","19","1","1","3","1","","0","1","0","null","","","<div class = 'row'><div class = 'column'><img src = 'usneg/9830.bmp' width = '100%;'></div><div class = 'column'><img src = 'category1/CS7.png' width = '70%;'></div></div>","null","neg","CS","CS","1","category1/CS7.png","","","","",""
"","html-keyboard-response","29","235444","0.0-6.0-2.0-0.2","szemrlvd8k","many_one","0","indirect_first","0","in05nd25","0","19","1","1","3","1","","0","1","0","null","","","<div class = 'row'><div class = 'column'><img src = 'category2/CS7.png' width = '70%;'></div><div class = 'column'><img src = 'uspos/5700.bmp' width = '100%;'></div></div>","null","pos","CS","CS","2","category2/CS7.png","","","","",""
"","html-keyboard-response","30","237984","0.0-6.0-2.0-0.3","szemrlvd8k","many_one","0","indirect_first","0","in05nd25","0","19","1","1","3","1","","0","1","0","null","","","<div class = 'row'><div class = 'column'><img src = 'uspos/8080.bmp' width = '100%;'></div><div class = 'column'><img src = 'category2/CS4.png' width = '70%;'></div></div>","null","pos","CS","CS","2","category2/CS4.png","","","","",""
"","html-keyboard-response","31","240514","0.0-6.0-2.0-0.4","szemrlvd8k","many_one","0","indirect_first","0","in05nd25","0","19","1","1","3","1","","0","1","0","null","","","<div class = 'row'><div class = 'column'><img src = 'uspos/2160.bmp' width = '100%;'></div><div class = 'column'><img src = 'category4/CS7.png' width = '70%;'></div></div>","null","pos","CS","CS","4","category4/CS7.png","","","","",""
"","html-keyboard-response","32","243054","0.0-6.0-2.0-0.5","szemrlvd8k","many_one","0","indirect_first","0","in05nd25","0","19","1","1","3","1","","0","1","0","null","","","<div class = 'row'><div class = 'column'><img src = 'category2/CS6.png' width = '70%;'></div><div class = 'column'><img src = 'uspos/5760.bmp' width = '100%;'></div></div>","null","pos","CS","CS","2","category2/CS6.png","","","","",""
"","html-keyboard-response","33","245594","0.0-6.0-2.0-0.6","szemrlvd8k","many_one","0","indirect_first","0","in05nd25","0","19","1","1","3","1","","0","1","0","null","","","<div class = 'row'><div class = 'column'><img src = 'usneg/9342.bmp' width = '100%;'></div><div class = 'column'><img src = 'category3/CS3.png' width = '70%;'></div></div>","null","neg","CS","CS","3","category3/CS3.png","","","","",""
"","html-keyboard-response","34","248123","0.0-6.0-2.0-0.7","szemrlvd8k","many_one","0","indirect_first","0","in05nd25","0","19","1","1","3","1","","0","1","0","null","","","<div class = 'row'><div class = 'column'><img src = 'usneg/3181.bmp' width = '100%;'></div><div class = 'column'><img src = 'category3/CS9.png' width = '70%;'></div></div>","null","neg","CS","CS","3","category3/CS9.png","","","","",""
"","html-keyboard-response","35","250654","0.0-6.0-2.0-0.8","szemrlvd8k","many_one","0","indirect_first","0","in05nd25","0","19","1","1","3","1","","0","1","0","null","","","<div class = 'row'><div class = 'column'><img src = 'category2/CS8.png' width = '70%;'></div><div class = 'column'><img src = 'uspos/2150.bmp' width = '100%;'></div></div>","null","pos","CS","CS","2","category2/CS8.png","","","","",""
"","html-keyboard-response","36","253184","0.0-6.0-2.0-0.9","szemrlvd8k","many_one","0","indirect_first","0","in05nd25","0","19","1","1","3","1","","0","1","0","null","","","<div class = 'row'><div class = 'column'><img src = 'category1/CS10.png' width = '70%;'></div><div class = 'column'><img src = 'usneg/6838.bmp' width = '100%;'></div></div>","null","neg","CS","CS","1","category1/CS10.png","","","","",""
"","html-keyboard-response","37","255723","0.0-6.0-2.0-0.10","szemrlvd8k","many_one","0","indirect_first","0","in05nd25","0","19","1","1","3","1","","0","1","0","null","","","<div class = 'row'><div class = 'column'><img src = 'uspos/4599.bmp' width = '100%;'></div><div class = 'column'><img src = 'category4/CS9.png' width = '70%;'></div></div>","null","pos","CS","CS","4","category4/CS9.png","","","","",""
"","html-keyboard-response","38","258263","0.0-6.0-2.0-0.11","szemrlvd8k","many_one","0","indirect_first","0","in05nd25","0","19","1","1","3","1","","0","1","0","null","","","<div class = 'row'><div class = 'column'><img src = 'category4/CS4.png' width = '70%;'></div><div class = 'column'><img src = 'uspos/1710.bmp' width = '100%;'></div></div>","null","pos","CS","CS","4","category4/CS4.png","","","","",""
"","html-keyboard-response","39","260794","0.0-6.0-2.0-0.12","szemrlvd8k","many_one","0","indirect_first","0","in05nd25","0","19","1","1","3","1","","0","1","0","null","","","<div class = 'row'><div class = 'column'><img src = 'category3/CS1.png' width = '70%;'></div><div class = 'column'><img src = 'usneg/6212.bmp' width = '100%;'></div></div>","null","neg","CS","CS","3","category3/CS1.png","","","","",""
"","html-keyboard-response","40","263334","0.0-6.0-2.0-0.13","szemrlvd8k","many_one","0","indirect_first","0","in05nd25","0","19","1","1","3","1","","0","1","0","null","","","<div class = 'row'><div class = 'column'><img src = 'uspos/2340.bmp' width = '100%;'></div><div class = 'column'><img src = 'category4/CS10.png' width = '70%;'></div></div>","null","pos","CS","CS","4","category4/CS10.png","","","","",""
"","html-keyboard-response","41","265874","0.0-6.0-2.0-0.14","szemrlvd8k","many_one","0","indirect_first","0","in05nd25","0","19","1","1","3","1","","0","1","0","null","","","<div class = 'row'><div class = 'column'><img src = 'category1/CS4.png' width = '70%;'></div><div class = 'column'><img src = 'usneg/6570.1.bmp' width = '100%;'></div></div>","null","neg","CS","CS","1","category1/CS4.png","","","","",""
"","html-keyboard-response","42","268403","0.0-6.0-2.0-0.15","szemrlvd8k","many_one","0","indirect_first","0","in05nd25","0","19","1","1","3","1","","0","1","0","null","","","<div class = 'row'><div class = 'column'><img src = 'uspos/2550.bmp' width = '100%;'></div><div class = 'column'><img src = 'category2/CS9.png' width = '70%;'></div></div>","null","pos","CS","CS","2","category2/CS9.png","","","","",""
"","html-keyboard-response","43","270944","0.0-6.0-2.0-0.16","szemrlvd8k","many_one","0","indirect_first","0","in05nd25","0","19","1","1","3","1","","0","1","0","null","","","<div class = 'row'><div class = 'column'><img src = 'category1/CS9.png' width = '70%;'></div><div class = 'column'><img src = 'usneg/9290.bmp' width = '100%;'></div></div>","null","neg","CS","CS","1","category1/CS9.png","","","","",""
"","html-keyboard-response","44","273484","0.0-6.0-2.0-0.17","szemrlvd8k","many_one","0","indirect_first","0","in05nd25","0","19","1","1","3","1","","0","1","0","null","","","<div class = 'row'><div class = 'column'><img src = 'category1/CS2.png' width = '70%;'></div><div class = 'column'><img src = 'usneg/9280.bmp' width = '100%;'></div></div>","null","neg","CS","CS","1","category1/CS2.png","","","","",""
"","html-keyboard-response","45","276023","0.0-6.0-2.0-0.18","szemrlvd8k","many_one","0","indirect_first","0","in05nd25","0","19","1","1","3","1","","0","1","0","null","","","<div class = 'row'><div class = 'column'><img src = 'category3/CS2.png' width = '70%;'></div><div class = 'column'><img src = 'usneg/1280.bmp' width = '100%;'></div></div>","null","neg","CS","CS","3","category3/CS2.png","","","","",""
"","html-keyboard-response","46","278564","0.0-6.0-2.0-0.19","szemrlvd8k","many_one","0","indirect_first","0","in05nd25","0","19","1","1","3","1","","0","1","0","null","","","<div class = 'row'><div class = 'column'><img src = 'category4/CS8.png' width = '70%;'></div><div class = 'column'><img src = 'uspos/2057.bmp' width = '100%;'></div></div>","null","pos","CS","CS","4","category4/CS8.png","","","","",""
"","survey-html-form","47","282001","0.0-6.0-3.0","szemrlvd8k","many_one","0","indirect_first","0","in05nd25","0","19","1","1","3","1","","0","1","0","2917","","{}","","","","","","","","","","","",""
"","html-keyboard-response","48","286023","0.0-6.0-4.0-0.0","szemrlvd8k","many_one","0","indirect_first","0","in05nd25","0","19","1","1","3","1","","0","1","0","null","","","<div class = 'row'><div class = 'column'><img src = 'uspos/2150.bmp' width = '100%;'></div><div class = 'column'><img src = 'category2/CS8.png' width = '70%;'></div></div>","null","pos","CS","CS","2","category2/CS8.png","","","","",""
"","html-keyboard-response","49","288553","0.0-6.0-4.0-0.1","szemrlvd8k","many_one","0","indirect_first","0","in05nd25","0","19","1","1","3","1","","0","1","0","null","","","<div class = 'row'><div class = 'column'><img src = 'uspos/2057.bmp' width = '100%;'></div><div class = 'column'><img src = 'category4/CS8.png' width = '70%;'></div></div>","null","pos","CS","CS","4","category4/CS8.png","","","","",""
"","html-keyboard-response","50","291083","0.0-6.0-4.0-0.2","szemrlvd8k","many_one","0","indirect_first","0","in05nd25","0","19","1","1","3","1","","0","1","0","null","","","<div class = 'row'><div class = 'column'><img src = 'category2/CS4.png' width = '70%;'></div><div class = 'column'><img src = 'uspos/8080.bmp' width = '100%;'></div></div>","null","pos","CS","CS","2","category2/CS4.png","","","","",""
"","html-keyboard-response","51","293624","0.0-6.0-4.0-0.3","szemrlvd8k","many_one","0","indirect_first","0","in05nd25","0","19","1","1","3","1","","0","1","0","null","","","<div class = 'row'><div class = 'column'><img src = 'category2/CS7.png' width = '70%;'></div><div class = 'column'><img src = 'uspos/5700.bmp' width = '100%;'></div></div>","null","pos","CS","CS","2","category2/CS7.png","","","","",""
"","html-keyboard-response","52","296159","0.0-6.0-4.0-0.4","szemrlvd8k","many_one","0","indirect_first","0","in05nd25","0","19","1","1","3","1","","0","1","0","null","","","<div class = 'row'><div class = 'column'><img src = 'category2/CS6.png' width = '70%;'></div><div class = 'column'><img src = 'uspos/5760.bmp' width = '100%;'></div></div>","null","pos","CS","CS","2","category2/CS6.png","","","","",""
"","html-keyboard-response","53","298703","0.0-6.0-4.0-0.5","szemrlvd8k","many_one","0","indirect_first","0","in05nd25","0","19","1","1","3","1","","0","1","0","null","","","<div class = 'row'><div class = 'column'><img src = 'usneg/9290.bmp' width = '100%;'></div><div class = 'column'><img src = 'category1/CS9.png' width = '70%;'></div></div>","null","neg","CS","CS","1","category1/CS9.png","","","","",""
"","html-keyboard-response","54","301238","0.0-6.0-4.0-0.6","szemrlvd8k","many_one","0","indirect_first","0","in05nd25","0","19","1","1","3","1","","0","1","0","null","","","<div class = 'row'><div class = 'column'><img src = 'category2/CS9.png' width = '70%;'></div><div class = 'column'><img src = 'uspos/2550.bmp' width = '100%;'></div></div>","null","pos","CS","CS","2","category2/CS9.png","","","","",""
"","html-keyboard-response","55","303753","0.0-6.0-4.0-0.7","szemrlvd8k","many_one","0","indirect_first","0","in05nd25","0","19","1","1","3","1","","0","1","0","null","","","<div class = 'row'><div class = 'column'><img src = 'category3/CS9.png' width = '70%;'></div><div class = 'column'><img src = 'usneg/3181.bmp' width = '100%;'></div></div>","null","neg","CS","CS","3","category3/CS9.png","","","","",""
"","html-keyboard-response","56","306288","0.0-6.0-4.0-0.8","szemrlvd8k","many_one","0","indirect_first","0","in05nd25","0","19","1","1","3","1","","0","1","0","null","","","<div class = 'row'><div class = 'column'><img src = 'uspos/2160.bmp' width = '100%;'></div><div class = 'column'><img src = 'category4/CS7.png' width = '70%;'></div></div>","null","pos","CS","CS","4","category4/CS7.png","","","","",""
"","html-keyboard-response","57","308804","0.0-6.0-4.0-0.9","szemrlvd8k","many_one","0","indirect_first","0","in05nd25","0","19","1","1","3","1","","0","1","0","null","","","<div class = 'row'><div class = 'column'><img src = 'usneg/1280.bmp' width = '100%;'></div><div class = 'column'><img src = 'category3/CS2.png' width = '70%;'></div></div>","null","neg","CS","CS","3","category3/CS2.png","","","","",""
"","html-keyboard-response","58","311343","0.0-6.0-4.0-0.10","szemrlvd8k","many_one","0","indirect_first","0","in05nd25","0","19","1","1","3","1","","0","1","0","null","","","<div class = 'row'><div class = 'column'><img src = 'category1/CS10.png' width = '70%;'></div><div class = 'column'><img src = 'usneg/6838.bmp' width = '100%;'></div></div>","null","neg","CS","CS","1","category1/CS10.png","","","","",""
"","html-keyboard-response","59","313873","0.0-6.0-4.0-0.11","szemrlvd8k","many_one","0","indirect_first","0","in05nd25","0","19","1","1","3","1","","0","1","0","null","","","<div class = 'row'><div class = 'column'><img src = 'category3/CS3.png' width = '70%;'></div><div class = 'column'><img src = 'usneg/9342.bmp' width = '100%;'></div></div>","null","neg","CS","CS","3","category3/CS3.png","","","","",""
"","html-keyboard-response","60","316413","0.0-6.0-4.0-0.12","szemrlvd8k","many_one","0","indirect_first","0","in05nd25","0","19","1","1","3","1","","0","1","0","null","","","<div class = 'row'><div class = 'column'><img src = 'usneg/9415.bmp' width = '100%;'></div><div class = 'column'><img src = 'category3/CS8.png' width = '70%;'></div></div>","null","neg","CS","CS","3","category3/CS8.png","","","","",""
"","html-keyboard-response","61","318952","0.0-6.0-4.0-0.13","szemrlvd8k","many_one","0","indirect_first","0","in05nd25","0","19","1","1","3","1","","0","1","0","null","","","<div class = 'row'><div class = 'column'><img src = 'category4/CS9.png' width = '70%;'></div><div class = 'column'><img src = 'uspos/4599.bmp' width = '100%;'></div></div>","null","pos","CS","CS","4","category4/CS9.png","","","","",""
"","html-keyboard-response","62","321493","0.0-6.0-4.0-0.14","szemrlvd8k","many_one","0","indirect_first","0","in05nd25","0","19","1","1","3","1","","0","1","0","null","","","<div class = 'row'><div class = 'column'><img src = 'category4/CS4.png' width = '70%;'></div><div class = 'column'><img src = 'uspos/1710.bmp' width = '100%;'></div></div>","null","pos","CS","CS","4","category4/CS4.png","","","","",""
"","html-keyboard-response","63","324033","0.0-6.0-4.0-0.15","szemrlvd8k","many_one","0","indirect_first","0","in05nd25","0","19","1","1","3","1","","0","1","0","null","","","<div class = 'row'><div class = 'column'><img src = 'uspos/2340.bmp' width = '100%;'></div><div class = 'column'><img src = 'category4/CS10.png' width = '70%;'></div></div>","null","pos","CS","CS","4","category4/CS10.png","","","","",""
"","html-keyboard-response","64","326574","0.0-6.0-4.0-0.16","szemrlvd8k","many_one","0","indirect_first","0","in05nd25","0","19","1","1","3","1","","0","1","0","null","","","<div class = 'row'><div class = 'column'><img src = 'usneg/6570.1.bmp' width = '100%;'></div><div class = 'column'><img src = 'category1/CS4.png' width = '70%;'></div></div>","null","neg","CS","CS","1","category1/CS4.png","","","","",""
"","html-keyboard-response","65","329113","0.0-6.0-4.0-0.17","szemrlvd8k","many_one","0","indirect_first","0","in05nd25","0","19","1","1","3","1","","0","1","0","null","","","<div class = 'row'><div class = 'column'><img src = 'category3/CS1.png' width = '70%;'></div><div class = 'column'><img src = 'usneg/6212.bmp' width = '100%;'></div></div>","null","neg","CS","CS","3","category3/CS1.png","","","","",""
"","html-keyboard-response","66","331642","0.0-6.0-4.0-0.18","szemrlvd8k","many_one","0","indirect_first","0","in05nd25","0","19","1","1","3","1","","0","1","0","null","","","<div class = 'row'><div class = 'column'><img src = 'usneg/9280.bmp' width = '100%;'></div><div class = 'column'><img src = 'category1/CS2.png' width = '70%;'></div></div>","null","neg","CS","CS","1","category1/CS2.png","","","","",""
"","html-keyboard-response","67","334183","0.0-6.0-4.0-0.19","szemrlvd8k","many_one","0","indirect_first","0","in05nd25","0","19","1","1","3","1","","0","1","0","null","","","<div class = 'row'><div class = 'column'><img src = 'category1/CS7.png' width = '70%;'></div><div class = 'column'><img src = 'usneg/9830.bmp' width = '100%;'></div></div>","null","neg","CS","CS","1","category1/CS7.png","","","","",""
"","survey-html-form","68","336483","0.0-6.0-5.0","szemrlvd8k","many_one","0","indirect_first","0","in05nd25","0","19","1","1","3","1","","0","1","0","1779","","{}","","","","","","","","","","","",""
"","html-keyboard-response","69","340523","0.0-6.0-6.0-0.0","szemrlvd8k","many_one","0","indirect_first","0","in05nd25","0","19","1","1","3","1","","0","1","0","null","","","<div class = 'row'><div class = 'column'><img src = 'usneg/9342.bmp' width = '100%;'></div><div class = 'column'><img src = 'category3/CS3.png' width = '70%;'></div></div>","null","neg","CS","CS","3","category3/CS3.png","","","","",""
"","html-keyboard-response","70","343064","0.0-6.0-6.0-0.1","szemrlvd8k","many_one","0","indirect_first","0","in05nd25","0","19","1","1","3","1","","0","1","0","null","","","<div class = 'row'><div class = 'column'><img src = 'category3/CS2.png' width = '70%;'></div><div class = 'column'><img src = 'usneg/1280.bmp' width = '100%;'></div></div>","null","neg","CS","CS","3","category3/CS2.png","","","","",""
"","html-keyboard-response","71","345603","0.0-6.0-6.0-0.2","szemrlvd8k","many_one","0","indirect_first","0","in05nd25","0","19","1","1","3","1","","0","1","0","null","","","<div class = 'row'><div class = 'column'><img src = 'usneg/6838.bmp' width = '100%;'></div><div class = 'column'><img src = 'category1/CS10.png' width = '70%;'></div></div>","null","neg","CS","CS","1","category1/CS10.png","","","","",""
"","html-keyboard-response","72","348143","0.0-6.0-6.0-0.3","szemrlvd8k","many_one","0","indirect_first","0","in05nd25","0","19","1","1","3","1","","0","1","0","null","","","<div class = 'row'><div class = 'column'><img src = 'category3/CS9.png' width = '70%;'></div><div class = 'column'><img src = 'usneg/3181.bmp' width = '100%;'></div></div>","null","neg","CS","CS","3","category3/CS9.png","","","","",""
"","html-keyboard-response","73","350684","0.0-6.0-6.0-0.4","szemrlvd8k","many_one","0","indirect_first","0","in05nd25","0","19","1","1","3","1","","0","1","0","null","","","<div class = 'row'><div class = 'column'><img src = 'uspos/2340.bmp' width = '100%;'></div><div class = 'column'><img src = 'category4/CS10.png' width = '70%;'></div></div>","null","pos","CS","CS","4","category4/CS10.png","","","","",""
"","html-keyboard-response","74","353214","0.0-6.0-6.0-0.5","szemrlvd8k","many_one","0","indirect_first","0","in05nd25","0","19","1","1","3","1","","0","1","0","null","","","<div class = 'row'><div class = 'column'><img src = 'uspos/4599.bmp' width = '100%;'></div><div class = 'column'><img src = 'category4/CS9.png' width = '70%;'></div></div>","null","pos","CS","CS","4","category4/CS9.png","","","","",""
"","html-keyboard-response","75","355752","0.0-6.0-6.0-0.6","szemrlvd8k","many_one","0","indirect_first","0","in05nd25","0","19","1","1","3","1","","0","1","0","null","","","<div class = 'row'><div class = 'column'><img src = 'category4/CS7.png' width = '70%;'></div><div class = 'column'><img src = 'uspos/2160.bmp' width = '100%;'></div></div>","null","pos","CS","CS","4","category4/CS7.png","","","","",""
"","html-keyboard-response","76","358288","0.0-6.0-6.0-0.7","szemrlvd8k","many_one","0","indirect_first","0","in05nd25","0","19","1","1","3","1","","0","1","0","null","","","<div class = 'row'><div class = 'column'><img src = 'category2/CS9.png' width = '70%;'></div><div class = 'column'><img src = 'uspos/2550.bmp' width = '100%;'></div></div>","null","pos","CS","CS","2","category2/CS9.png","","","","",""
"","html-keyboard-response","77","360833","0.0-6.0-6.0-0.8","szemrlvd8k","many_one","0","indirect_first","0","in05nd25","0","19","1","1","3","1","","0","1","0","null","","","<div class = 'row'><div class = 'column'><img src = 'category1/CS2.png' width = '70%;'></div><div class = 'column'><img src = 'usneg/9280.bmp' width = '100%;'></div></div>","null","neg","CS","CS","1","category1/CS2.png","","","","",""
"","html-keyboard-response","78","363372","0.0-6.0-6.0-0.9","szemrlvd8k","many_one","0","indirect_first","0","in05nd25","0","19","1","1","3","1","","0","1","0","null","","","<div class = 'row'><div class = 'column'><img src = 'category4/CS4.png' width = '70%;'></div><div class = 'column'><img src = 'uspos/1710.bmp' width = '100%;'></div></div>","null","pos","CS","CS","4","category4/CS4.png","","","","",""
"","html-keyboard-response","79","365912","0.0-6.0-6.0-0.10","szemrlvd8k","many_one","0","indirect_first","0","in05nd25","0","19","1","1","3","1","","0","1","0","null","","","<div class = 'row'><div class = 'column'><img src = 'uspos/2150.bmp' width = '100%;'></div><div class = 'column'><img src = 'category2/CS8.png' width = '70%;'></div></div>","null","pos","CS","CS","2","category2/CS8.png","","","","",""
"","html-keyboard-response","80","368452","0.0-6.0-6.0-0.11","szemrlvd8k","many_one","0","indirect_first","0","in05nd25","0","19","1","1","3","1","","0","1","0","null","","","<div class = 'row'><div class = 'column'><img src = 'usneg/9415.bmp' width = '100%;'></div><div class = 'column'><img src = 'category3/CS8.png' width = '70%;'></div></div>","null","neg","CS","CS","3","category3/CS8.png","","","","",""
"","html-keyboard-response","81","370993","0.0-6.0-6.0-0.12","szemrlvd8k","many_one","0","indirect_first","0","in05nd25","0","19","1","1","3","1","","0","1","0","null","","","<div class = 'row'><div class = 'column'><img src = 'category2/CS7.png' width = '70%;'></div><div class = 'column'><img src = 'uspos/5700.bmp' width = '100%;'></div></div>","null","pos","CS","CS","2","category2/CS7.png","","","","",""
"","html-keyboard-response","82","373532","0.0-6.0-6.0-0.13","szemrlvd8k","many_one","0","indirect_first","0","in05nd25","0","19","1","1","3","1","","0","1","0","null","","","<div class = 'row'><div class = 'column'><img src = 'uspos/2057.bmp' width = '100%;'></div><div class = 'column'><img src = 'category4/CS8.png' width = '70%;'></div></div>","null","pos","CS","CS","4","category4/CS8.png","","","","",""
"","html-keyboard-response","83","376072","0.0-6.0-6.0-0.14","szemrlvd8k","many_one","0","indirect_first","0","in05nd25","0","19","1","1","3","1","","0","1","0","null","","","<div class = 'row'><div class = 'column'><img src = 'uspos/5760.bmp' width = '100%;'></div><div class = 'column'><img src = 'category2/CS6.png' width = '70%;'></div></div>","null","pos","CS","CS","2","category2/CS6.png","","","","",""
"","html-keyboard-response","84","378612","0.0-6.0-6.0-0.15","szemrlvd8k","many_one","0","indirect_first","0","in05nd25","0","19","1","1","3","1","","0","1","0","null","","","<div class = 'row'><div class = 'column'><img src = 'usneg/6212.bmp' width = '100%;'></div><div class = 'column'><img src = 'category3/CS1.png' width = '70%;'></div></div>","null","neg","CS","CS","3","category3/CS1.png","","","","",""
"","html-keyboard-response","85","381152","0.0-6.0-6.0-0.16","szemrlvd8k","many_one","0","indirect_first","0","in05nd25","0","19","1","1","3","1","","0","1","0","null","","","<div class = 'row'><div class = 'column'><img src = 'category1/CS9.png' width = '70%;'></div><div class = 'column'><img src = 'usneg/9290.bmp' width = '100%;'></div></div>","null","neg","CS","CS","1","category1/CS9.png","","","","",""
"","html-keyboard-response","86","383682","0.0-6.0-6.0-0.17","szemrlvd8k","many_one","0","indirect_first","0","in05nd25","0","19","1","1","3","1","","0","1","0","null","","","<div class = 'row'><div class = 'column'><img src = 'category1/CS4.png' width = '70%;'></div><div class = 'column'><img src = 'usneg/6570.1.bmp' width = '100%;'></div></div>","null","neg","CS","CS","1","category1/CS4.png","","","","",""
"","html-keyboard-response","87","386222","0.0-6.0-6.0-0.18","szemrlvd8k","many_one","0","indirect_first","0","in05nd25","0","19","1","1","3","1","","0","1","0","null","","","<div class = 'row'><div class = 'column'><img src = 'category1/CS7.png' width = '70%;'></div><div class = 'column'><img src = 'usneg/9830.bmp' width = '100%;'></div></div>","null","neg","CS","CS","1","category1/CS7.png","","","","",""
"","html-keyboard-response","88","388761","0.0-6.0-6.0-0.19","szemrlvd8k","many_one","0","indirect_first","0","in05nd25","0","19","1","1","3","1","","0","1","0","null","","","<div class = 'row'><div class = 'column'><img src = 'category2/CS4.png' width = '70%;'></div><div class = 'column'><img src = 'uspos/8080.bmp' width = '100%;'></div></div>","null","pos","CS","CS","2","category2/CS4.png","","","","",""
"","html-keyboard-response","89","430209","0.0-7.0","szemrlvd8k","many_one","0","indirect_first","0","in05nd25","0","19","1","1","3","1","","0","1","0","40925","","","<p>Sie sehen nun die chinesischen Zeichen nur ganz kurz. Danach sehen Sie die jeweilige Aussprache der Zeichen als Silbe auf dem Bildschrim. Ihre Aufgabe ist es, für jede Silbe anzugeben, ob diese etwas angenehmes, oder unangenehmes bedeuten könnte. Verlassen Sie sich hier vor allem auf Ihre Intuition.<br><br>Die Zeichen werden nur zur Orientierung dargestellt, beachten Sie sie deshalb nicht. Konzentrieren Sie sich vor allem auf die Silben. <br>Reagieren Sie mit folgenden zwei Tasten: <br><br><b>'D' </b> wenn die Silbe etwas <b>unangenehmes</b> bedeuten könnte. <br><b>'K'</b> wenn die Silbe etwas <b>angenehmes</b> bedeuten könnte. <br><br>Bitte legen Sie nun den Zeigefinger der linken Hand auf die Taste 'D' und den Zeigefinger der rechten Hand auf die Taste 'K'. <br>Reagieren Sie auf jede Silbe so schnell wie möglich. Uns interessiert Ihre spontane Reaktion. <br> <br> <br>Drücken Sie 'D' oder 'K', um die nächste Aufgabe zu starten. </p>","75","","","","","","","","","",""
"","html-keyboard-response","90","433231","0.0-8.0-0.0","szemrlvd8k","many_one","0","indirect_first","0","in05nd25","0","19","1","1","3","1","","0","1","0","null","","","<div style=""font-size:60px;"">+</div>","null","","","","","","","","","",""
"","html-keyboard-response","91","433331","0.0-8.0-1.0","szemrlvd8k","many_one","0","indirect_first","0","in05nd25","0","19","1","1","3","1","","0","1","0","null","","","<img src = 'category1/CS9.png' width = '100%;'>","null","","","","","","","","","",""
"","html-keyboard-response","92","433611","0.0-8.0-2.0","szemrlvd8k","many_one","0","indirect_first","0","in05nd25","0","19","1","1","3","1","","0","1","0","null","","","<img src = 'targets/12.png' width = '100%;'>","null","","","","","","","","","",""
"","html-keyboard-response","93","439407","0.0-8.0-3.0","szemrlvd8k","many_one","0","indirect_first","0","in05nd25","0","19","1","1","3","1","","0","1","0","5791","","","<img src = 'targets/mask.png' width = '100%;'>","68","neg","CS","CS","1","category1/CS9.png","targets/12.png","0","indirect","0",""
"","html-keyboard-response","94","440931","0.0-8.0-0.1","szemrlvd8k","many_one","0","indirect_first","0","in05nd25","0","19","1","1","3","1","","0","1","0","null","","","<div style=""font-size:60px;"">+</div>","null","","","","","","","","","",""
"","html-keyboard-response","95","441031","0.0-8.0-1.1","szemrlvd8k","many_one","0","indirect_first","0","in05nd25","0","19","1","1","3","1","","0","1","0","null","","","<img src = 'category1/CS2.png' width = '100%;'>","null","","","","","","","","","",""
"","html-keyboard-response","96","441291","0.0-8.0-2.1","szemrlvd8k","many_one","0","indirect_first","0","in05nd25","0","19","1","1","3","1","","0","1","0","null","","","<img src = 'targets/8.png' width = '100%;'>","null","","","","","","","","","",""
"","html-keyboard-response","97","445856","0.0-8.0-3.1","szemrlvd8k","many_one","0","indirect_first","0","in05nd25","0","19","1","1","3","1","","0","1","0","4562","","","<img src = 'targets/mask.png' width = '100%;'>","68","neg","CS","CS","1","category1/CS2.png","targets/8.png","0","indirect","1",""
"","html-keyboard-response","98","447391","0.0-8.0-0.2","szemrlvd8k","many_one","0","indirect_first","0","in05nd25","0","19","1","1","3","1","","0","1","0","null","","","<div style=""font-size:60px;"">+</div>","null","","","","","","","","","",""
"","html-keyboard-response","99","447491","0.0-8.0-1.2","szemrlvd8k","many_one","0","indirect_first","0","in05nd25","0","19","1","1","3","1","","0","1","0","null","","","<img src = 'category4/CS4.png' width = '100%;'>","null","","","","","","","","","",""
"","html-keyboard-response","100","447772","0.0-8.0-2.2","szemrlvd8k","many_one","0","indirect_first","0","in05nd25","0","19","1","1","3","1","","0","1","0","null","","","<img src = 'targets/17.png' width = '100%;'>","null","","","","","","","","","",""
"","html-keyboard-response","101","448985","0.0-8.0-3.2","szemrlvd8k","many_one","0","indirect_first","0","in05nd25","0","19","1","1","3","1","","0","1","0","1211","","","<img src = 'targets/mask.png' width = '100%;'>","75","pos","CS","CS","4","category4/CS4.png","targets/17.png","1","indirect","2",""
"","html-keyboard-response","102","450511","0.0-8.0-0.3","szemrlvd8k","many_one","0","indirect_first","0","in05nd25","0","19","1","1","3","1","","0","1","0","null","","","<div style=""font-size:60px;"">+</div>","null","","","","","","","","","",""
"","html-keyboard-response","103","450611","0.0-8.0-1.3","szemrlvd8k","many_one","0","indirect_first","0","in05nd25","0","19","1","1","3","1","","0","1","0","null","","","<img src = 'category2/CS9.png' width = '100%;'>","null","","","","","","","","","",""
"","html-keyboard-response","104","450891","0.0-8.0-2.3","szemrlvd8k","many_one","0","indirect_first","0","in05nd25","0","19","1","1","3","1","","0","1","0","null","","","<img src = 'targets/40.png' width = '100%;'>","null","","","","","","","","","",""
"","html-keyboard-response","105","451342","0.0-8.0-3.3","szemrlvd8k","many_one","0","indirect_first","0","in05nd25","0","19","1","1","3","1","","0","1","0","449","","","<img src = 'targets/mask.png' width = '100%;'>","75","pos","CS","CS","2","category2/CS9.png","targets/40.png","1","indirect","3",""
"","html-keyboard-response","106","452867","0.0-8.0-0.4","szemrlvd8k","many_one","0","indirect_first","0","in05nd25","0","19","1","1","3","1","","0","1","0","null","","","<div style=""font-size:60px;"">+</div>","null","","","","","","","","","",""
"","html-keyboard-response","107","452967","0.0-8.0-1.4","szemrlvd8k","many_one","0","indirect_first","0","in05nd25","0","19","1","1","3","1","","0","1","0","null","","","<img src = 'category4/CS8.png' width = '100%;'>","null","","","","","","","","","",""
"","html-keyboard-response","108","453250","0.0-8.0-2.4","szemrlvd8k","many_one","0","indirect_first","0","in05nd25","0","19","1","1","3","1","","0","1","0","null","","","<img src = 'targets/13.png' width = '100%;'>","null","","","","","","","","","",""
"","html-keyboard-response","109","453673","0.0-8.0-3.4","szemrlvd8k","many_one","0","indirect_first","0","in05nd25","0","19","1","1","3","1","","0","1","0","419","","","<img src = 'targets/mask.png' width = '100%;'>","75","pos","CS","CS","4","category4/CS8.png","targets/13.png","1","indirect","4",""
"","html-keyboard-response","110","455212","0.0-8.0-0.5","szemrlvd8k","many_one","0","indirect_first","0","in05nd25","0","19","1","1","3","1","","0","1","0","null","","","<div style=""font-size:60px;"">+</div>","null","","","","","","","","","",""
"","html-keyboard-response","111","455311","0.0-8.0-1.5","szemrlvd8k","many_one","0","indirect_first","0","in05nd25","0","19","1","1","3","1","","0","1","0","null","","","<img src = 'category3/CS1.png' width = '100%;'>","null","","","","","","","","","",""
"","html-keyboard-response","112","455591","0.0-8.0-2.5","szemrlvd8k","many_one","0","indirect_first","0","in05nd25","0","19","1","1","3","1","","0","1","0","null","","","<img src = 'targets/39.png' width = '100%;'>","null","","","","","","","","","",""
"","html-keyboard-response","113","455963","0.0-8.0-3.5","szemrlvd8k","many_one","0","indirect_first","0","in05nd25","0","19","1","1","3","1","","0","1","0","371","","","<img src = 'targets/mask.png' width = '100%;'>","68","neg","CS","CS","3","category3/CS1.png","targets/39.png","0","indirect","5",""
"","html-keyboard-response","114","457491","0.0-8.0-0.6","szemrlvd8k","many_one","0","indirect_first","0","in05nd25","0","19","1","1","3","1","","0","1","0","null","","","<div style=""font-size:60px;"">+</div>","null","","","","","","","","","",""
"","html-keyboard-response","115","457591","0.0-8.0-1.6","szemrlvd8k","many_one","0","indirect_first","0","in05nd25","0","19","1","1","3","1","","0","1","0","null","","","<img src = 'category3/CS9.png' width = '100%;'>","null","","","","","","","","","",""
"","html-keyboard-response","116","457860","0.0-8.0-2.6","szemrlvd8k","many_one","0","indirect_first","0","in05nd25","0","19","1","1","3","1","","0","1","0","null","","","<img src = 'targets/28.png' width = '100%;'>","null","","","","","","","","","",""
"","html-keyboard-response","117","458241","0.0-8.0-3.6","szemrlvd8k","many_one","0","indirect_first","0","in05nd25","0","19","1","1","3","1","","0","1","0","379","","","<img src = 'targets/mask.png' width = '100%;'>","68","neg","CS","CS","3","category3/CS9.png","targets/28.png","0","indirect","6",""
"","html-keyboard-response","118","459771","0.0-8.0-0.7","szemrlvd8k","many_one","0","indirect_first","0","in05nd25","0","19","1","1","3","1","","0","1","0","null","","","<div style=""font-size:60px;"">+</div>","null","","","","","","","","","",""
"","html-keyboard-response","119","459871","0.0-8.0-1.7","szemrlvd8k","many_one","0","indirect_first","0","in05nd25","0","19","1","1","3","1","","0","1","0","null","","","<img src = 'category2/CS6.png' width = '100%;'>","null","","","","","","","","","",""
"","html-keyboard-response","120","460151","0.0-8.0-2.7","szemrlvd8k","many_one","0","indirect_first","0","in05nd25","0","19","1","1","3","1","","0","1","0","null","","","<img src = 'targets/41.png' width = '100%;'>","null","","","","","","","","","",""
"","html-keyboard-response","121","460411","0.0-8.0-3.7","szemrlvd8k","many_one","0","indirect_first","0","in05nd25","0","19","1","1","3","1","","0","1","0","257","","","<img src = 'targets/mask.png' width = '100%;'>","75","pos","CS","CS","2","category2/CS6.png","targets/41.png","1","indirect","7",""
"","html-keyboard-response","122","461941","0.0-8.0-0.8","szemrlvd8k","many_one","0","indirect_first","0","in05nd25","0","19","1","1","3","1","","0","1","0","null","","","<div style=""font-size:60px;"">+</div>","null","","","","","","","","","",""
"","html-keyboard-response","123","462040","0.0-8.0-1.8","szemrlvd8k","many_one","0","indirect_first","0","in05nd25","0","19","1","1","3","1","","0","1","0","null","","","<img src = 'category2/CS1.png' width = '100%;'>","null","","","","","","","","","",""
"","html-keyboard-response","124","462321","0.0-8.0-2.8","szemrlvd8k","many_one","0","indirect_first","0","in05nd25","0","19","1","1","3","1","","0","1","0","null","","","<img src = 'targets/33.png' width = '100%;'>","null","","","","","","","","","",""
"","html-keyboard-response","125","463184","0.0-8.0-3.8","szemrlvd8k","many_one","0","indirect_first","0","in05nd25","0","19","1","1","3","1","","0","1","0","861","","","<img src = 'targets/mask.png' width = '100%;'>","68","pos","GS","GSold","2","category2/CS1.png","targets/33.png","0","indirect","8",""
"","html-keyboard-response","126","464721","0.0-8.0-0.9","szemrlvd8k","many_one","0","indirect_first","0","in05nd25","0","19","1","1","3","1","","0","1","0","null","","","<div style=""font-size:60px;"">+</div>","null","","","","","","","","","",""
"","html-keyboard-response","127","464821","0.0-8.0-1.9","szemrlvd8k","many_one","0","indirect_first","0","in05nd25","0","19","1","1","3","1","","0","1","0","null","","","<img src = 'category1/CS7.png' width = '100%;'>","null","","","","","","","","","",""
"","html-keyboard-response","128","465101","0.0-8.0-2.9","szemrlvd8k","many_one","0","indirect_first","0","in05nd25","0","19","1","1","3","1","","0","1","0","null","","","<img src = 'targets/1.png' width = '100%;'>","null","","","","","","","","","",""
"","html-keyboard-response","129","465502","0.0-8.0-3.9","szemrlvd8k","many_one","0","indirect_first","0","in05nd25","0","19","1","1","3","1","","0","1","0","397","","","<img src = 'targets/mask.png' width = '100%;'>","75","neg","CS","CS","1","category1/CS7.png","targets/1.png","1","indirect","9",""
"","html-keyboard-response","130","467041","0.0-8.0-0.10","szemrlvd8k","many_one","0","indirect_first","0","in05nd25","0","19","1","1","3","1","","0","1","0","null","","","<div style=""font-size:60px;"">+</div>","null","","","","","","","","","",""
"","html-keyboard-response","131","467141","0.0-8.0-1.10","szemrlvd8k","many_one","0","indirect_first","0","in05nd25","0","19","1","1","3","1","","0","1","0","null","","","<img src = 'category4/CS10.png' width = '100%;'>","null","","","","","","","","","",""
"","html-keyboard-response","132","467421","0.0-8.0-2.10","szemrlvd8k","many_one","0","indirect_first","0","in05nd25","0","19","1","1","3","1","","0","1","0","null","","","<img src = 'targets/22.png' width = '100%;'>","null","","","","","","","","","",""
"","html-keyboard-response","133","468223","0.0-8.0-3.10","szemrlvd8k","many_one","0","indirect_first","0","in05nd25","0","19","1","1","3","1","","0","1","0","799","","","<img src = 'targets/mask.png' width = '100%;'>","75","pos","CS","CS","4","category4/CS10.png","targets/22.png","1","indirect","10",""
"","html-keyboard-response","134","469761","0.0-8.0-0.11","szemrlvd8k","many_one","0","indirect_first","0","in05nd25","0","19","1","1","3","1","","0","1","0","null","","","<div style=""font-size:60px;"">+</div>","null","","","","","","","","","",""
"","html-keyboard-response","135","469860","0.0-8.0-1.11","szemrlvd8k","many_one","0","indirect_first","0","in05nd25","0","19","1","1","3","1","","0","1","0","null","","","<img src = 'category2/CS8.png' width = '100%;'>","null","","","","","","","","","",""
"","html-keyboard-response","136","470141","0.0-8.0-2.11","szemrlvd8k","many_one","0","indirect_first","0","in05nd25","0","19","1","1","3","1","","0","1","0","null","","","<img src = 'targets/20.png' width = '100%;'>","null","","","","","","","","","",""
"","html-keyboard-response","137","470680","0.0-8.0-3.11","szemrlvd8k","many_one","0","indirect_first","0","in05nd25","0","19","1","1","3","1","","0","1","0","536","","","<img src = 'targets/mask.png' width = '100%;'>","68","pos","CS","CS","2","category2/CS8.png","targets/20.png","0","indirect","11",""
"","html-keyboard-response","138","472220","0.0-8.0-0.12","szemrlvd8k","many_one","0","indirect_first","0","in05nd25","0","19","1","1","3","1","","0","1","0","null","","","<div style=""font-size:60px;"">+</div>","null","","","","","","","","","",""
"","html-keyboard-response","139","472321","0.0-8.0-1.12","szemrlvd8k","many_one","0","indirect_first","0","in05nd25","0","19","1","1","3","1","","0","1","0","null","","","<img src = 'category4/CS7.png' width = '100%;'>","null","","","","","","","","","",""
"","html-keyboard-response","140","472600","0.0-8.0-2.12","szemrlvd8k","many_one","0","indirect_first","0","in05nd25","0","19","1","1","3","1","","0","1","0","null","","","<img src = 'targets/27.png' width = '100%;'>","null","","","","","","","","","",""
"","html-keyboard-response","141","473834","0.0-8.0-3.12","szemrlvd8k","many_one","0","indirect_first","0","in05nd25","0","19","1","1","3","1","","0","1","0","1231","","","<img src = 'targets/mask.png' width = '100%;'>","75","pos","CS","CS","4","category4/CS7.png","targets/27.png","1","indirect","12",""
"","html-keyboard-response","142","475360","0.0-8.0-0.13","szemrlvd8k","many_one","0","indirect_first","0","in05nd25","0","19","1","1","3","1","","0","1","0","null","","","<div style=""font-size:60px;"">+</div>","null","","","","","","","","","",""
"","html-keyboard-response","143","475460","0.0-8.0-1.13","szemrlvd8k","many_one","0","indirect_first","0","in05nd25","0","19","1","1","3","1","","0","1","0","null","","","<img src = 'category3/CS7.png' width = '100%;'>","null","","","","","","","","","",""
"","html-keyboard-response","144","475741","0.0-8.0-2.13","szemrlvd8k","many_one","0","indirect_first","0","in05nd25","0","19","1","1","3","1","","0","1","0","null","","","<img src = 'targets/9.png' width = '100%;'>","null","","","","","","","","","",""
"","html-keyboard-response","145","476541","0.0-8.0-3.13","szemrlvd8k","many_one","0","indirect_first","0","in05nd25","0","19","1","1","3","1","","0","1","0","799","","","<img src = 'targets/mask.png' width = '100%;'>","68","neg","GS","GSold","3","category3/CS7.png","targets/9.png","0","indirect","13",""
"","html-keyboard-response","146","478080","0.0-8.0-0.14","szemrlvd8k","many_one","0","indirect_first","0","in05nd25","0","19","1","1","3","1","","0","1","0","null","","","<div style=""font-size:60px;"">+</div>","null","","","","","","","","","",""
"","html-keyboard-response","147","478180","0.0-8.0-1.14","szemrlvd8k","many_one","0","indirect_first","0","in05nd25","0","19","1","1","3","1","","0","1","0","null","","","<img src = 'category2/CS7.png' width = '100%;'>","null","","","","","","","","","",""
"","html-keyboard-response","148","478461","0.0-8.0-2.14","szemrlvd8k","many_one","0","indirect_first","0","in05nd25","0","19","1","1","3","1","","0","1","0","null","","","<img src = 'targets/25.png' width = '100%;'>","null","","","","","","","","","",""
"","html-keyboard-response","149","479332","0.0-8.0-3.14","szemrlvd8k","many_one","0","indirect_first","0","in05nd25","0","19","1","1","3","1","","0","1","0","871","","","<img src = 'targets/mask.png' width = '100%;'>","68","pos","CS","CS","2","category2/CS7.png","targets/25.png","0","indirect","14",""
"","html-keyboard-response","150","480861","0.0-8.0-0.15","szemrlvd8k","many_one","0","indirect_first","0","in05nd25","0","19","1","1","3","1","","0","1","0","null","","","<div style=""font-size:60px;"">+</div>","null","","","","","","","","","",""
"","html-keyboard-response","151","480961","0.0-8.0-1.15","szemrlvd8k","many_one","0","indirect_first","0","in05nd25","0","19","1","1","3","1","","0","1","0","null","","","<img src = 'category1/CS10.png' width = '100%;'>","null","","","","","","","","","",""
"","html-keyboard-response","152","481240","0.0-8.0-2.15","szemrlvd8k","many_one","0","indirect_first","0","in05nd25","0","19","1","1","3","1","","0","1","0","null","","","<img src = 'targets/30.png' width = '100%;'>","null","","","","","","","","","",""
"","html-keyboard-response","153","482409","0.0-8.0-3.15","szemrlvd8k","many_one","0","indirect_first","0","in05nd25","0","19","1","1","3","1","","0","1","0","1167","","","<img src = 'targets/mask.png' width = '100%;'>","68","neg","CS","CS","1","category1/CS10.png","targets/30.png","0","indirect","15",""
"","html-keyboard-response","154","483940","0.0-8.0-0.16","szemrlvd8k","many_one","0","indirect_first","0","in05nd25","0","19","1","1","3","1","","0","1","0","null","","","<div style=""font-size:60px;"">+</div>","null","","","","","","","","","",""
"","html-keyboard-response","155","484040","0.0-8.0-1.16","szemrlvd8k","many_one","0","indirect_first","0","in05nd25","0","19","1","1","3","1","","0","1","0","null","","","<img src = 'category4/CS9.png' width = '100%;'>","null","","","","","","","","","",""
"","html-keyboard-response","156","484320","0.0-8.0-2.16","szemrlvd8k","many_one","0","indirect_first","0","in05nd25","0","19","1","1","3","1","","0","1","0","null","","","<img src = 'targets/34.png' width = '100%;'>","null","","","","","","","","","",""
"","html-keyboard-response","157","484943","0.0-8.0-3.16","szemrlvd8k","many_one","0","indirect_first","0","in05nd25","0","19","1","1","3","1","","0","1","0","620","","","<img src = 'targets/mask.png' width = '100%;'>","75","pos","CS","CS","4","category4/CS9.png","targets/34.png","1","indirect","16",""
"","html-keyboard-response","158","486481","0.0-8.0-0.17","szemrlvd8k","many_one","0","indirect_first","0","in05nd25","0","19","1","1","3","1","","0","1","0","null","","","<div style=""font-size:60px;"">+</div>","null","","","","","","","","","",""
"","html-keyboard-response","159","486580","0.0-8.0-1.17","szemrlvd8k","many_one","0","indirect_first","0","in05nd25","0","19","1","1","3","1","","0","1","0","null","","","<img src = 'category3/CS4.png' width = '100%;'>","null","","","","","","","","","",""
"","html-keyboard-response","160","486860","0.0-8.0-2.17","szemrlvd8k","many_one","0","indirect_first","0","in05nd25","0","19","1","1","3","1","","0","1","0","null","","","<img src = 'targets/24.png' width = '100%;'>","null","","","","","","","","","",""
"","html-keyboard-response","161","487643","0.0-8.0-3.17","szemrlvd8k","many_one","0","indirect_first","0","in05nd25","0","19","1","1","3","1","","0","1","0","780","","","<img src = 'targets/mask.png' width = '100%;'>","68","neg","GS","GSold","3","category3/CS4.png","targets/24.png","0","indirect","17",""
"","html-keyboard-response","162","489170","0.0-8.0-0.18","szemrlvd8k","many_one","0","indirect_first","0","in05nd25","0","19","1","1","3","1","","0","1","0","null","","","<div style=""font-size:60px;"">+</div>","null","","","","","","","","","",""
"","html-keyboard-response","163","489271","0.0-8.0-1.18","szemrlvd8k","many_one","0","indirect_first","0","in05nd25","0","19","1","1","3","1","","0","1","0","null","","","<img src = 'category2/CS4.png' width = '100%;'>","null","","","","","","","","","",""
"","html-keyboard-response","164","489550","0.0-8.0-2.18","szemrlvd8k","many_one","0","indirect_first","0","in05nd25","0","19","1","1","3","1","","0","1","0","null","","","<img src = 'targets/36.png' width = '100%;'>","null","","","","","","","","","",""
"","html-keyboard-response","165","490115","0.0-8.0-3.18","szemrlvd8k","many_one","0","indirect_first","0","in05nd25","0","19","1","1","3","1","","0","1","0","562","","","<img src = 'targets/mask.png' width = '100%;'>","68","pos","CS","CS","2","category2/CS4.png","targets/36.png","0","indirect","18",""
"","html-keyboard-response","166","491650","0.0-8.0-0.19","szemrlvd8k","many_one","0","indirect_first","0","in05nd25","0","19","1","1","3","1","","0","1","0","null","","","<div style=""font-size:60px;"">+</div>","null","","","","","","","","","",""
"","html-keyboard-response","167","491750","0.0-8.0-1.19","szemrlvd8k","many_one","0","indirect_first","0","in05nd25","0","19","1","1","3","1","","0","1","0","null","","","<img src = 'category3/CS3.png' width = '100%;'>","null","","","","","","","","","",""
"","html-keyboard-response","168","492030","0.0-8.0-2.19","szemrlvd8k","many_one","0","indirect_first","0","in05nd25","0","19","1","1","3","1","","0","1","0","null","","","<img src = 'targets/32.png' width = '100%;'>","null","","","","","","","","","",""
"","html-keyboard-response","169","492564","0.0-8.0-3.19","szemrlvd8k","many_one","0","indirect_first","0","in05nd25","0","19","1","1","3","1","","0","1","0","532","","","<img src = 'targets/mask.png' width = '100%;'>","68","neg","CS","CS","3","category3/CS3.png","targets/32.png","0","indirect","19",""
"","html-keyboard-response","170","494091","0.0-8.0-0.20","szemrlvd8k","many_one","0","indirect_first","0","in05nd25","0","19","1","1","3","1","","0","1","0","null","","","<div style=""font-size:60px;"">+</div>","null","","","","","","","","","",""
"","html-keyboard-response","171","494190","0.0-8.0-1.20","szemrlvd8k","many_one","0","indirect_first","0","in05nd25","0","19","1","1","3","1","","0","1","0","null","","","<img src = 'category3/CS6.png' width = '100%;'>","null","","","","","","","","","",""
"","html-keyboard-response","172","494466","0.0-8.0-2.20","szemrlvd8k","many_one","0","indirect_first","0","in05nd25","0","19","1","1","3","1","","0","1","0","null","","","<img src = 'targets/2.png' width = '100%;'>","null","","","","","","","","","",""
"","html-keyboard-response","173","494933","0.0-8.0-3.20","szemrlvd8k","many_one","0","indirect_first","0","in05nd25","0","19","1","1","3","1","","0","1","0","465","","","<img src = 'targets/mask.png' width = '100%;'>","68","neg","GS","GSold","3","category3/CS6.png","targets/2.png","0","indirect","20",""
"","html-keyboard-response","174","496469","0.0-8.0-0.21","szemrlvd8k","many_one","0","indirect_first","0","in05nd25","0","19","1","1","3","1","","0","1","0","null","","","<div style=""font-size:60px;"">+</div>","null","","","","","","","","","",""
"","html-keyboard-response","175","496569","0.0-8.0-1.21","szemrlvd8k","many_one","0","indirect_first","0","in05nd25","0","19","1","1","3","1","","0","1","0","null","","","<img src = 'category3/CS2.png' width = '100%;'>","null","","","","","","","","","",""
"","html-keyboard-response","176","496830","0.0-8.0-2.21","szemrlvd8k","many_one","0","indirect_first","0","in05nd25","0","19","1","1","3","1","","0","1","0","null","","","<img src = 'targets/35.png' width = '100%;'>","null","","","","","","","","","",""
"","html-keyboard-response","177","497281","0.0-8.0-3.21","szemrlvd8k","many_one","0","indirect_first","0","in05nd25","0","19","1","1","3","1","","0","1","0","448","","","<img src = 'targets/mask.png' width = '100%;'>","68","neg","CS","CS","3","category3/CS2.png","targets/35.png","0","indirect","21",""
"","html-keyboard-response","178","498810","0.0-8.0-0.22","szemrlvd8k","many_one","0","indirect_first","0","in05nd25","0","19","1","1","3","1","","0","1","0","null","","","<div style=""font-size:60px;"">+</div>","null","","","","","","","","","",""
"","html-keyboard-response","179","498910","0.0-8.0-1.22","szemrlvd8k","many_one","0","indirect_first","0","in05nd25","0","19","1","1","3","1","","0","1","0","null","","","<img src = 'category1/CS4.png' width = '100%;'>","null","","","","","","","","","",""
"","html-keyboard-response","180","499191","0.0-8.0-2.22","szemrlvd8k","many_one","0","indirect_first","0","in05nd25","0","19","1","1","3","1","","0","1","0","null","","","<img src = 'targets/29.png' width = '100%;'>","null","","","","","","","","","",""
"","html-keyboard-response","181","501783","0.0-8.0-3.22","szemrlvd8k","many_one","0","indirect_first","0","in05nd25","0","19","1","1","3","1","","0","1","0","2591","","","<img src = 'targets/mask.png' width = '100%;'>","68","neg","CS","CS","1","category1/CS4.png","targets/29.png","0","indirect","22",""
"","html-keyboard-response","182","503310","0.0-8.0-0.23","szemrlvd8k","many_one","0","indirect_first","0","in05nd25","0","19","1","1","3","1","","0","1","0","null","","","<div style=""font-size:60px;"">+</div>","null","","","","","","","","","",""
"","html-keyboard-response","183","503411","0.0-8.0-1.23","szemrlvd8k","many_one","0","indirect_first","0","in05nd25","0","19","1","1","3","1","","0","1","0","null","","","<img src = 'category3/CS8.png' width = '100%;'>","null","","","","","","","","","",""
"","html-keyboard-response","184","503690","0.0-8.0-2.23","szemrlvd8k","many_one","0","indirect_first","0","in05nd25","0","19","1","1","3","1","","0","1","0","null","","","<img src = 'targets/3.png' width = '100%;'>","null","","","","","","","","","",""
"","html-keyboard-response","185","504230","0.0-8.0-3.23","szemrlvd8k","many_one","0","indirect_first","0","in05nd25","0","19","1","1","3","1","","0","1","0","538","","","<img src = 'targets/mask.png' width = '100%;'>","68","neg","CS","CS","3","category3/CS8.png","targets/3.png","0","indirect","23",""
"","survey-html-form","186","506502","0.0-9.0","szemrlvd8k","many_one","0","indirect_first","0","in05nd25","0","19","1","1","3","1","","0","1","0","1752","","{}","","","","","","","","","","","",""
"","html-keyboard-response","187","509540","0.0-10.0-0.0","szemrlvd8k","many_one","0","indirect_first","0","in05nd25","0","19","1","1","3","1","","0","1","0","null","","","<div style=""font-size:60px;"">+</div>","null","","","","","","","","","",""
"","html-keyboard-response","188","509639","0.0-10.0-1.0","szemrlvd8k","many_one","0","indirect_first","0","in05nd25","0","19","1","1","3","1","","0","1","0","null","","","<img src = 'category2/GS2.png' width = '100%;'>","null","","","","","","","","","",""
"","html-keyboard-response","189","509920","0.0-10.0-2.0","szemrlvd8k","many_one","0","indirect_first","0","in05nd25","0","19","1","1","3","1","","0","1","0","null","","","<img src = 'targets/38.png' width = '100%;'>","null","","","","","","","","","",""
"","html-keyboard-response","190","510608","0.0-10.0-3.0","szemrlvd8k","many_one","0","indirect_first","0","in05nd25","0","19","1","1","3","1","","0","1","0","687","","","<img src = 'targets/mask.png' width = '100%;'>","75","pos","GS","GSnew","2","category2/GS2.png","targets/38.png","1","indirect","24",""
"","html-keyboard-response","191","512140","0.0-10.0-0.1","szemrlvd8k","many_one","0","indirect_first","0","in05nd25","0","19","1","1","3","1","","0","1","0","null","","","<div style=""font-size:60px;"">+</div>","null","","","","","","","","","",""
"","html-keyboard-response","192","512241","0.0-10.0-1.1","szemrlvd8k","many_one","0","indirect_first","0","in05nd25","0","19","1","1","3","1","","0","1","0","null","","","<img src = 'category3/wang.png' width = '100%;'>","null","","","","","","","","","",""
"","html-keyboard-response","193","512520","0.0-10.0-2.1","szemrlvd8k","many_one","0","indirect_first","0","in05nd25","0","19","1","1","3","1","","0","1","0","null","","","<img src = 'targets/23.png' width = '100%;'>","null","","","","","","","","","",""
"","html-keyboard-response","194","514175","0.0-10.0-3.1","szemrlvd8k","many_one","0","indirect_first","0","in05nd25","0","19","1","1","3","1","","0","1","0","1652","","","<img src = 'targets/mask.png' width = '100%;'>","75","neg","GS","abstract","3","category3/wang.png","targets/23.png","1","indirect","25",""
"","html-keyboard-response","195","515690","0.0-10.0-0.2","szemrlvd8k","many_one","0","indirect_first","0","in05nd25","0","19","1","1","3","1","","0","1","0","null","","","<div style=""font-size:60px;"">+</div>","null","","","","","","","","","",""
"","html-keyboard-response","196","515790","0.0-10.0-1.2","szemrlvd8k","many_one","0","indirect_first","0","in05nd25","0","19","1","1","3","1","","0","1","0","null","","","<img src = 'category2/men.png' width = '100%;'>","null","","","","","","","","","",""
"","html-keyboard-response","197","516070","0.0-10.0-2.2","szemrlvd8k","many_one","0","indirect_first","0","in05nd25","0","19","1","1","3","1","","0","1","0","null","","","<img src = 'targets/26.png' width = '100%;'>","null","","","","","","","","","",""
"","html-keyboard-response","198","516735","0.0-10.0-3.2","szemrlvd8k","many_one","0","indirect_first","0","in05nd25","0","19","1","1","3","1","","0","1","0","662","","","<img src = 'targets/mask.png' width = '100%;'>","68","pos","GS","abstract","2","category2/men.png","targets/26.png","0","indirect","26",""
"","html-keyboard-response","199","518260","0.0-10.0-0.3","szemrlvd8k","many_one","0","indirect_first","0","in05nd25","0","19","1","1","3","1","","0","1","0","null","","","<div style=""font-size:60px;"">+</div>","null","","","","","","","","","",""
"","html-keyboard-response","200","518360","0.0-10.0-1.3","szemrlvd8k","many_one","0","indirect_first","0","in05nd25","0","19","1","1","3","1","","0","1","0","null","","","<img src = 'category3/GS3.png' width = '100%;'>","null","","","","","","","","","",""
"","html-keyboard-response","201","518639","0.0-10.0-2.3","szemrlvd8k","many_one","0","indirect_first","0","in05nd25","0","19","1","1","3","1","","0","1","0","null","","","<img src = 'targets/44.png' width = '100%;'>","null","","","","","","","","","",""
"","html-keyboard-response","202","519104","0.0-10.0-3.3","szemrlvd8k","many_one","0","indirect_first","0","in05nd25","0","19","1","1","3","1","","0","1","0","461","","","<img src = 'targets/mask.png' width = '100%;'>","68","neg","GS","GSnew","3","category3/GS3.png","targets/44.png","0","indirect","27",""
"","html-keyboard-response","203","520640","0.0-10.0-0.4","szemrlvd8k","many_one","0","indirect_first","0","in05nd25","0","19","1","1","3","1","","0","1","0","null","","","<div style=""font-size:60px;"">+</div>","null","","","","","","","","","",""
"","html-keyboard-response","204","520740","0.0-10.0-1.4","szemrlvd8k","many_one","0","indirect_first","0","in05nd25","0","19","1","1","3","1","","0","1","0","null","","","<img src = 'category1/CS3.png' width = '100%;'>","null","","","","","","","","","",""
"","html-keyboard-response","205","521017","0.0-10.0-2.4","szemrlvd8k","many_one","0","indirect_first","0","in05nd25","0","19","1","1","3","1","","0","1","0","null","","","<img src = 'targets/31.png' width = '100%;'>","null","","","","","","","","","",""
"","html-keyboard-response","206","522203","0.0-10.0-3.4","szemrlvd8k","many_one","0","indirect_first","0","in05nd25","0","19","1","1","3","1","","0","1","0","1184","","","<img src = 'targets/mask.png' width = '100%;'>","68","neg","GS","GSold","1","category1/CS3.png","targets/31.png","0","indirect","28",""
"","html-keyboard-response","207","523740","0.0-10.0-0.5","szemrlvd8k","many_one","0","indirect_first","0","in05nd25","0","19","1","1","3","1","","0","1","0","null","","","<div style=""font-size:60px;"">+</div>","null","","","","","","","","","",""
"","html-keyboard-response","208","523840","0.0-10.0-1.5","szemrlvd8k","many_one","0","indirect_first","0","in05nd25","0","19","1","1","3","1","","0","1","0","null","","","<img src = 'category4/GS1.png' width = '100%;'>","null","","","","","","","","","",""
"","html-keyboard-response","209","524119","0.0-10.0-2.5","szemrlvd8k","many_one","0","indirect_first","0","in05nd25","0","19","1","1","3","1","","0","1","0","null","","","<img src = 'targets/37.png' width = '100%;'>","null","","","","","","","","","",""
"","html-keyboard-response","210","524573","0.0-10.0-3.5","szemrlvd8k","many_one","0","indirect_first","0","in05nd25","0","19","1","1","3","1","","0","1","0","452","","","<img src = 'targets/mask.png' width = '100%;'>","75","pos","GS","GSnew","4","category4/GS1.png","targets/37.png","1","indirect","29",""
"","html-keyboard-response","211","526100","0.0-10.0-0.6","szemrlvd8k","many_one","0","indirect_first","0","in05nd25","0","19","1","1","3","1","","0","1","0","null","","","<div style=""font-size:60px;"">+</div>","null","","","","","","","","","",""
"","html-keyboard-response","212","526199","0.0-10.0-1.6","szemrlvd8k","many_one","0","indirect_first","0","in05nd25","0","19","1","1","3","1","","0","1","0","null","","","<img src = 'category1/GS2.png' width = '100%;'>","null","","","","","","","","","",""
"","html-keyboard-response","213","526480","0.0-10.0-2.6","szemrlvd8k","many_one","0","indirect_first","0","in05nd25","0","19","1","1","3","1","","0","1","0","null","","","<img src = 'targets/42.png' width = '100%;'>","null","","","","","","","","","",""
"","html-keyboard-response","214","527058","0.0-10.0-3.6","szemrlvd8k","many_one","0","indirect_first","0","in05nd25","0","19","1","1","3","1","","0","1","0","577","","","<img src = 'targets/mask.png' width = '100%;'>","75","neg","GS","GSnew","1","category1/GS2.png","targets/42.png","1","indirect","30",""
"","html-keyboard-response","215","528580","0.0-10.0-0.7","szemrlvd8k","many_one","0","indirect_first","0","in05nd25","0","19","1","1","3","1","","0","1","0","null","","","<div style=""font-size:60px;"">+</div>","null","","","","","","","","","",""
"","html-keyboard-response","216","528679","0.0-10.0-1.7","szemrlvd8k","many_one","0","indirect_first","0","in05nd25","0","19","1","1","3","1","","0","1","0","null","","","<img src = 'category1/GS3.png' width = '100%;'>","null","","","","","","","","","",""
"","html-keyboard-response","217","528960","0.0-10.0-2.7","szemrlvd8k","many_one","0","indirect_first","0","in05nd25","0","19","1","1","3","1","","0","1","0","null","","","<img src = 'targets/5.png' width = '100%;'>","null","","","","","","","","","",""
"","html-keyboard-response","218","529474","0.0-10.0-3.7","szemrlvd8k","many_one","0","indirect_first","0","in05nd25","0","19","1","1","3","1","","0","1","0","512","","","<img src = 'targets/mask.png' width = '100%;'>","68","neg","GS","GSnew","1","category1/GS3.png","targets/5.png","0","indirect","31",""
"","html-keyboard-response","219","531000","0.0-10.0-0.8","szemrlvd8k","many_one","0","indirect_first","0","in05nd25","0","19","1","1","3","1","","0","1","0","null","","","<div style=""font-size:60px;"">+</div>","null","","","","","","","","","",""
"","html-keyboard-response","220","531100","0.0-10.0-1.8","szemrlvd8k","many_one","0","indirect_first","0","in05nd25","0","19","1","1","3","1","","0","1","0","null","","","<img src = 'category2/GS1.png' width = '100%;'>","null","","","","","","","","","",""
"","html-keyboard-response","221","531379","0.0-10.0-2.8","szemrlvd8k","many_one","0","indirect_first","0","in05nd25","0","19","1","1","3","1","","0","1","0","null","","","<img src = 'targets/6.png' width = '100%;'>","null","","","","","","","","","",""
"","html-keyboard-response","222","532006","0.0-10.0-3.8","szemrlvd8k","many_one","0","indirect_first","0","in05nd25","0","19","1","1","3","1","","0","1","0","625","","","<img src = 'targets/mask.png' width = '100%;'>","75","pos","GS","GSnew","2","category2/GS1.png","targets/6.png","1","indirect","32",""
"","html-keyboard-response","223","533530","0.0-10.0-0.9","szemrlvd8k","many_one","0","indirect_first","0","in05nd25","0","19","1","1","3","1","","0","1","0","null","","","<div style=""font-size:60px;"">+</div>","null","","","","","","","","","",""
"","html-keyboard-response","224","533630","0.0-10.0-1.9","szemrlvd8k","many_one","0","indirect_first","0","in05nd25","0","19","1","1","3","1","","0","1","0","null","","","<img src = 'category2/GS3.png' width = '100%;'>","null","","","","","","","","","",""
"","html-keyboard-response","225","533909","0.0-10.0-2.9","szemrlvd8k","many_one","0","indirect_first","0","in05nd25","0","19","1","1","3","1","","0","1","0","null","","","<img src = 'targets/18.png' width = '100%;'>","null","","","","","","","","","",""
"","html-keyboard-response","226","534446","0.0-10.0-3.9","szemrlvd8k","many_one","0","indirect_first","0","in05nd25","0","19","1","1","3","1","","0","1","0","534","","","<img src = 'targets/mask.png' width = '100%;'>","75","pos","GS","GSnew","2","category2/GS3.png","targets/18.png","1","indirect","33",""
"","html-keyboard-response","227","535970","0.0-10.0-0.10","szemrlvd8k","many_one","0","indirect_first","0","in05nd25","0","19","1","1","3","1","","0","1","0","null","","","<div style=""font-size:60px;"">+</div>","null","","","","","","","","","",""
"","html-keyboard-response","228","536070","0.0-10.0-1.10","szemrlvd8k","many_one","0","indirect_first","0","in05nd25","0","19","1","1","3","1","","0","1","0","null","","","<img src = 'category2/CS2.png' width = '100%;'>","null","","","","","","","","","",""
"","html-keyboard-response","229","536340","0.0-10.0-2.10","szemrlvd8k","many_one","0","indirect_first","0","in05nd25","0","19","1","1","3","1","","0","1","0","null","","","<img src = 'targets/21.png' width = '100%;'>","null","","","","","","","","","",""
"","html-keyboard-response","230","536846","0.0-10.0-3.10","szemrlvd8k","many_one","0","indirect_first","0","in05nd25","0","19","1","1","3","1","","0","1","0","505","","","<img src = 'targets/mask.png' width = '100%;'>","68","pos","GS","GSold","2","category2/CS2.png","targets/21.png","0","indirect","34",""
"","html-keyboard-response","231","538380","0.0-10.0-0.11","szemrlvd8k","many_one","0","indirect_first","0","in05nd25","0","19","1","1","3","1","","0","1","0","null","","","<div style=""font-size:60px;"">+</div>","null","","","","","","","","","",""
"","html-keyboard-response","232","538479","0.0-10.0-1.11","szemrlvd8k","many_one","0","indirect_first","0","in05nd25","0","19","1","1","3","1","","0","1","0","null","","","<img src = 'category1/CS6.png' width = '100%;'>","null","","","","","","","","","",""
"","html-keyboard-response","233","538759","0.0-10.0-2.11","szemrlvd8k","many_one","0","indirect_first","0","in05nd25","0","19","1","1","3","1","","0","1","0","null","","","<img src = 'targets/7.png' width = '100%;'>","null","","","","","","","","","",""
"","html-keyboard-response","234","539435","0.0-10.0-3.11","szemrlvd8k","many_one","0","indirect_first","0","in05nd25","0","19","1","1","3","1","","0","1","0","674","","","<img src = 'targets/mask.png' width = '100%;'>","75","neg","GS","GSold","1","category1/CS6.png","targets/7.png","1","indirect","35",""
"","html-keyboard-response","235","540960","0.0-10.0-0.12","szemrlvd8k","many_one","0","indirect_first","0","in05nd25","0","19","1","1","3","1","","0","1","0","null","","","<div style=""font-size:60px;"">+</div>","null","","","","","","","","","",""
"","html-keyboard-response","236","541059","0.0-10.0-1.12","szemrlvd8k","many_one","0","indirect_first","0","in05nd25","0","19","1","1","3","1","","0","1","0","null","","","<img src = 'category4/GS3.png' width = '100%;'>","null","","","","","","","","","",""
"","html-keyboard-response","237","541340","0.0-10.0-2.12","szemrlvd8k","many_one","0","indirect_first","0","in05nd25","0","19","1","1","3","1","","0","1","0","null","","","<img src = 'targets/15.png' width = '100%;'>","null","","","","","","","","","",""
"","html-keyboard-response","238","542188","0.0-10.0-3.12","szemrlvd8k","many_one","0","indirect_first","0","in05nd25","0","19","1","1","3","1","","0","1","0","846","","","<img src = 'targets/mask.png' width = '100%;'>","75","pos","GS","GSnew","4","category4/GS3.png","targets/15.png","1","indirect","36",""
"","html-keyboard-response","239","543720","0.0-10.0-0.13","szemrlvd8k","many_one","0","indirect_first","0","in05nd25","0","19","1","1","3","1","","0","1","0","null","","","<div style=""font-size:60px;"">+</div>","null","","","","","","","","","",""
"","html-keyboard-response","240","543819","0.0-10.0-1.13","szemrlvd8k","many_one","0","indirect_first","0","in05nd25","0","19","1","1","3","1","","0","1","0","null","","","<img src = 'category2/CS10.png' width = '100%;'>","null","","","","","","","","","",""
"","html-keyboard-response","241","544100","0.0-10.0-2.13","szemrlvd8k","many_one","0","indirect_first","0","in05nd25","0","19","1","1","3","1","","0","1","0","null","","","<img src = 'targets/46.png' width = '100%;'>","null","","","","","","","","","",""
"","html-keyboard-response","242","544848","0.0-10.0-3.13","szemrlvd8k","many_one","0","indirect_first","0","in05nd25","0","19","1","1","3","1","","0","1","0","747","","","<img src = 'targets/mask.png' width = '100%;'>","68","pos","GS","GSold","2","category2/CS10.png","targets/46.png","0","indirect","37",""
"","html-keyboard-response","243","546379","0.0-10.0-0.14","szemrlvd8k","many_one","0","indirect_first","0","in05nd25","0","19","1","1","3","1","","0","1","0","null","","","<div style=""font-size:60px;"">+</div>","null","","","","","","","","","",""
"","html-keyboard-response","244","546480","0.0-10.0-1.14","szemrlvd8k","many_one","0","indirect_first","0","in05nd25","0","19","1","1","3","1","","0","1","0","null","","","<img src = 'category4/GS2.png' width = '100%;'>","null","","","","","","","","","",""
"","html-keyboard-response","245","546759","0.0-10.0-2.14","szemrlvd8k","many_one","0","indirect_first","0","in05nd25","0","19","1","1","3","1","","0","1","0","null","","","<img src = 'targets/19.png' width = '100%;'>","null","","","","","","","","","",""
"","html-keyboard-response","246","547167","0.0-10.0-3.14","szemrlvd8k","many_one","0","indirect_first","0","in05nd25","0","19","1","1","3","1","","0","1","0","405","","","<img src = 'targets/mask.png' width = '100%;'>","75","pos","GS","GSnew","4","category4/GS2.png","targets/19.png","1","indirect","38",""
"","html-keyboard-response","247","548699","0.0-10.0-0.15","szemrlvd8k","many_one","0","indirect_first","0","in05nd25","0","19","1","1","3","1","","0","1","0","null","","","<div style=""font-size:60px;"">+</div>","null","","","","","","","","","",""
"","html-keyboard-response","248","548809","0.0-10.0-1.15","szemrlvd8k","many_one","0","indirect_first","0","in05nd25","0","19","1","1","3","1","","0","1","0","null","","","<img src = 'category4/CS3.png' width = '100%;'>","null","","","","","","","","","",""
"","html-keyboard-response","249","549089","0.0-10.0-2.15","szemrlvd8k","many_one","0","indirect_first","0","in05nd25","0","19","1","1","3","1","","0","1","0","null","","","<img src = 'targets/16.png' width = '100%;'>","null","","","","","","","","","",""
"","html-keyboard-response","250","549448","0.0-10.0-3.15","szemrlvd8k","many_one","0","indirect_first","0","in05nd25","0","19","1","1","3","1","","0","1","0","356","","","<img src = 'targets/mask.png' width = '100%;'>","75","pos","GS","GSold","4","category4/CS3.png","targets/16.png","1","indirect","39",""
"","html-keyboard-response","251","550969","0.0-10.0-0.16","szemrlvd8k","many_one","0","indirect_first","0","in05nd25","0","19","1","1","3","1","","0","1","0","null","","","<div style=""font-size:60px;"">+</div>","null","","","","","","","","","",""
"","html-keyboard-response","252","551070","0.0-10.0-1.16","szemrlvd8k","many_one","0","indirect_first","0","in05nd25","0","19","1","1","3","1","","0","1","0","null","","","<img src = 'category4/CS6.png' width = '100%;'>","null","","","","","","","","","",""
"","html-keyboard-response","253","551349","0.0-10.0-2.16","szemrlvd8k","many_one","0","indirect_first","0","in05nd25","0","19","1","1","3","1","","0","1","0","null","","","<img src = 'targets/45.png' width = '100%;'>","null","","","","","","","","","",""
"","html-keyboard-response","254","551822","0.0-10.0-3.16","szemrlvd8k","many_one","0","indirect_first","0","in05nd25","0","19","1","1","3","1","","0","1","0","470","","","<img src = 'targets/mask.png' width = '100%;'>","75","pos","GS","GSold","4","category4/CS6.png","targets/45.png","1","indirect","40",""
"","html-keyboard-response","255","553350","0.0-10.0-0.17","szemrlvd8k","many_one","0","indirect_first","0","in05nd25","0","19","1","1","3","1","","0","1","0","null","","","<div style=""font-size:60px;"">+</div>","null","","","","","","","","","",""
"","html-keyboard-response","256","553450","0.0-10.0-1.17","szemrlvd8k","many_one","0","indirect_first","0","in05nd25","0","19","1","1","3","1","","0","1","0","null","","","<img src = 'category3/GS1.png' width = '100%;'>","null","","","","","","","","","",""
"","html-keyboard-response","257","553730","0.0-10.0-2.17","szemrlvd8k","many_one","0","indirect_first","0","in05nd25","0","19","1","1","3","1","","0","1","0","null","","","<img src = 'targets/11.png' width = '100%;'>","null","","","","","","","","","",""
"","html-keyboard-response","258","554280","0.0-10.0-3.17","szemrlvd8k","many_one","0","indirect_first","0","in05nd25","0","19","1","1","3","1","","0","1","0","548","","","<img src = 'targets/mask.png' width = '100%;'>","68","neg","GS","GSnew","3","category3/GS1.png","targets/11.png","0","indirect","41",""
"","html-keyboard-response","259","555800","0.0-10.0-0.18","szemrlvd8k","many_one","0","indirect_first","0","in05nd25","0","19","1","1","3","1","","0","1","0","null","","","<div style=""font-size:60px;"">+</div>","null","","","","","","","","","",""
"","html-keyboard-response","260","555900","0.0-10.0-1.18","szemrlvd8k","many_one","0","indirect_first","0","in05nd25","0","19","1","1","3","1","","0","1","0","null","","","<img src = 'category1/GS1.png' width = '100%;'>","null","","","","","","","","","",""
"","html-keyboard-response","261","556180","0.0-10.0-2.18","szemrlvd8k","many_one","0","indirect_first","0","in05nd25","0","19","1","1","3","1","","0","1","0","null","","","<img src = 'targets/4.png' width = '100%;'>","null","","","","","","","","","",""
"","html-keyboard-response","262","556617","0.0-10.0-3.18","szemrlvd8k","many_one","0","indirect_first","0","in05nd25","0","19","1","1","3","1","","0","1","0","434","","","<img src = 'targets/mask.png' width = '100%;'>","75","neg","GS","GSnew","1","category1/GS1.png","targets/4.png","1","indirect","42",""
"","html-keyboard-response","263","558140","0.0-10.0-0.19","szemrlvd8k","many_one","0","indirect_first","0","in05nd25","0","19","1","1","3","1","","0","1","0","null","","","<div style=""font-size:60px;"">+</div>","null","","","","","","","","","",""
"","html-keyboard-response","264","558239","0.0-10.0-1.19","szemrlvd8k","many_one","0","indirect_first","0","in05nd25","0","19","1","1","3","1","","0","1","0","null","","","<img src = 'category4/lin.png' width = '100%;'>","null","","","","","","","","","",""
"","html-keyboard-response","265","558519","0.0-10.0-2.19","szemrlvd8k","many_one","0","indirect_first","0","in05nd25","0","19","1","1","3","1","","0","1","0","null","","","<img src = 'targets/14.png' width = '100%;'>","null","","","","","","","","","",""
"","html-keyboard-response","266","559367","0.0-10.0-3.19","szemrlvd8k","many_one","0","indirect_first","0","in05nd25","0","19","1","1","3","1","","0","1","0","846","","","<img src = 'targets/mask.png' width = '100%;'>","75","pos","GS","abstract","4","category4/lin.png","targets/14.png","1","indirect","43",""
"","html-keyboard-response","267","560900","0.0-10.0-0.20","szemrlvd8k","many_one","0","indirect_first","0","in05nd25","0","19","1","1","3","1","","0","1","0","null","","","<div style=""font-size:60px;"">+</div>","null","","","","","","","","","",""
"","html-keyboard-response","268","561000","0.0-10.0-1.20","szemrlvd8k","many_one","0","indirect_first","0","in05nd25","0","19","1","1","3","1","","0","1","0","null","","","<img src = 'category3/GS2.png' width = '100%;'>","null","","","","","","","","","",""
"","html-keyboard-response","269","561279","0.0-10.0-2.20","szemrlvd8k","many_one","0","indirect_first","0","in05nd25","0","19","1","1","3","1","","0","1","0","null","","","<img src = 'targets/43.png' width = '100%;'>","null","","","","","","","","","",""
"","html-keyboard-response","270","561783","0.0-10.0-3.20","szemrlvd8k","many_one","0","indirect_first","0","in05nd25","0","19","1","1","3","1","","0","1","0","502","","","<img src = 'targets/mask.png' width = '100%;'>","68","neg","GS","GSnew","3","category3/GS2.png","targets/43.png","0","indirect","44",""
"","html-keyboard-response","271","563320","0.0-10.0-0.21","szemrlvd8k","many_one","0","indirect_first","0","in05nd25","0","19","1","1","3","1","","0","1","0","null","","","<div style=""font-size:60px;"">+</div>","null","","","","","","","","","",""
"","html-keyboard-response","272","563420","0.0-10.0-1.21","szemrlvd8k","many_one","0","indirect_first","0","in05nd25","0","19","1","1","3","1","","0","1","0","null","","","<img src = 'category1/ma.png' width = '100%;'>","null","","","","","","","","","",""
"","html-keyboard-response","273","563699","0.0-10.0-2.21","szemrlvd8k","many_one","0","indirect_first","0","in05nd25","0","19","1","1","3","1","","0","1","0","null","","","<img src = 'targets/47.png' width = '100%;'>","null","","","","","","","","","",""
"","html-keyboard-response","274","564648","0.0-10.0-3.21","szemrlvd8k","many_one","0","indirect_first","0","in05nd25","0","19","1","1","3","1","","0","1","0","946","","","<img src = 'targets/mask.png' width = '100%;'>","75","neg","GS","abstract","1","category1/ma.png","targets/47.png","1","indirect","45",""
"","html-keyboard-response","275","566179","0.0-10.0-0.22","szemrlvd8k","many_one","0","indirect_first","0","in05nd25","0","19","1","1","3","1","","0","1","0","null","","","<div style=""font-size:60px;"">+</div>","null","","","","","","","","","",""
"","html-keyboard-response","276","566279","0.0-10.0-1.22","szemrlvd8k","many_one","0","indirect_first","0","in05nd25","0","19","1","1","3","1","","0","1","0","null","","","<img src = 'category1/CS1.png' width = '100%;'>","null","","","","","","","","","",""
"","html-keyboard-response","277","566559","0.0-10.0-2.22","szemrlvd8k","many_one","0","indirect_first","0","in05nd25","0","19","1","1","3","1","","0","1","0","null","","","<img src = 'targets/48.png' width = '100%;'>","null","","","","","","","","","",""
"","html-keyboard-response","278","567278","0.0-10.0-3.22","szemrlvd8k","many_one","0","indirect_first","0","in05nd25","0","19","1","1","3","1","","0","1","0","717","","","<img src = 'targets/mask.png' width = '100%;'>","68","neg","GS","GSold","1","category1/CS1.png","targets/48.png","0","indirect","46",""
"","html-keyboard-response","279","568809","0.0-10.0-0.23","szemrlvd8k","many_one","0","indirect_first","0","in05nd25","0","19","1","1","3","1","","0","1","0","null","","","<div style=""font-size:60px;"">+</div>","null","","","","","","","","","",""
"","html-keyboard-response","280","568909","0.0-10.0-1.23","szemrlvd8k","many_one","0","indirect_first","0","in05nd25","0","19","1","1","3","1","","0","1","0","null","","","<img src = 'category4/CS2.png' width = '100%;'>","null","","","","","","","","","",""
"","html-keyboard-response","281","569189","0.0-10.0-2.23","szemrlvd8k","many_one","0","indirect_first","0","in05nd25","0","19","1","1","3","1","","0","1","0","null","","","<img src = 'targets/10.png' width = '100%;'>","null","","","","","","","","","",""
"","html-keyboard-response","282","569643","0.0-10.0-3.23","szemrlvd8k","many_one","0","indirect_first","0","in05nd25","0","19","1","1","3","1","","0","1","0","452","","","<img src = 'targets/mask.png' width = '100%;'>","75","pos","GS","GSold","4","category4/CS2.png","targets/10.png","1","indirect","47",""
"","survey-html-form","283","579177","0.0-11.0","szemrlvd8k","many_one","0","indirect_first","0","in05nd25","0","19","1","1","3","1","","0","1","0","9026","","{}","","","","","","","","","","","",""
"","image-slider-response","284","589437","0.0-12.0-0.0","szemrlvd8k","many_one","0","indirect_first","0","in05nd25","0","19","1","1","3","1","","0","1","0","8234","","","","","pos","GS","GSold","4","category4/CS3.png","targets/16.png","","direct","","27"
"","image-slider-response","285","593357","0.0-12.0-0.1","szemrlvd8k","many_one","0","indirect_first","0","in05nd25","0","19","1","1","3","1","","0","1","0","3917","","","","","pos","CS","CS","2","category2/CS7.png","targets/25.png","","direct","","-31"
"","image-slider-response","286","595667","0.0-12.0-0.2","szemrlvd8k","many_one","0","indirect_first","0","in05nd25","0","19","1","1","3","1","","0","1","0","2307","","","","","neg","GS","GSnew","3","category3/GS3.png","targets/44.png","","direct","","-36"
"","image-slider-response","287","598746","0.0-12.0-0.3","szemrlvd8k","many_one","0","indirect_first","0","in05nd25","0","19","1","1","3","1","","0","1","0","3078","","","","","pos","GS","GSnew","4","category4/GS1.png","targets/37.png","","direct","","54"
"","image-slider-response","288","601307","0.0-12.0-0.4","szemrlvd8k","many_one","0","indirect_first","0","in05nd25","0","19","1","1","3","1","","0","1","0","2558","","","","","neg","GS","GSnew","1","category1/GS2.png","targets/42.png","","direct","","-27"
"","image-slider-response","289","604217","0.0-12.0-0.5","szemrlvd8k","many_one","0","indirect_first","0","in05nd25","0","19","1","1","3","1","","0","1","0","2906","","","","","neg","CS","CS","3","category3/CS1.png","targets/39.png","","direct","","-56"
"","image-slider-response","290","608101","0.0-12.0-0.6","szemrlvd8k","many_one","0","indirect_first","0","in05nd25","0","19","1","1","3","1","","0","1","0","3881","","","","","neg","CS","CS","1","category1/CS4.png","targets/29.png","","direct","","24"
"","image-slider-response","291","610937","0.0-12.0-0.7","szemrlvd8k","many_one","0","indirect_first","0","in05nd25","0","19","1","1","3","1","","0","1","0","2835","","","","","neg","CS","CS","3","category3/CS3.png","targets/32.png","","direct","","-60"
"","image-slider-response","292","613054","0.0-12.0-0.8","szemrlvd8k","many_one","0","indirect_first","0","in05nd25","0","19","1","1","3","1","","0","1","0","2115","","","","","pos","GS","GSnew","4","category4/GS3.png","targets/15.png","","direct","","18"
"","image-slider-response","293","615978","0.0-12.0-0.9","szemrlvd8k","many_one","0","indirect_first","0","in05nd25","0","19","1","1","3","1","","0","1","0","2921","","","","","pos","GS","abstract","2","category2/men.png","targets/26.png","","direct","","54"
"","image-slider-response","294","618436","0.0-12.0-0.10","szemrlvd8k","many_one","0","indirect_first","0","in05nd25","0","19","1","1","3","1","","0","1","0","2454","","","","","neg","GS","GSold","1","category1/CS6.png","targets/7.png","","direct","","14"
"","image-slider-response","295","620660","0.0-12.0-0.11","szemrlvd8k","many_one","0","indirect_first","0","in05nd25","0","19","1","1","3","1","","0","1","0","2222","","","","","pos","GS","abstract","4","category4/lin.png","targets/14.png","","direct","","5"
"","image-slider-response","296","623703","0.0-12.0-0.12","szemrlvd8k","many_one","0","indirect_first","0","in05nd25","0","19","1","1","3","1","","0","1","0","3039","","","","","neg","GS","GSnew","3","category3/GS2.png","targets/43.png","","direct","","-83"
"","image-slider-response","297","627914","0.0-12.0-0.13","szemrlvd8k","many_one","0","indirect_first","0","in05nd25","0","19","1","1","3","1","","0","1","0","4209","","","","","pos","GS","GSold","2","category2/CS1.png","targets/33.png","","direct","","7"
"","image-slider-response","298","630330","0.0-12.0-0.14","szemrlvd8k","many_one","0","indirect_first","0","in05nd25","0","19","1","1","3","1","","0","1","0","2413","","","","","neg","GS","GSold","1","category1/CS3.png","targets/31.png","","direct","","-16"
"","image-slider-response","299","632397","0.0-12.0-0.15","szemrlvd8k","many_one","0","indirect_first","0","in05nd25","0","19","1","1","3","1","","0","1","0","2066","","","","","neg","CS","CS","1","category1/CS2.png","targets/8.png","","direct","","-12"
"","image-slider-response","300","635494","0.0-12.0-0.16","szemrlvd8k","many_one","0","indirect_first","0","in05nd25","0","19","1","1","3","1","","0","1","0","3094","","","","","neg","GS","GSold","3","category3/CS7.png","targets/9.png","","direct","","-60"
"","image-slider-response","301","638436","0.0-12.0-0.17","szemrlvd8k","many_one","0","indirect_first","0","in05nd25","0","19","1","1","3","1","","0","1","0","2939","","","","","neg","CS","CS","3","category3/CS9.png","targets/28.png","","direct","","-89"
"","image-slider-response","302","641210","0.0-12.0-0.18","szemrlvd8k","many_one","0","indirect_first","0","in05nd25","0","19","1","1","3","1","","0","1","0","2771","","","","","pos","CS","CS","2","category2/CS9.png","targets/40.png","","direct","","7"
"","image-slider-response","303","643626","0.0-12.0-0.19","szemrlvd8k","many_one","0","indirect_first","0","in05nd25","0","19","1","1","3","1","","0","1","0","2413","","","","","pos","GS","GSnew","2","category2/GS3.png","targets/18.png","","direct","","31"
"","image-slider-response","304","646980","0.0-12.0-0.20","szemrlvd8k","many_one","0","indirect_first","0","in05nd25","0","19","1","1","3","1","","0","1","0","3350","","","","","pos","CS","CS","4","category4/CS9.png","targets/34.png","","direct","","73"
"","image-slider-response","305","649856","0.0-12.0-0.21","szemrlvd8k","many_one","0","indirect_first","0","in05nd25","0","19","1","1","3","1","","0","1","0","2873","","","","","neg","CS","CS","3","category3/CS2.png","targets/35.png","","direct","","-60"
"","image-slider-response","306","652484","0.0-12.0-0.22","szemrlvd8k","many_one","0","indirect_first","0","in05nd25","0","19","1","1","3","1","","0","1","0","2626","","","","","neg","GS","abstract","3","category3/wang.png","targets/23.png","","direct","","-88"
"","image-slider-response","307","654576","0.0-12.0-0.23","szemrlvd8k","many_one","0","indirect_first","0","in05nd25","0","19","1","1","3","1","","0","1","0","2089","","","","","neg","GS","GSnew","1","category1/GS1.png","targets/4.png","","direct","","-11"
"","image-slider-response","308","656976","0.0-12.0-0.24","szemrlvd8k","many_one","0","indirect_first","0","in05nd25","0","19","1","1","3","1","","0","1","0","2397","","","","","neg","CS","CS","3","category3/CS8.png","targets/3.png","","direct","","-76"
"","image-slider-response","309","659392","0.0-12.0-0.25","szemrlvd8k","many_one","0","indirect_first","0","in05nd25","0","19","1","1","3","1","","0","1","0","2413","","","","","pos","GS","GSnew","2","category2/GS2.png","targets/38.png","","direct","","28"
"","image-slider-response","310","662214","0.0-12.0-0.26","szemrlvd8k","many_one","0","indirect_first","0","in05nd25","0","19","1","1","3","1","","0","1","0","2820","","","","","pos","GS","GSnew","4","category4/GS2.png","targets/19.png","","direct","","42"
"","image-slider-response","311","664678","0.0-12.0-0.27","szemrlvd8k","many_one","0","indirect_first","0","in05nd25","0","19","1","1","3","1","","0","1","0","2461","","","","","neg","GS","GSold","1","category1/CS1.png","targets/48.png","","direct","","-18"
"","image-slider-response","312","666498","0.0-12.0-0.28","szemrlvd8k","many_one","0","indirect_first","0","in05nd25","0","19","1","1","3","1","","0","1","0","1817","","","","","neg","CS","CS","1","category1/CS9.png","targets/12.png","","direct","","-29"
"","image-slider-response","313","669729","0.0-12.0-0.29","szemrlvd8k","many_one","0","indirect_first","0","in05nd25","0","19","1","1","3","1","","0","1","0","3229","","","","","pos","GS","GSold","2","category2/CS10.png","targets/46.png","","direct","","30"
"","image-slider-response","314","672194","0.0-12.0-0.30","szemrlvd8k","many_one","0","indirect_first","0","in05nd25","0","19","1","1","3","1","","0","1","0","2462","","","","","neg","CS","CS","1","category1/CS7.png","targets/1.png","","direct","","30"
"","image-slider-response","315","674376","0.0-12.0-0.31","szemrlvd8k","many_one","0","indirect_first","0","in05nd25","0","19","1","1","3","1","","0","1","0","2179","","","","","pos","GS","GSold","4","category4/CS2.png","targets/10.png","","direct","","70"
"","image-slider-response","316","676438","0.0-12.0-0.32","szemrlvd8k","many_one","0","indirect_first","0","in05nd25","0","19","1","1","3","1","","0","1","0","2059","","","","","pos","CS","CS","2","category2/CS8.png","targets/20.png","","direct","","-43"
"","image-slider-response","317","680849","0.0-12.0-0.33","szemrlvd8k","many_one","0","indirect_first","0","in05nd25","0","19","1","1","3","1","","0","1","0","4409","","","","","neg","GS","GSold","3","category3/CS4.png","targets/24.png","","direct","","-56"
"","image-slider-response","318","685155","0.0-12.0-0.34","szemrlvd8k","many_one","0","indirect_first","0","in05nd25","0","19","1","1","3","1","","0","1","0","4303","","","","","pos","CS","CS","4","category4/CS8.png","targets/13.png","","direct","","87"
"","image-slider-response","319","688436","0.0-12.0-0.35","szemrlvd8k","many_one","0","indirect_first","0","in05nd25","0","19","1","1","3","1","","0","1","0","3277","","","","","pos","CS","CS","4","category4/CS4.png","targets/17.png","","direct","","76"
"","image-slider-response","320","692783","0.0-12.0-0.36","szemrlvd8k","many_one","0","indirect_first","0","in05nd25","0","19","1","1","3","1","","0","1","0","4346","","","","","pos","CS","CS","2","category2/CS4.png","targets/36.png","","direct","","17"
"","image-slider-response","321","695329","0.0-12.0-0.37","szemrlvd8k","many_one","0","indirect_first","0","in05nd25","0","19","1","1","3","1","","0","1","0","2543","","","","","neg","CS","CS","1","category1/CS10.png","targets/30.png","","direct","","-72"
"","image-slider-response","322","697955","0.0-12.0-0.38","szemrlvd8k","many_one","0","indirect_first","0","in05nd25","0","19","1","1","3","1","","0","1","0","2623","","","","","pos","GS","GSold","4","category4/CS6.png","targets/45.png","","direct","","89"
"","image-slider-response","323","700105","0.0-12.0-0.39","szemrlvd8k","many_one","0","indirect_first","0","in05nd25","0","19","1","1","3","1","","0","1","0","2148","","","","","neg","GS","GSold","3","category3/CS6.png","targets/2.png","","direct","","-82"
"","image-slider-response","324","702949","0.0-12.0-0.40","szemrlvd8k","many_one","0","indirect_first","0","in05nd25","0","19","1","1","3","1","","0","1","0","2842","","","","","pos","GS","GSold","2","category2/CS2.png","targets/21.png","","direct","","38"
"","image-slider-response","325","705275","0.0-12.0-0.41","szemrlvd8k","many_one","0","indirect_first","0","in05nd25","0","19","1","1","3","1","","0","1","0","2323","","","","","pos","CS","CS","2","category2/CS6.png","targets/41.png","","direct","","17"
"","image-slider-response","326","707417","0.0-12.0-0.42","szemrlvd8k","many_one","0","indirect_first","0","in05nd25","0","19","1","1","3","1","","0","1","0","2140","","","","","pos","GS","GSnew","2","category2/GS1.png","targets/6.png","","direct","","27"
"","image-slider-response","327","709277","0.0-12.0-0.43","szemrlvd8k","many_one","0","indirect_first","0","in05nd25","0","19","1","1","3","1","","0","1","0","1857","","","","","neg","GS","GSnew","1","category1/GS3.png","targets/5.png","","direct","","34"
"","image-slider-response","328","711071","0.0-12.0-0.44","szemrlvd8k","many_one","0","indirect_first","0","in05nd25","0","19","1","1","3","1","","0","1","0","1791","","","","","neg","GS","abstract","1","category1/ma.png","targets/47.png","","direct","","-42"
"","image-slider-response","329","712921","0.0-12.0-0.45","szemrlvd8k","many_one","0","indirect_first","0","in05nd25","0","19","1","1","3","1","","0","1","0","1847","","","","","neg","GS","GSnew","3","category3/GS1.png","targets/11.png","","direct","","-46"
"","image-slider-response","330","715401","0.0-12.0-0.46","szemrlvd8k","many_one","0","indirect_first","0","in05nd25","0","19","1","1","3","1","","0","1","0","2477","","","","","pos","CS","CS","4","category4/CS7.png","targets/27.png","","direct","","63"
