"success","trial_type","trial_index","time_elapsed","internal_node_id","subject","condition","condition_code","measure","measure_code","codeword","gender","age","education","chinese","fach","handedness","comment","hinschauen","ablenkung","gewissenhaft","rt","url","responses","stimulus","key_press","val","type","type_specific","category","cs_selected","target","indirect","task","nr_pres","response"
"true","fullscreen","0","8210","0.0-0.0","lqup64oma9","one_one","1","indirect_first","0","el07ph27","0","20","1","1","3","1","","0","1","0","","","","","","","","","","","","","","",""
"","external-html","1","76231","0.0-1.0","lqup64oma9","one_one","1","indirect_first","0","el07ph27","0","20","1","1","3","1","","0","1","0","67729","text/information.html","","","","","","","","","","","","",""
"","external-html","2","91591","0.0-2.0","lqup64oma9","one_one","1","indirect_first","0","el07ph27","0","20","1","1","3","1","","0","1","0","15237","text/consent.html","","","","","","","","","","","","",""
"","survey-html-form","3","150972","0.0-3.0","lqup64oma9","one_one","1","indirect_first","0","el07ph27","0","20","1","1","3","1","","0","1","0","59379","","{""codeword_enter"":""el07ph27""}","","","","","","","","","","","",""
"","survey-html-form","4","173590","0.0-4.0","lqup64oma9","one_one","1","indirect_first","0","el07ph27","0","20","1","1","3","1","","0","1","0","22617","","{""age"":""20"",""education"":""1"",""subject"":""3"",""gender"":""0"",""handedness"":""1"",""chinese"":""1""}","","","","","","","","","","","",""
"","survey-html-form","5","188541","0.0-5.0","lqup64oma9","one_one","1","indirect_first","0","el07ph27","0","20","1","1","3","1","","0","1","0","14950","","{}","","","","","","","","","","","",""
"","html-keyboard-response","6","192552","0.0-6.0-0.0-0.0","lqup64oma9","one_one","1","indirect_first","0","el07ph27","0","20","1","1","3","1","","0","1","0","null","","","<div class = 'row'><div class = 'column'><img src = 'uspos/7325.bmp' width = '100%;'></div><div class = 'column'><img src = 'category3/CS1.png' width = '70%;'></div></div>","null","pos","CS","CS","3","category3/CS1.png","","","","",""
"","html-keyboard-response","7","195056","0.0-6.0-0.0-0.1","lqup64oma9","one_one","1","indirect_first","0","el07ph27","0","20","1","1","3","1","","0","1","0","null","","","<div class = 'row'><div class = 'column'><img src = 'uspos/2340.bmp' width = '100%;'></div><div class = 'column'><img src = 'category4/CS10.png' width = '70%;'></div></div>","null","pos","CS","CS","4","category4/CS10.png","","","","",""
"","html-keyboard-response","8","197561","0.0-6.0-0.0-0.2","lqup64oma9","one_one","1","indirect_first","0","el07ph27","0","20","1","1","3","1","","0","1","0","null","","","<div class = 'row'><div class = 'column'><img src = 'usneg/9182.bmp' width = '100%;'></div><div class = 'column'><img src = 'category1/CS1.png' width = '70%;'></div></div>","null","neg","CS","CS","1","category1/CS1.png","","","","",""
"","html-keyboard-response","9","200072","0.0-6.0-0.0-0.3","lqup64oma9","one_one","1","indirect_first","0","el07ph27","0","20","1","1","3","1","","0","1","0","null","","","<div class = 'row'><div class = 'column'><img src = 'category3/CS1.png' width = '70%;'></div><div class = 'column'><img src = 'uspos/7325.bmp' width = '100%;'></div></div>","null","pos","CS","CS","3","category3/CS1.png","","","","",""
"","html-keyboard-response","10","202583","0.0-6.0-0.0-0.4","lqup64oma9","one_one","1","indirect_first","0","el07ph27","0","20","1","1","3","1","","0","1","0","null","","","<div class = 'row'><div class = 'column'><img src = 'usneg/7380.bmp' width = '100%;'></div><div class = 'column'><img src = 'category2/CS6.png' width = '70%;'></div></div>","null","neg","CS","CS","2","category2/CS6.png","","","","",""
"","html-keyboard-response","11","205091","0.0-6.0-0.0-0.5","lqup64oma9","one_one","1","indirect_first","0","el07ph27","0","20","1","1","3","1","","0","1","0","null","","","<div class = 'row'><div class = 'column'><img src = 'category4/CS10.png' width = '70%;'></div><div class = 'column'><img src = 'uspos/2340.bmp' width = '100%;'></div></div>","null","pos","CS","CS","4","category4/CS10.png","","","","",""
"","html-keyboard-response","12","207598","0.0-6.0-0.0-0.6","lqup64oma9","one_one","1","indirect_first","0","el07ph27","0","20","1","1","3","1","","0","1","0","null","","","<div class = 'row'><div class = 'column'><img src = 'category1/CS1.png' width = '70%;'></div><div class = 'column'><img src = 'usneg/9182.bmp' width = '100%;'></div></div>","null","neg","CS","CS","1","category1/CS1.png","","","","",""
"","html-keyboard-response","13","210103","0.0-6.0-0.0-0.7","lqup64oma9","one_one","1","indirect_first","0","el07ph27","0","20","1","1","3","1","","0","1","0","null","","","<div class = 'row'><div class = 'column'><img src = 'category2/CS6.png' width = '70%;'></div><div class = 'column'><img src = 'usneg/7380.bmp' width = '100%;'></div></div>","null","neg","CS","CS","2","category2/CS6.png","","","","",""
"","html-keyboard-response","14","212611","0.0-6.0-0.0-0.8","lqup64oma9","one_one","1","indirect_first","0","el07ph27","0","20","1","1","3","1","","0","1","0","null","","","<div class = 'row'><div class = 'column'><img src = 'category4/CS10.png' width = '70%;'></div><div class = 'column'><img src = 'uspos/2340.bmp' width = '100%;'></div></div>","null","pos","CS","CS","4","category4/CS10.png","","","","",""
"","html-keyboard-response","15","215118","0.0-6.0-0.0-0.9","lqup64oma9","one_one","1","indirect_first","0","el07ph27","0","20","1","1","3","1","","0","1","0","null","","","<div class = 'row'><div class = 'column'><img src = 'category1/CS1.png' width = '70%;'></div><div class = 'column'><img src = 'usneg/9182.bmp' width = '100%;'></div></div>","null","neg","CS","CS","1","category1/CS1.png","","","","",""
"","html-keyboard-response","16","217623","0.0-6.0-0.0-0.10","lqup64oma9","one_one","1","indirect_first","0","el07ph27","0","20","1","1","3","1","","0","1","0","null","","","<div class = 'row'><div class = 'column'><img src = 'category2/CS6.png' width = '70%;'></div><div class = 'column'><img src = 'usneg/7380.bmp' width = '100%;'></div></div>","null","neg","CS","CS","2","category2/CS6.png","","","","",""
"","html-keyboard-response","17","220131","0.0-6.0-0.0-0.11","lqup64oma9","one_one","1","indirect_first","0","el07ph27","0","20","1","1","3","1","","0","1","0","null","","","<div class = 'row'><div class = 'column'><img src = 'category1/CS1.png' width = '70%;'></div><div class = 'column'><img src = 'usneg/9182.bmp' width = '100%;'></div></div>","null","neg","CS","CS","1","category1/CS1.png","","","","",""
"","html-keyboard-response","18","222639","0.0-6.0-0.0-0.12","lqup64oma9","one_one","1","indirect_first","0","el07ph27","0","20","1","1","3","1","","0","1","0","null","","","<div class = 'row'><div class = 'column'><img src = 'uspos/2340.bmp' width = '100%;'></div><div class = 'column'><img src = 'category4/CS10.png' width = '70%;'></div></div>","null","pos","CS","CS","4","category4/CS10.png","","","","",""
"","html-keyboard-response","19","225144","0.0-6.0-0.0-0.13","lqup64oma9","one_one","1","indirect_first","0","el07ph27","0","20","1","1","3","1","","0","1","0","null","","","<div class = 'row'><div class = 'column'><img src = 'uspos/7325.bmp' width = '100%;'></div><div class = 'column'><img src = 'category3/CS1.png' width = '70%;'></div></div>","null","pos","CS","CS","3","category3/CS1.png","","","","",""
"","html-keyboard-response","20","227648","0.0-6.0-0.0-0.14","lqup64oma9","one_one","1","indirect_first","0","el07ph27","0","20","1","1","3","1","","0","1","0","null","","","<div class = 'row'><div class = 'column'><img src = 'uspos/2340.bmp' width = '100%;'></div><div class = 'column'><img src = 'category4/CS10.png' width = '70%;'></div></div>","null","pos","CS","CS","4","category4/CS10.png","","","","",""
"","html-keyboard-response","21","230157","0.0-6.0-0.0-0.15","lqup64oma9","one_one","1","indirect_first","0","el07ph27","0","20","1","1","3","1","","0","1","0","null","","","<div class = 'row'><div class = 'column'><img src = 'uspos/7325.bmp' width = '100%;'></div><div class = 'column'><img src = 'category3/CS1.png' width = '70%;'></div></div>","null","pos","CS","CS","3","category3/CS1.png","","","","",""
"","html-keyboard-response","22","232662","0.0-6.0-0.0-0.16","lqup64oma9","one_one","1","indirect_first","0","el07ph27","0","20","1","1","3","1","","0","1","0","null","","","<div class = 'row'><div class = 'column'><img src = 'category2/CS6.png' width = '70%;'></div><div class = 'column'><img src = 'usneg/7380.bmp' width = '100%;'></div></div>","null","neg","CS","CS","2","category2/CS6.png","","","","",""
"","html-keyboard-response","23","235169","0.0-6.0-0.0-0.17","lqup64oma9","one_one","1","indirect_first","0","el07ph27","0","20","1","1","3","1","","0","1","0","null","","","<div class = 'row'><div class = 'column'><img src = 'usneg/9182.bmp' width = '100%;'></div><div class = 'column'><img src = 'category1/CS1.png' width = '70%;'></div></div>","null","neg","CS","CS","1","category1/CS1.png","","","","",""
"","html-keyboard-response","24","237677","0.0-6.0-0.0-0.18","lqup64oma9","one_one","1","indirect_first","0","el07ph27","0","20","1","1","3","1","","0","1","0","null","","","<div class = 'row'><div class = 'column'><img src = 'category2/CS6.png' width = '70%;'></div><div class = 'column'><img src = 'usneg/7380.bmp' width = '100%;'></div></div>","null","neg","CS","CS","2","category2/CS6.png","","","","",""
"","html-keyboard-response","25","240185","0.0-6.0-0.0-0.19","lqup64oma9","one_one","1","indirect_first","0","el07ph27","0","20","1","1","3","1","","0","1","0","null","","","<div class = 'row'><div class = 'column'><img src = 'uspos/7325.bmp' width = '100%;'></div><div class = 'column'><img src = 'category3/CS1.png' width = '70%;'></div></div>","null","pos","CS","CS","3","category3/CS1.png","","","","",""
"","survey-html-form","26","249563","0.0-6.0-1.0","lqup64oma9","one_one","1","indirect_first","0","el07ph27","0","20","1","1","3","1","","0","1","0","8874","","{}","","","","","","","","","","","",""
"","html-keyboard-response","27","253571","0.0-6.0-2.0-0.0","lqup64oma9","one_one","1","indirect_first","0","el07ph27","0","20","1","1","3","1","","0","1","0","null","","","<div class = 'row'><div class = 'column'><img src = 'usneg/7380.bmp' width = '100%;'></div><div class = 'column'><img src = 'category2/CS6.png' width = '70%;'></div></div>","null","neg","CS","CS","2","category2/CS6.png","","","","",""
"","html-keyboard-response","28","256079","0.0-6.0-2.0-0.1","lqup64oma9","one_one","1","indirect_first","0","el07ph27","0","20","1","1","3","1","","0","1","0","null","","","<div class = 'row'><div class = 'column'><img src = 'category1/CS1.png' width = '70%;'></div><div class = 'column'><img src = 'usneg/9182.bmp' width = '100%;'></div></div>","null","neg","CS","CS","1","category1/CS1.png","","","","",""
"","html-keyboard-response","29","258584","0.0-6.0-2.0-0.2","lqup64oma9","one_one","1","indirect_first","0","el07ph27","0","20","1","1","3","1","","0","1","0","null","","","<div class = 'row'><div class = 'column'><img src = 'uspos/7325.bmp' width = '100%;'></div><div class = 'column'><img src = 'category3/CS1.png' width = '70%;'></div></div>","null","pos","CS","CS","3","category3/CS1.png","","","","",""
"","html-keyboard-response","30","261090","0.0-6.0-2.0-0.3","lqup64oma9","one_one","1","indirect_first","0","el07ph27","0","20","1","1","3","1","","0","1","0","null","","","<div class = 'row'><div class = 'column'><img src = 'usneg/7380.bmp' width = '100%;'></div><div class = 'column'><img src = 'category2/CS6.png' width = '70%;'></div></div>","null","neg","CS","CS","2","category2/CS6.png","","","","",""
"","html-keyboard-response","31","263596","0.0-6.0-2.0-0.4","lqup64oma9","one_one","1","indirect_first","0","el07ph27","0","20","1","1","3","1","","0","1","0","null","","","<div class = 'row'><div class = 'column'><img src = 'uspos/2340.bmp' width = '100%;'></div><div class = 'column'><img src = 'category4/CS10.png' width = '70%;'></div></div>","null","pos","CS","CS","4","category4/CS10.png","","","","",""
"","html-keyboard-response","32","266107","0.0-6.0-2.0-0.5","lqup64oma9","one_one","1","indirect_first","0","el07ph27","0","20","1","1","3","1","","0","1","0","null","","","<div class = 'row'><div class = 'column'><img src = 'usneg/9182.bmp' width = '100%;'></div><div class = 'column'><img src = 'category1/CS1.png' width = '70%;'></div></div>","null","neg","CS","CS","1","category1/CS1.png","","","","",""
"","html-keyboard-response","33","268615","0.0-6.0-2.0-0.6","lqup64oma9","one_one","1","indirect_first","0","el07ph27","0","20","1","1","3","1","","0","1","0","null","","","<div class = 'row'><div class = 'column'><img src = 'category3/CS1.png' width = '70%;'></div><div class = 'column'><img src = 'uspos/7325.bmp' width = '100%;'></div></div>","null","pos","CS","CS","3","category3/CS1.png","","","","",""
"","html-keyboard-response","34","271119","0.0-6.0-2.0-0.7","lqup64oma9","one_one","1","indirect_first","0","el07ph27","0","20","1","1","3","1","","0","1","0","null","","","<div class = 'row'><div class = 'column'><img src = 'usneg/9182.bmp' width = '100%;'></div><div class = 'column'><img src = 'category1/CS1.png' width = '70%;'></div></div>","null","neg","CS","CS","1","category1/CS1.png","","","","",""
"","html-keyboard-response","35","273624","0.0-6.0-2.0-0.8","lqup64oma9","one_one","1","indirect_first","0","el07ph27","0","20","1","1","3","1","","0","1","0","null","","","<div class = 'row'><div class = 'column'><img src = 'category4/CS10.png' width = '70%;'></div><div class = 'column'><img src = 'uspos/2340.bmp' width = '100%;'></div></div>","null","pos","CS","CS","4","category4/CS10.png","","","","",""
"","html-keyboard-response","36","276129","0.0-6.0-2.0-0.9","lqup64oma9","one_one","1","indirect_first","0","el07ph27","0","20","1","1","3","1","","0","1","0","null","","","<div class = 'row'><div class = 'column'><img src = 'category1/CS1.png' width = '70%;'></div><div class = 'column'><img src = 'usneg/9182.bmp' width = '100%;'></div></div>","null","neg","CS","CS","1","category1/CS1.png","","","","",""
"","html-keyboard-response","37","278634","0.0-6.0-2.0-0.10","lqup64oma9","one_one","1","indirect_first","0","el07ph27","0","20","1","1","3","1","","0","1","0","null","","","<div class = 'row'><div class = 'column'><img src = 'category2/CS6.png' width = '70%;'></div><div class = 'column'><img src = 'usneg/7380.bmp' width = '100%;'></div></div>","null","neg","CS","CS","2","category2/CS6.png","","","","",""
"","html-keyboard-response","38","281142","0.0-6.0-2.0-0.11","lqup64oma9","one_one","1","indirect_first","0","el07ph27","0","20","1","1","3","1","","0","1","0","null","","","<div class = 'row'><div class = 'column'><img src = 'category3/CS1.png' width = '70%;'></div><div class = 'column'><img src = 'uspos/7325.bmp' width = '100%;'></div></div>","null","pos","CS","CS","3","category3/CS1.png","","","","",""
"","html-keyboard-response","39","283652","0.0-6.0-2.0-0.12","lqup64oma9","one_one","1","indirect_first","0","el07ph27","0","20","1","1","3","1","","0","1","0","null","","","<div class = 'row'><div class = 'column'><img src = 'category4/CS10.png' width = '70%;'></div><div class = 'column'><img src = 'uspos/2340.bmp' width = '100%;'></div></div>","null","pos","CS","CS","4","category4/CS10.png","","","","",""
"","html-keyboard-response","40","286160","0.0-6.0-2.0-0.13","lqup64oma9","one_one","1","indirect_first","0","el07ph27","0","20","1","1","3","1","","0","1","0","null","","","<div class = 'row'><div class = 'column'><img src = 'category3/CS1.png' width = '70%;'></div><div class = 'column'><img src = 'uspos/7325.bmp' width = '100%;'></div></div>","null","pos","CS","CS","3","category3/CS1.png","","","","",""
"","html-keyboard-response","41","288668","0.0-6.0-2.0-0.14","lqup64oma9","one_one","1","indirect_first","0","el07ph27","0","20","1","1","3","1","","0","1","0","null","","","<div class = 'row'><div class = 'column'><img src = 'usneg/9182.bmp' width = '100%;'></div><div class = 'column'><img src = 'category1/CS1.png' width = '70%;'></div></div>","null","neg","CS","CS","1","category1/CS1.png","","","","",""
"","html-keyboard-response","42","291179","0.0-6.0-2.0-0.15","lqup64oma9","one_one","1","indirect_first","0","el07ph27","0","20","1","1","3","1","","0","1","0","null","","","<div class = 'row'><div class = 'column'><img src = 'uspos/7325.bmp' width = '100%;'></div><div class = 'column'><img src = 'category3/CS1.png' width = '70%;'></div></div>","null","pos","CS","CS","3","category3/CS1.png","","","","",""
"","html-keyboard-response","43","293682","0.0-6.0-2.0-0.16","lqup64oma9","one_one","1","indirect_first","0","el07ph27","0","20","1","1","3","1","","0","1","0","null","","","<div class = 'row'><div class = 'column'><img src = 'uspos/2340.bmp' width = '100%;'></div><div class = 'column'><img src = 'category4/CS10.png' width = '70%;'></div></div>","null","pos","CS","CS","4","category4/CS10.png","","","","",""
"","html-keyboard-response","44","296188","0.0-6.0-2.0-0.17","lqup64oma9","one_one","1","indirect_first","0","el07ph27","0","20","1","1","3","1","","0","1","0","null","","","<div class = 'row'><div class = 'column'><img src = 'category2/CS6.png' width = '70%;'></div><div class = 'column'><img src = 'usneg/7380.bmp' width = '100%;'></div></div>","null","neg","CS","CS","2","category2/CS6.png","","","","",""
"","html-keyboard-response","45","298696","0.0-6.0-2.0-0.18","lqup64oma9","one_one","1","indirect_first","0","el07ph27","0","20","1","1","3","1","","0","1","0","null","","","<div class = 'row'><div class = 'column'><img src = 'uspos/2340.bmp' width = '100%;'></div><div class = 'column'><img src = 'category4/CS10.png' width = '70%;'></div></div>","null","pos","CS","CS","4","category4/CS10.png","","","","",""
"","html-keyboard-response","46","301204","0.0-6.0-2.0-0.19","lqup64oma9","one_one","1","indirect_first","0","el07ph27","0","20","1","1","3","1","","0","1","0","null","","","<div class = 'row'><div class = 'column'><img src = 'category2/CS6.png' width = '70%;'></div><div class = 'column'><img src = 'usneg/7380.bmp' width = '100%;'></div></div>","null","neg","CS","CS","2","category2/CS6.png","","","","",""
"","survey-html-form","47","310352","0.0-6.0-3.0","lqup64oma9","one_one","1","indirect_first","0","el07ph27","0","20","1","1","3","1","","0","1","0","8643","","{}","","","","","","","","","","","",""
"","html-keyboard-response","48","314359","0.0-6.0-4.0-0.0","lqup64oma9","one_one","1","indirect_first","0","el07ph27","0","20","1","1","3","1","","0","1","0","null","","","<div class = 'row'><div class = 'column'><img src = 'category1/CS1.png' width = '70%;'></div><div class = 'column'><img src = 'usneg/9182.bmp' width = '100%;'></div></div>","null","neg","CS","CS","1","category1/CS1.png","","","","",""
"","html-keyboard-response","49","316866","0.0-6.0-4.0-0.1","lqup64oma9","one_one","1","indirect_first","0","el07ph27","0","20","1","1","3","1","","0","1","0","null","","","<div class = 'row'><div class = 'column'><img src = 'usneg/7380.bmp' width = '100%;'></div><div class = 'column'><img src = 'category2/CS6.png' width = '70%;'></div></div>","null","neg","CS","CS","2","category2/CS6.png","","","","",""
"","html-keyboard-response","50","319371","0.0-6.0-4.0-0.2","lqup64oma9","one_one","1","indirect_first","0","el07ph27","0","20","1","1","3","1","","0","1","0","null","","","<div class = 'row'><div class = 'column'><img src = 'uspos/2340.bmp' width = '100%;'></div><div class = 'column'><img src = 'category4/CS10.png' width = '70%;'></div></div>","null","pos","CS","CS","4","category4/CS10.png","","","","",""
"","html-keyboard-response","51","321876","0.0-6.0-4.0-0.3","lqup64oma9","one_one","1","indirect_first","0","el07ph27","0","20","1","1","3","1","","0","1","0","null","","","<div class = 'row'><div class = 'column'><img src = 'category3/CS1.png' width = '70%;'></div><div class = 'column'><img src = 'uspos/7325.bmp' width = '100%;'></div></div>","null","pos","CS","CS","3","category3/CS1.png","","","","",""
"","html-keyboard-response","52","324383","0.0-6.0-4.0-0.4","lqup64oma9","one_one","1","indirect_first","0","el07ph27","0","20","1","1","3","1","","0","1","0","null","","","<div class = 'row'><div class = 'column'><img src = 'usneg/7380.bmp' width = '100%;'></div><div class = 'column'><img src = 'category2/CS6.png' width = '70%;'></div></div>","null","neg","CS","CS","2","category2/CS6.png","","","","",""
"","html-keyboard-response","53","326894","0.0-6.0-4.0-0.5","lqup64oma9","one_one","1","indirect_first","0","el07ph27","0","20","1","1","3","1","","0","1","0","null","","","<div class = 'row'><div class = 'column'><img src = 'category1/CS1.png' width = '70%;'></div><div class = 'column'><img src = 'usneg/9182.bmp' width = '100%;'></div></div>","null","neg","CS","CS","1","category1/CS1.png","","","","",""
"","html-keyboard-response","54","329405","0.0-6.0-4.0-0.6","lqup64oma9","one_one","1","indirect_first","0","el07ph27","0","20","1","1","3","1","","0","1","0","null","","","<div class = 'row'><div class = 'column'><img src = 'category2/CS6.png' width = '70%;'></div><div class = 'column'><img src = 'usneg/7380.bmp' width = '100%;'></div></div>","null","neg","CS","CS","2","category2/CS6.png","","","","",""
"","html-keyboard-response","55","331910","0.0-6.0-4.0-0.7","lqup64oma9","one_one","1","indirect_first","0","el07ph27","0","20","1","1","3","1","","0","1","0","null","","","<div class = 'row'><div class = 'column'><img src = 'category3/CS1.png' width = '70%;'></div><div class = 'column'><img src = 'uspos/7325.bmp' width = '100%;'></div></div>","null","pos","CS","CS","3","category3/CS1.png","","","","",""
"","html-keyboard-response","56","334418","0.0-6.0-4.0-0.8","lqup64oma9","one_one","1","indirect_first","0","el07ph27","0","20","1","1","3","1","","0","1","0","null","","","<div class = 'row'><div class = 'column'><img src = 'category2/CS6.png' width = '70%;'></div><div class = 'column'><img src = 'usneg/7380.bmp' width = '100%;'></div></div>","null","neg","CS","CS","2","category2/CS6.png","","","","",""
"","html-keyboard-response","57","336925","0.0-6.0-4.0-0.9","lqup64oma9","one_one","1","indirect_first","0","el07ph27","0","20","1","1","3","1","","0","1","0","null","","","<div class = 'row'><div class = 'column'><img src = 'category3/CS1.png' width = '70%;'></div><div class = 'column'><img src = 'uspos/7325.bmp' width = '100%;'></div></div>","null","pos","CS","CS","3","category3/CS1.png","","","","",""
"","html-keyboard-response","58","339431","0.0-6.0-4.0-0.10","lqup64oma9","one_one","1","indirect_first","0","el07ph27","0","20","1","1","3","1","","0","1","0","null","","","<div class = 'row'><div class = 'column'><img src = 'usneg/9182.bmp' width = '100%;'></div><div class = 'column'><img src = 'category1/CS1.png' width = '70%;'></div></div>","null","neg","CS","CS","1","category1/CS1.png","","","","",""
"","html-keyboard-response","59","341937","0.0-6.0-4.0-0.11","lqup64oma9","one_one","1","indirect_first","0","el07ph27","0","20","1","1","3","1","","0","1","0","null","","","<div class = 'row'><div class = 'column'><img src = 'uspos/2340.bmp' width = '100%;'></div><div class = 'column'><img src = 'category4/CS10.png' width = '70%;'></div></div>","null","pos","CS","CS","4","category4/CS10.png","","","","",""
"","html-keyboard-response","60","344443","0.0-6.0-4.0-0.12","lqup64oma9","one_one","1","indirect_first","0","el07ph27","0","20","1","1","3","1","","0","1","0","null","","","<div class = 'row'><div class = 'column'><img src = 'category3/CS1.png' width = '70%;'></div><div class = 'column'><img src = 'uspos/7325.bmp' width = '100%;'></div></div>","null","pos","CS","CS","3","category3/CS1.png","","","","",""
"","html-keyboard-response","61","346948","0.0-6.0-4.0-0.13","lqup64oma9","one_one","1","indirect_first","0","el07ph27","0","20","1","1","3","1","","0","1","0","null","","","<div class = 'row'><div class = 'column'><img src = 'usneg/9182.bmp' width = '100%;'></div><div class = 'column'><img src = 'category1/CS1.png' width = '70%;'></div></div>","null","neg","CS","CS","1","category1/CS1.png","","","","",""
"","html-keyboard-response","62","349455","0.0-6.0-4.0-0.14","lqup64oma9","one_one","1","indirect_first","0","el07ph27","0","20","1","1","3","1","","0","1","0","null","","","<div class = 'row'><div class = 'column'><img src = 'category4/CS10.png' width = '70%;'></div><div class = 'column'><img src = 'uspos/2340.bmp' width = '100%;'></div></div>","null","pos","CS","CS","4","category4/CS10.png","","","","",""
"","html-keyboard-response","63","351966","0.0-6.0-4.0-0.15","lqup64oma9","one_one","1","indirect_first","0","el07ph27","0","20","1","1","3","1","","0","1","0","null","","","<div class = 'row'><div class = 'column'><img src = 'usneg/7380.bmp' width = '100%;'></div><div class = 'column'><img src = 'category2/CS6.png' width = '70%;'></div></div>","null","neg","CS","CS","2","category2/CS6.png","","","","",""
"","html-keyboard-response","64","354471","0.0-6.0-4.0-0.16","lqup64oma9","one_one","1","indirect_first","0","el07ph27","0","20","1","1","3","1","","0","1","0","null","","","<div class = 'row'><div class = 'column'><img src = 'category3/CS1.png' width = '70%;'></div><div class = 'column'><img src = 'uspos/7325.bmp' width = '100%;'></div></div>","null","pos","CS","CS","3","category3/CS1.png","","","","",""
"","html-keyboard-response","65","356978","0.0-6.0-4.0-0.17","lqup64oma9","one_one","1","indirect_first","0","el07ph27","0","20","1","1","3","1","","0","1","0","null","","","<div class = 'row'><div class = 'column'><img src = 'uspos/2340.bmp' width = '100%;'></div><div class = 'column'><img src = 'category4/CS10.png' width = '70%;'></div></div>","null","pos","CS","CS","4","category4/CS10.png","","","","",""
"","html-keyboard-response","66","359486","0.0-6.0-4.0-0.18","lqup64oma9","one_one","1","indirect_first","0","el07ph27","0","20","1","1","3","1","","0","1","0","null","","","<div class = 'row'><div class = 'column'><img src = 'category1/CS1.png' width = '70%;'></div><div class = 'column'><img src = 'usneg/9182.bmp' width = '100%;'></div></div>","null","neg","CS","CS","1","category1/CS1.png","","","","",""
"","html-keyboard-response","67","361991","0.0-6.0-4.0-0.19","lqup64oma9","one_one","1","indirect_first","0","el07ph27","0","20","1","1","3","1","","0","1","0","null","","","<div class = 'row'><div class = 'column'><img src = 'category4/CS10.png' width = '70%;'></div><div class = 'column'><img src = 'uspos/2340.bmp' width = '100%;'></div></div>","null","pos","CS","CS","4","category4/CS10.png","","","","",""
"","survey-html-form","68","366738","0.0-6.0-5.0","lqup64oma9","one_one","1","indirect_first","0","el07ph27","0","20","1","1","3","1","","0","1","0","4244","","{}","","","","","","","","","","","",""
"","html-keyboard-response","69","370741","0.0-6.0-6.0-0.0","lqup64oma9","one_one","1","indirect_first","0","el07ph27","0","20","1","1","3","1","","0","1","0","null","","","<div class = 'row'><div class = 'column'><img src = 'category1/CS1.png' width = '70%;'></div><div class = 'column'><img src = 'usneg/9182.bmp' width = '100%;'></div></div>","null","neg","CS","CS","1","category1/CS1.png","","","","",""
"","html-keyboard-response","70","373244","0.0-6.0-6.0-0.1","lqup64oma9","one_one","1","indirect_first","0","el07ph27","0","20","1","1","3","1","","0","1","0","null","","","<div class = 'row'><div class = 'column'><img src = 'category3/CS1.png' width = '70%;'></div><div class = 'column'><img src = 'uspos/7325.bmp' width = '100%;'></div></div>","null","pos","CS","CS","3","category3/CS1.png","","","","",""
"","html-keyboard-response","71","375749","0.0-6.0-6.0-0.2","lqup64oma9","one_one","1","indirect_first","0","el07ph27","0","20","1","1","3","1","","0","1","0","null","","","<div class = 'row'><div class = 'column'><img src = 'usneg/9182.bmp' width = '100%;'></div><div class = 'column'><img src = 'category1/CS1.png' width = '70%;'></div></div>","null","neg","CS","CS","1","category1/CS1.png","","","","",""
"","html-keyboard-response","72","378252","0.0-6.0-6.0-0.3","lqup64oma9","one_one","1","indirect_first","0","el07ph27","0","20","1","1","3","1","","0","1","0","null","","","<div class = 'row'><div class = 'column'><img src = 'uspos/7325.bmp' width = '100%;'></div><div class = 'column'><img src = 'category3/CS1.png' width = '70%;'></div></div>","null","pos","CS","CS","3","category3/CS1.png","","","","",""
"","html-keyboard-response","73","380759","0.0-6.0-6.0-0.4","lqup64oma9","one_one","1","indirect_first","0","el07ph27","0","20","1","1","3","1","","0","1","0","null","","","<div class = 'row'><div class = 'column'><img src = 'usneg/7380.bmp' width = '100%;'></div><div class = 'column'><img src = 'category2/CS6.png' width = '70%;'></div></div>","null","neg","CS","CS","2","category2/CS6.png","","","","",""
"","html-keyboard-response","74","383264","0.0-6.0-6.0-0.5","lqup64oma9","one_one","1","indirect_first","0","el07ph27","0","20","1","1","3","1","","0","1","0","null","","","<div class = 'row'><div class = 'column'><img src = 'usneg/9182.bmp' width = '100%;'></div><div class = 'column'><img src = 'category1/CS1.png' width = '70%;'></div></div>","null","neg","CS","CS","1","category1/CS1.png","","","","",""
"","html-keyboard-response","75","385771","0.0-6.0-6.0-0.6","lqup64oma9","one_one","1","indirect_first","0","el07ph27","0","20","1","1","3","1","","0","1","0","null","","","<div class = 'row'><div class = 'column'><img src = 'usneg/7380.bmp' width = '100%;'></div><div class = 'column'><img src = 'category2/CS6.png' width = '70%;'></div></div>","null","neg","CS","CS","2","category2/CS6.png","","","","",""
"","html-keyboard-response","76","388279","0.0-6.0-6.0-0.7","lqup64oma9","one_one","1","indirect_first","0","el07ph27","0","20","1","1","3","1","","0","1","0","null","","","<div class = 'row'><div class = 'column'><img src = 'category4/CS10.png' width = '70%;'></div><div class = 'column'><img src = 'uspos/2340.bmp' width = '100%;'></div></div>","null","pos","CS","CS","4","category4/CS10.png","","","","",""
"","html-keyboard-response","77","390784","0.0-6.0-6.0-0.8","lqup64oma9","one_one","1","indirect_first","0","el07ph27","0","20","1","1","3","1","","0","1","0","null","","","<div class = 'row'><div class = 'column'><img src = 'category3/CS1.png' width = '70%;'></div><div class = 'column'><img src = 'uspos/7325.bmp' width = '100%;'></div></div>","null","pos","CS","CS","3","category3/CS1.png","","","","",""
"","html-keyboard-response","78","393292","0.0-6.0-6.0-0.9","lqup64oma9","one_one","1","indirect_first","0","el07ph27","0","20","1","1","3","1","","0","1","0","null","","","<div class = 'row'><div class = 'column'><img src = 'category4/CS10.png' width = '70%;'></div><div class = 'column'><img src = 'uspos/2340.bmp' width = '100%;'></div></div>","null","pos","CS","CS","4","category4/CS10.png","","","","",""
"","html-keyboard-response","79","395797","0.0-6.0-6.0-0.10","lqup64oma9","one_one","1","indirect_first","0","el07ph27","0","20","1","1","3","1","","0","1","0","null","","","<div class = 'row'><div class = 'column'><img src = 'category3/CS1.png' width = '70%;'></div><div class = 'column'><img src = 'uspos/7325.bmp' width = '100%;'></div></div>","null","pos","CS","CS","3","category3/CS1.png","","","","",""
"","html-keyboard-response","80","398304","0.0-6.0-6.0-0.11","lqup64oma9","one_one","1","indirect_first","0","el07ph27","0","20","1","1","3","1","","0","1","0","null","","","<div class = 'row'><div class = 'column'><img src = 'category4/CS10.png' width = '70%;'></div><div class = 'column'><img src = 'uspos/2340.bmp' width = '100%;'></div></div>","null","pos","CS","CS","4","category4/CS10.png","","","","",""
"","html-keyboard-response","81","400809","0.0-6.0-6.0-0.12","lqup64oma9","one_one","1","indirect_first","0","el07ph27","0","20","1","1","3","1","","0","1","0","null","","","<div class = 'row'><div class = 'column'><img src = 'category2/CS6.png' width = '70%;'></div><div class = 'column'><img src = 'usneg/7380.bmp' width = '100%;'></div></div>","null","neg","CS","CS","2","category2/CS6.png","","","","",""
"","html-keyboard-response","82","403317","0.0-6.0-6.0-0.13","lqup64oma9","one_one","1","indirect_first","0","el07ph27","0","20","1","1","3","1","","0","1","0","null","","","<div class = 'row'><div class = 'column'><img src = 'uspos/2340.bmp' width = '100%;'></div><div class = 'column'><img src = 'category4/CS10.png' width = '70%;'></div></div>","null","pos","CS","CS","4","category4/CS10.png","","","","",""
"","html-keyboard-response","83","405823","0.0-6.0-6.0-0.14","lqup64oma9","one_one","1","indirect_first","0","el07ph27","0","20","1","1","3","1","","0","1","0","null","","","<div class = 'row'><div class = 'column'><img src = 'usneg/9182.bmp' width = '100%;'></div><div class = 'column'><img src = 'category1/CS1.png' width = '70%;'></div></div>","null","neg","CS","CS","1","category1/CS1.png","","","","",""
"","html-keyboard-response","84","408327","0.0-6.0-6.0-0.15","lqup64oma9","one_one","1","indirect_first","0","el07ph27","0","20","1","1","3","1","","0","1","0","null","","","<div class = 'row'><div class = 'column'><img src = 'usneg/7380.bmp' width = '100%;'></div><div class = 'column'><img src = 'category2/CS6.png' width = '70%;'></div></div>","null","neg","CS","CS","2","category2/CS6.png","","","","",""
"","html-keyboard-response","85","410835","0.0-6.0-6.0-0.16","lqup64oma9","one_one","1","indirect_first","0","el07ph27","0","20","1","1","3","1","","0","1","0","null","","","<div class = 'row'><div class = 'column'><img src = 'category4/CS10.png' width = '70%;'></div><div class = 'column'><img src = 'uspos/2340.bmp' width = '100%;'></div></div>","null","pos","CS","CS","4","category4/CS10.png","","","","",""
"","html-keyboard-response","86","413342","0.0-6.0-6.0-0.17","lqup64oma9","one_one","1","indirect_first","0","el07ph27","0","20","1","1","3","1","","0","1","0","null","","","<div class = 'row'><div class = 'column'><img src = 'usneg/7380.bmp' width = '100%;'></div><div class = 'column'><img src = 'category2/CS6.png' width = '70%;'></div></div>","null","neg","CS","CS","2","category2/CS6.png","","","","",""
"","html-keyboard-response","87","415848","0.0-6.0-6.0-0.18","lqup64oma9","one_one","1","indirect_first","0","el07ph27","0","20","1","1","3","1","","0","1","0","null","","","<div class = 'row'><div class = 'column'><img src = 'usneg/9182.bmp' width = '100%;'></div><div class = 'column'><img src = 'category1/CS1.png' width = '70%;'></div></div>","null","neg","CS","CS","1","category1/CS1.png","","","","",""
"","html-keyboard-response","88","418352","0.0-6.0-6.0-0.19","lqup64oma9","one_one","1","indirect_first","0","el07ph27","0","20","1","1","3","1","","0","1","0","null","","","<div class = 'row'><div class = 'column'><img src = 'uspos/7325.bmp' width = '100%;'></div><div class = 'column'><img src = 'category3/CS1.png' width = '70%;'></div></div>","null","pos","CS","CS","3","category3/CS1.png","","","","",""
"","html-keyboard-response","89","475898","0.0-7.0","lqup64oma9","one_one","1","indirect_first","0","el07ph27","0","20","1","1","3","1","","0","1","0","57041","","","<p>Sie sehen nun die chinesischen Zeichen nur ganz kurz. Danach sehen Sie die jeweilige Aussprache der Zeichen als Silbe auf dem Bildschrim. Ihre Aufgabe ist es, für jede Silbe anzugeben, ob diese etwas angenehmes, oder unangenehmes bedeuten könnte. Verlassen Sie sich hier vor allem auf Ihre Intuition.<br><br>Die Zeichen werden nur zur Orientierung dargestellt, beachten Sie sie deshalb nicht. Konzentrieren Sie sich vor allem auf die Silben. <br>Reagieren Sie mit folgenden zwei Tasten: <br><br><b>'D' </b> wenn die Silbe etwas <b>unangenehmes</b> bedeuten könnte. <br><b>'K'</b> wenn die Silbe etwas <b>angenehmes</b> bedeuten könnte. <br><br>Bitte legen Sie nun den Zeigefinger der linken Hand auf die Taste 'D' und den Zeigefinger der rechten Hand auf die Taste 'K'. <br>Reagieren Sie auf jede Silbe so schnell wie möglich. Uns interessiert Ihre spontane Reaktion. <br> <br> <br>Drücken Sie 'D' oder 'K', um die nächste Aufgabe zu starten. </p>","68","","","","","","","","","",""
"","html-keyboard-response","90","478902","0.0-8.0-0.0","lqup64oma9","one_one","1","indirect_first","0","el07ph27","0","20","1","1","3","1","","0","1","0","null","","","<div style=""font-size:60px;"">+</div>","null","","","","","","","","","",""
"","html-keyboard-response","91","478994","0.0-8.0-1.0","lqup64oma9","one_one","1","indirect_first","0","el07ph27","0","20","1","1","3","1","","0","1","0","null","","","<img src = 'category4/CS10.png' width = '100%;'>","null","","","","","","","","","",""
"","html-keyboard-response","92","479250","0.0-8.0-2.0","lqup64oma9","one_one","1","indirect_first","0","el07ph27","0","20","1","1","3","1","","0","1","0","null","","","<img src = 'targets/37.png' width = '100%;'>","null","","","","","","","","","",""
"","html-keyboard-response","93","486202","0.0-8.0-3.0","lqup64oma9","one_one","1","indirect_first","0","el07ph27","0","20","1","1","3","1","","0","1","0","6952","","","<img src = 'targets/mask.png' width = '100%;'>","75","pos","CS","CS","4","category4/CS10.png","targets/37.png","1","indirect","0",""
"","html-keyboard-response","94","487708","0.0-8.0-0.1","lqup64oma9","one_one","1","indirect_first","0","el07ph27","0","20","1","1","3","1","","0","1","0","null","","","<div style=""font-size:60px;"">+</div>","null","","","","","","","","","",""
"","html-keyboard-response","95","487801","0.0-8.0-1.1","lqup64oma9","one_one","1","indirect_first","0","el07ph27","0","20","1","1","3","1","","0","1","0","null","","","<img src = 'category3/CS7.png' width = '100%;'>","null","","","","","","","","","",""
"","html-keyboard-response","96","488059","0.0-8.0-2.1","lqup64oma9","one_one","1","indirect_first","0","el07ph27","0","20","1","1","3","1","","0","1","0","null","","","<img src = 'targets/30.png' width = '100%;'>","null","","","","","","","","","",""
"","html-keyboard-response","97","500728","0.0-8.0-3.1","lqup64oma9","one_one","1","indirect_first","0","el07ph27","0","20","1","1","3","1","","0","1","0","12668","","","<img src = 'targets/mask.png' width = '100%;'>","75","pos","GS","GSold","3","category3/CS7.png","targets/30.png","1","indirect","1",""
"","html-keyboard-response","98","502235","0.0-8.0-0.2","lqup64oma9","one_one","1","indirect_first","0","el07ph27","0","20","1","1","3","1","","0","1","0","null","","","<div style=""font-size:60px;"">+</div>","null","","","","","","","","","",""
"","html-keyboard-response","99","502331","0.0-8.0-1.2","lqup64oma9","one_one","1","indirect_first","0","el07ph27","0","20","1","1","3","1","","0","1","0","null","","","<img src = 'category1/CS3.png' width = '100%;'>","null","","","","","","","","","",""
"","html-keyboard-response","100","502586","0.0-8.0-2.2","lqup64oma9","one_one","1","indirect_first","0","el07ph27","0","20","1","1","3","1","","0","1","0","null","","","<img src = 'targets/45.png' width = '100%;'>","null","","","","","","","","","",""
"","html-keyboard-response","101","505884","0.0-8.0-3.2","lqup64oma9","one_one","1","indirect_first","0","el07ph27","0","20","1","1","3","1","","0","1","0","3298","","","<img src = 'targets/mask.png' width = '100%;'>","68","neg","GS","GSold","1","category1/CS3.png","targets/45.png","0","indirect","2",""
"","html-keyboard-response","102","507390","0.0-8.0-0.3","lqup64oma9","one_one","1","indirect_first","0","el07ph27","0","20","1","1","3","1","","0","1","0","null","","","<div style=""font-size:60px;"">+</div>","null","","","","","","","","","",""
"","html-keyboard-response","103","507483","0.0-8.0-1.3","lqup64oma9","one_one","1","indirect_first","0","el07ph27","0","20","1","1","3","1","","0","1","0","null","","","<img src = 'category2/CS6.png' width = '100%;'>","null","","","","","","","","","",""
"","html-keyboard-response","104","507738","0.0-8.0-2.3","lqup64oma9","one_one","1","indirect_first","0","el07ph27","0","20","1","1","3","1","","0","1","0","null","","","<img src = 'targets/46.png' width = '100%;'>","null","","","","","","","","","",""
"","html-keyboard-response","105","508879","0.0-8.0-3.3","lqup64oma9","one_one","1","indirect_first","0","el07ph27","0","20","1","1","3","1","","0","1","0","1141","","","<img src = 'targets/mask.png' width = '100%;'>","68","neg","CS","CS","2","category2/CS6.png","targets/46.png","0","indirect","3",""
"","html-keyboard-response","106","510382","0.0-8.0-0.4","lqup64oma9","one_one","1","indirect_first","0","el07ph27","0","20","1","1","3","1","","0","1","0","null","","","<div style=""font-size:60px;"">+</div>","null","","","","","","","","","",""
"","html-keyboard-response","107","510478","0.0-8.0-1.4","lqup64oma9","one_one","1","indirect_first","0","el07ph27","0","20","1","1","3","1","","0","1","0","null","","","<img src = 'category3/CS1.png' width = '100%;'>","null","","","","","","","","","",""
"","html-keyboard-response","108","510733","0.0-8.0-2.4","lqup64oma9","one_one","1","indirect_first","0","el07ph27","0","20","1","1","3","1","","0","1","0","null","","","<img src = 'targets/22.png' width = '100%;'>","null","","","","","","","","","",""
"","html-keyboard-response","109","513258","0.0-8.0-3.4","lqup64oma9","one_one","1","indirect_first","0","el07ph27","0","20","1","1","3","1","","0","1","0","2524","","","<img src = 'targets/mask.png' width = '100%;'>","75","pos","CS","CS","3","category3/CS1.png","targets/22.png","1","indirect","4",""
"","html-keyboard-response","110","514765","0.0-8.0-0.5","lqup64oma9","one_one","1","indirect_first","0","el07ph27","0","20","1","1","3","1","","0","1","0","null","","","<div style=""font-size:60px;"">+</div>","null","","","","","","","","","",""
"","html-keyboard-response","111","514857","0.0-8.0-1.5","lqup64oma9","one_one","1","indirect_first","0","el07ph27","0","20","1","1","3","1","","0","1","0","null","","","<img src = 'category3/CS10.png' width = '100%;'>","null","","","","","","","","","",""
"","html-keyboard-response","112","515116","0.0-8.0-2.5","lqup64oma9","one_one","1","indirect_first","0","el07ph27","0","20","1","1","3","1","","0","1","0","null","","","<img src = 'targets/48.png' width = '100%;'>","null","","","","","","","","","",""
"","html-keyboard-response","113","517182","0.0-8.0-3.5","lqup64oma9","one_one","1","indirect_first","0","el07ph27","0","20","1","1","3","1","","0","1","0","2066","","","<img src = 'targets/mask.png' width = '100%;'>","68","pos","GS","GSold","3","category3/CS10.png","targets/48.png","0","indirect","5",""
"","html-keyboard-response","114","518689","0.0-8.0-0.6","lqup64oma9","one_one","1","indirect_first","0","el07ph27","0","20","1","1","3","1","","0","1","0","null","","","<div style=""font-size:60px;"">+</div>","null","","","","","","","","","",""
"","html-keyboard-response","115","518782","0.0-8.0-1.6","lqup64oma9","one_one","1","indirect_first","0","el07ph27","0","20","1","1","3","1","","0","1","0","null","","","<img src = 'category2/CS3.png' width = '100%;'>","null","","","","","","","","","",""
"","html-keyboard-response","116","519037","0.0-8.0-2.6","lqup64oma9","one_one","1","indirect_first","0","el07ph27","0","20","1","1","3","1","","0","1","0","null","","","<img src = 'targets/23.png' width = '100%;'>","null","","","","","","","","","",""
"","html-keyboard-response","117","520401","0.0-8.0-3.6","lqup64oma9","one_one","1","indirect_first","0","el07ph27","0","20","1","1","3","1","","0","1","0","1362","","","<img src = 'targets/mask.png' width = '100%;'>","68","neg","GS","GSold","2","category2/CS3.png","targets/23.png","0","indirect","6",""
"","html-keyboard-response","118","521905","0.0-8.0-0.7","lqup64oma9","one_one","1","indirect_first","0","el07ph27","0","20","1","1","3","1","","0","1","0","null","","","<div style=""font-size:60px;"">+</div>","null","","","","","","","","","",""
"","html-keyboard-response","119","521998","0.0-8.0-1.7","lqup64oma9","one_one","1","indirect_first","0","el07ph27","0","20","1","1","3","1","","0","1","0","null","","","<img src = 'category4/CS4.png' width = '100%;'>","null","","","","","","","","","",""
"","html-keyboard-response","120","522253","0.0-8.0-2.7","lqup64oma9","one_one","1","indirect_first","0","el07ph27","0","20","1","1","3","1","","0","1","0","null","","","<img src = 'targets/35.png' width = '100%;'>","null","","","","","","","","","",""
"","html-keyboard-response","121","524499","0.0-8.0-3.7","lqup64oma9","one_one","1","indirect_first","0","el07ph27","0","20","1","1","3","1","","0","1","0","2245","","","<img src = 'targets/mask.png' width = '100%;'>","75","pos","GS","GSold","4","category4/CS4.png","targets/35.png","1","indirect","7",""
"","html-keyboard-response","122","526004","0.0-8.0-0.8","lqup64oma9","one_one","1","indirect_first","0","el07ph27","0","20","1","1","3","1","","0","1","0","null","","","<div style=""font-size:60px;"">+</div>","null","","","","","","","","","",""
"","html-keyboard-response","123","526096","0.0-8.0-1.8","lqup64oma9","one_one","1","indirect_first","0","el07ph27","0","20","1","1","3","1","","0","1","0","null","","","<img src = 'category2/CS10.png' width = '100%;'>","null","","","","","","","","","",""
"","html-keyboard-response","124","526352","0.0-8.0-2.8","lqup64oma9","one_one","1","indirect_first","0","el07ph27","0","20","1","1","3","1","","0","1","0","null","","","<img src = 'targets/29.png' width = '100%;'>","null","","","","","","","","","",""
"","html-keyboard-response","125","527843","0.0-8.0-3.8","lqup64oma9","one_one","1","indirect_first","0","el07ph27","0","20","1","1","3","1","","0","1","0","1492","","","<img src = 'targets/mask.png' width = '100%;'>","68","neg","GS","GSold","2","category2/CS10.png","targets/29.png","0","indirect","8",""
"","html-keyboard-response","126","529350","0.0-8.0-0.9","lqup64oma9","one_one","1","indirect_first","0","el07ph27","0","20","1","1","3","1","","0","1","0","null","","","<div style=""font-size:60px;"">+</div>","null","","","","","","","","","",""
"","html-keyboard-response","127","529443","0.0-8.0-1.9","lqup64oma9","one_one","1","indirect_first","0","el07ph27","0","20","1","1","3","1","","0","1","0","null","","","<img src = 'category2/CS2.png' width = '100%;'>","null","","","","","","","","","",""
"","html-keyboard-response","128","529697","0.0-8.0-2.9","lqup64oma9","one_one","1","indirect_first","0","el07ph27","0","20","1","1","3","1","","0","1","0","null","","","<img src = 'targets/21.png' width = '100%;'>","null","","","","","","","","","",""
"","html-keyboard-response","129","531311","0.0-8.0-3.9","lqup64oma9","one_one","1","indirect_first","0","el07ph27","0","20","1","1","3","1","","0","1","0","1614","","","<img src = 'targets/mask.png' width = '100%;'>","68","neg","GS","GSold","2","category2/CS2.png","targets/21.png","0","indirect","9",""
"","html-keyboard-response","130","532816","0.0-8.0-0.10","lqup64oma9","one_one","1","indirect_first","0","el07ph27","0","20","1","1","3","1","","0","1","0","null","","","<div style=""font-size:60px;"">+</div>","null","","","","","","","","","",""
"","html-keyboard-response","131","532908","0.0-8.0-1.10","lqup64oma9","one_one","1","indirect_first","0","el07ph27","0","20","1","1","3","1","","0","1","0","null","","","<img src = 'category1/CS6.png' width = '100%;'>","null","","","","","","","","","",""
"","html-keyboard-response","132","533164","0.0-8.0-2.10","lqup64oma9","one_one","1","indirect_first","0","el07ph27","0","20","1","1","3","1","","0","1","0","null","","","<img src = 'targets/4.png' width = '100%;'>","null","","","","","","","","","",""
"","html-keyboard-response","133","534992","0.0-8.0-3.10","lqup64oma9","one_one","1","indirect_first","0","el07ph27","0","20","1","1","3","1","","0","1","0","1828","","","<img src = 'targets/mask.png' width = '100%;'>","75","neg","GS","GSold","1","category1/CS6.png","targets/4.png","1","indirect","10",""
"","html-keyboard-response","134","536502","0.0-8.0-0.11","lqup64oma9","one_one","1","indirect_first","0","el07ph27","0","20","1","1","3","1","","0","1","0","null","","","<div style=""font-size:60px;"">+</div>","null","","","","","","","","","",""
"","html-keyboard-response","135","536595","0.0-8.0-1.11","lqup64oma9","one_one","1","indirect_first","0","el07ph27","0","20","1","1","3","1","","0","1","0","null","","","<img src = 'category1/CS1.png' width = '100%;'>","null","","","","","","","","","",""
"","html-keyboard-response","136","536850","0.0-8.0-2.11","lqup64oma9","one_one","1","indirect_first","0","el07ph27","0","20","1","1","3","1","","0","1","0","null","","","<img src = 'targets/44.png' width = '100%;'>","null","","","","","","","","","",""
"","html-keyboard-response","137","538733","0.0-8.0-3.11","lqup64oma9","one_one","1","indirect_first","0","el07ph27","0","20","1","1","3","1","","0","1","0","1882","","","<img src = 'targets/mask.png' width = '100%;'>","68","neg","CS","CS","1","category1/CS1.png","targets/44.png","0","indirect","11",""
"","html-keyboard-response","138","540237","0.0-8.0-0.12","lqup64oma9","one_one","1","indirect_first","0","el07ph27","0","20","1","1","3","1","","0","1","0","null","","","<div style=""font-size:60px;"">+</div>","null","","","","","","","","","",""
"","html-keyboard-response","139","540333","0.0-8.0-1.12","lqup64oma9","one_one","1","indirect_first","0","el07ph27","0","20","1","1","3","1","","0","1","0","null","","","<img src = 'category1/CS7.png' width = '100%;'>","null","","","","","","","","","",""
"","html-keyboard-response","140","540592","0.0-8.0-2.12","lqup64oma9","one_one","1","indirect_first","0","el07ph27","0","20","1","1","3","1","","0","1","0","null","","","<img src = 'targets/6.png' width = '100%;'>","null","","","","","","","","","",""
"","html-keyboard-response","141","543375","0.0-8.0-3.12","lqup64oma9","one_one","1","indirect_first","0","el07ph27","0","20","1","1","3","1","","0","1","0","2784","","","<img src = 'targets/mask.png' width = '100%;'>","75","neg","GS","GSold","1","category1/CS7.png","targets/6.png","1","indirect","12",""
"","html-keyboard-response","142","544882","0.0-8.0-0.13","lqup64oma9","one_one","1","indirect_first","0","el07ph27","0","20","1","1","3","1","","0","1","0","null","","","<div style=""font-size:60px;"">+</div>","null","","","","","","","","","",""
"","html-keyboard-response","143","544977","0.0-8.0-1.13","lqup64oma9","one_one","1","indirect_first","0","el07ph27","0","20","1","1","3","1","","0","1","0","null","","","<img src = 'category4/CS8.png' width = '100%;'>","null","","","","","","","","","",""
"","html-keyboard-response","144","545236","0.0-8.0-2.13","lqup64oma9","one_one","1","indirect_first","0","el07ph27","0","20","1","1","3","1","","0","1","0","null","","","<img src = 'targets/5.png' width = '100%;'>","null","","","","","","","","","",""
"","html-keyboard-response","145","546906","0.0-8.0-3.13","lqup64oma9","one_one","1","indirect_first","0","el07ph27","0","20","1","1","3","1","","0","1","0","1671","","","<img src = 'targets/mask.png' width = '100%;'>","75","pos","GS","GSold","4","category4/CS8.png","targets/5.png","1","indirect","13",""
"","html-keyboard-response","146","548411","0.0-8.0-0.14","lqup64oma9","one_one","1","indirect_first","0","el07ph27","0","20","1","1","3","1","","0","1","0","null","","","<div style=""font-size:60px;"">+</div>","null","","","","","","","","","",""
"","html-keyboard-response","147","548504","0.0-8.0-1.14","lqup64oma9","one_one","1","indirect_first","0","el07ph27","0","20","1","1","3","1","","0","1","0","null","","","<img src = 'category4/CS5.png' width = '100%;'>","null","","","","","","","","","",""
"","html-keyboard-response","148","548759","0.0-8.0-2.14","lqup64oma9","one_one","1","indirect_first","0","el07ph27","0","20","1","1","3","1","","0","1","0","null","","","<img src = 'targets/12.png' width = '100%;'>","null","","","","","","","","","",""
"","html-keyboard-response","149","550705","0.0-8.0-3.14","lqup64oma9","one_one","1","indirect_first","0","el07ph27","0","20","1","1","3","1","","0","1","0","1945","","","<img src = 'targets/mask.png' width = '100%;'>","75","pos","GS","GSold","4","category4/CS5.png","targets/12.png","1","indirect","14",""
"","html-keyboard-response","150","552213","0.0-8.0-0.15","lqup64oma9","one_one","1","indirect_first","0","el07ph27","0","20","1","1","3","1","","0","1","0","null","","","<div style=""font-size:60px;"">+</div>","null","","","","","","","","","",""
"","html-keyboard-response","151","552304","0.0-8.0-1.15","lqup64oma9","one_one","1","indirect_first","0","el07ph27","0","20","1","1","3","1","","0","1","0","null","","","<img src = 'category3/CS5.png' width = '100%;'>","null","","","","","","","","","",""
"","html-keyboard-response","152","552559","0.0-8.0-2.15","lqup64oma9","one_one","1","indirect_first","0","el07ph27","0","20","1","1","3","1","","0","1","0","null","","","<img src = 'targets/1.png' width = '100%;'>","null","","","","","","","","","",""
"","html-keyboard-response","153","556752","0.0-8.0-3.15","lqup64oma9","one_one","1","indirect_first","0","el07ph27","0","20","1","1","3","1","","0","1","0","4193","","","<img src = 'targets/mask.png' width = '100%;'>","75","pos","GS","GSold","3","category3/CS5.png","targets/1.png","1","indirect","15",""
"","survey-html-form","154","561670","0.0-9.0","lqup64oma9","one_one","1","indirect_first","0","el07ph27","0","20","1","1","3","1","","0","1","0","4415","","{}","","","","","","","","","","","",""
"","html-keyboard-response","155","564677","0.0-10.0-0.0","lqup64oma9","one_one","1","indirect_first","0","el07ph27","0","20","1","1","3","1","","0","1","0","null","","","<div style=""font-size:60px;"">+</div>","null","","","","","","","","","",""
"","html-keyboard-response","156","564767","0.0-10.0-1.0","lqup64oma9","one_one","1","indirect_first","0","el07ph27","0","20","1","1","3","1","","0","1","0","null","","","<img src = 'category1/GS3.png' width = '100%;'>","null","","","","","","","","","",""
"","html-keyboard-response","157","565022","0.0-10.0-2.0","lqup64oma9","one_one","1","indirect_first","0","el07ph27","0","20","1","1","3","1","","0","1","0","null","","","<img src = 'targets/14.png' width = '100%;'>","null","","","","","","","","","",""
"","html-keyboard-response","158","567221","0.0-10.0-3.0","lqup64oma9","one_one","1","indirect_first","0","el07ph27","0","20","1","1","3","1","","0","1","0","2198","","","<img src = 'targets/mask.png' width = '100%;'>","68","neg","GS","GSnew","1","category1/GS3.png","targets/14.png","0","indirect","16",""
"","html-keyboard-response","159","568722","0.0-10.0-0.1","lqup64oma9","one_one","1","indirect_first","0","el07ph27","0","20","1","1","3","1","","0","1","0","null","","","<div style=""font-size:60px;"">+</div>","null","","","","","","","","","",""
"","html-keyboard-response","160","568815","0.0-10.0-1.1","lqup64oma9","one_one","1","indirect_first","0","el07ph27","0","20","1","1","3","1","","0","1","0","null","","","<img src = 'category1/GS1.png' width = '100%;'>","null","","","","","","","","","",""
"","html-keyboard-response","161","569071","0.0-10.0-2.1","lqup64oma9","one_one","1","indirect_first","0","el07ph27","0","20","1","1","3","1","","0","1","0","null","","","<img src = 'targets/19.png' width = '100%;'>","null","","","","","","","","","",""
"","html-keyboard-response","162","570819","0.0-10.0-3.1","lqup64oma9","one_one","1","indirect_first","0","el07ph27","0","20","1","1","3","1","","0","1","0","1748","","","<img src = 'targets/mask.png' width = '100%;'>","68","neg","GS","GSnew","1","category1/GS1.png","targets/19.png","0","indirect","17",""
"","html-keyboard-response","163","572324","0.0-10.0-0.2","lqup64oma9","one_one","1","indirect_first","0","el07ph27","0","20","1","1","3","1","","0","1","0","null","","","<div style=""font-size:60px;"">+</div>","null","","","","","","","","","",""
"","html-keyboard-response","164","572420","0.0-10.0-1.2","lqup64oma9","one_one","1","indirect_first","0","el07ph27","0","20","1","1","3","1","","0","1","0","null","","","<img src = 'category1/ma.png' width = '100%;'>","null","","","","","","","","","",""
"","html-keyboard-response","165","572675","0.0-10.0-2.2","lqup64oma9","one_one","1","indirect_first","0","el07ph27","0","20","1","1","3","1","","0","1","0","null","","","<img src = 'targets/9.png' width = '100%;'>","null","","","","","","","","","",""
"","html-keyboard-response","166","574455","0.0-10.0-3.2","lqup64oma9","one_one","1","indirect_first","0","el07ph27","0","20","1","1","3","1","","0","1","0","1779","","","<img src = 'targets/mask.png' width = '100%;'>","75","neg","GS","abstract","1","category1/ma.png","targets/9.png","1","indirect","18",""
"","html-keyboard-response","167","575959","0.0-10.0-0.3","lqup64oma9","one_one","1","indirect_first","0","el07ph27","0","20","1","1","3","1","","0","1","0","null","","","<div style=""font-size:60px;"">+</div>","null","","","","","","","","","",""
"","html-keyboard-response","168","576051","0.0-10.0-1.3","lqup64oma9","one_one","1","indirect_first","0","el07ph27","0","20","1","1","3","1","","0","1","0","null","","","<img src = 'category2/GS1.png' width = '100%;'>","null","","","","","","","","","",""
"","html-keyboard-response","169","576304","0.0-10.0-2.3","lqup64oma9","one_one","1","indirect_first","0","el07ph27","0","20","1","1","3","1","","0","1","0","null","","","<img src = 'targets/13.png' width = '100%;'>","null","","","","","","","","","",""
"","html-keyboard-response","170","583520","0.0-10.0-3.3","lqup64oma9","one_one","1","indirect_first","0","el07ph27","0","20","1","1","3","1","","0","1","0","7215","","","<img src = 'targets/mask.png' width = '100%;'>","75","neg","GS","GSnew","2","category2/GS1.png","targets/13.png","1","indirect","19",""
"","html-keyboard-response","171","585029","0.0-10.0-0.4","lqup64oma9","one_one","1","indirect_first","0","el07ph27","0","20","1","1","3","1","","0","1","0","null","","","<div style=""font-size:60px;"">+</div>","null","","","","","","","","","",""
"","html-keyboard-response","172","585122","0.0-10.0-1.4","lqup64oma9","one_one","1","indirect_first","0","el07ph27","0","20","1","1","3","1","","0","1","0","null","","","<img src = 'category1/GS2.png' width = '100%;'>","null","","","","","","","","","",""
"","html-keyboard-response","173","585380","0.0-10.0-2.4","lqup64oma9","one_one","1","indirect_first","0","el07ph27","0","20","1","1","3","1","","0","1","0","null","","","<img src = 'targets/26.png' width = '100%;'>","null","","","","","","","","","",""
"","html-keyboard-response","174","587546","0.0-10.0-3.4","lqup64oma9","one_one","1","indirect_first","0","el07ph27","0","20","1","1","3","1","","0","1","0","2165","","","<img src = 'targets/mask.png' width = '100%;'>","68","neg","GS","GSnew","1","category1/GS2.png","targets/26.png","0","indirect","20",""
"","html-keyboard-response","175","589052","0.0-10.0-0.5","lqup64oma9","one_one","1","indirect_first","0","el07ph27","0","20","1","1","3","1","","0","1","0","null","","","<div style=""font-size:60px;"">+</div>","null","","","","","","","","","",""
"","html-keyboard-response","176","589148","0.0-10.0-1.5","lqup64oma9","one_one","1","indirect_first","0","el07ph27","0","20","1","1","3","1","","0","1","0","null","","","<img src = 'category2/men.png' width = '100%;'>","null","","","","","","","","","",""
"","html-keyboard-response","177","589403","0.0-10.0-2.5","lqup64oma9","one_one","1","indirect_first","0","el07ph27","0","20","1","1","3","1","","0","1","0","null","","","<img src = 'targets/10.png' width = '100%;'>","null","","","","","","","","","",""
"","html-keyboard-response","178","591652","0.0-10.0-3.5","lqup64oma9","one_one","1","indirect_first","0","el07ph27","0","20","1","1","3","1","","0","1","0","2249","","","<img src = 'targets/mask.png' width = '100%;'>","75","neg","GS","abstract","2","category2/men.png","targets/10.png","1","indirect","21",""
"","html-keyboard-response","179","593162","0.0-10.0-0.6","lqup64oma9","one_one","1","indirect_first","0","el07ph27","0","20","1","1","3","1","","0","1","0","null","","","<div style=""font-size:60px;"">+</div>","null","","","","","","","","","",""
"","html-keyboard-response","180","593254","0.0-10.0-1.6","lqup64oma9","one_one","1","indirect_first","0","el07ph27","0","20","1","1","3","1","","0","1","0","null","","","<img src = 'category4/GS2.png' width = '100%;'>","null","","","","","","","","","",""
"","html-keyboard-response","181","593510","0.0-10.0-2.6","lqup64oma9","one_one","1","indirect_first","0","el07ph27","0","20","1","1","3","1","","0","1","0","null","","","<img src = 'targets/38.png' width = '100%;'>","null","","","","","","","","","",""
"","html-keyboard-response","182","596877","0.0-10.0-3.6","lqup64oma9","one_one","1","indirect_first","0","el07ph27","0","20","1","1","3","1","","0","1","0","3366","","","<img src = 'targets/mask.png' width = '100%;'>","68","pos","GS","GSnew","4","category4/GS2.png","targets/38.png","0","indirect","22",""
"","html-keyboard-response","183","598383","0.0-10.0-0.7","lqup64oma9","one_one","1","indirect_first","0","el07ph27","0","20","1","1","3","1","","0","1","0","null","","","<div style=""font-size:60px;"">+</div>","null","","","","","","","","","",""
"","html-keyboard-response","184","598477","0.0-10.0-1.7","lqup64oma9","one_one","1","indirect_first","0","el07ph27","0","20","1","1","3","1","","0","1","0","null","","","<img src = 'category3/GS2.png' width = '100%;'>","null","","","","","","","","","",""
"","html-keyboard-response","185","598731","0.0-10.0-2.7","lqup64oma9","one_one","1","indirect_first","0","el07ph27","0","20","1","1","3","1","","0","1","0","null","","","<img src = 'targets/40.png' width = '100%;'>","null","","","","","","","","","",""
"","html-keyboard-response","186","601401","0.0-10.0-3.7","lqup64oma9","one_one","1","indirect_first","0","el07ph27","0","20","1","1","3","1","","0","1","0","2668","","","<img src = 'targets/mask.png' width = '100%;'>","68","pos","GS","GSnew","3","category3/GS2.png","targets/40.png","0","indirect","23",""
"","html-keyboard-response","187","602906","0.0-10.0-0.8","lqup64oma9","one_one","1","indirect_first","0","el07ph27","0","20","1","1","3","1","","0","1","0","null","","","<div style=""font-size:60px;"">+</div>","null","","","","","","","","","",""
"","html-keyboard-response","188","602998","0.0-10.0-1.8","lqup64oma9","one_one","1","indirect_first","0","el07ph27","0","20","1","1","3","1","","0","1","0","null","","","<img src = 'category2/GS2.png' width = '100%;'>","null","","","","","","","","","",""
"","html-keyboard-response","189","603254","0.0-10.0-2.8","lqup64oma9","one_one","1","indirect_first","0","el07ph27","0","20","1","1","3","1","","0","1","0","null","","","<img src = 'targets/15.png' width = '100%;'>","null","","","","","","","","","",""
"","html-keyboard-response","190","607266","0.0-10.0-3.8","lqup64oma9","one_one","1","indirect_first","0","el07ph27","0","20","1","1","3","1","","0","1","0","4011","","","<img src = 'targets/mask.png' width = '100%;'>","68","neg","GS","GSnew","2","category2/GS2.png","targets/15.png","0","indirect","24",""
"","html-keyboard-response","191","608774","0.0-10.0-0.9","lqup64oma9","one_one","1","indirect_first","0","el07ph27","0","20","1","1","3","1","","0","1","0","null","","","<div style=""font-size:60px;"">+</div>","null","","","","","","","","","",""
"","html-keyboard-response","192","608870","0.0-10.0-1.9","lqup64oma9","one_one","1","indirect_first","0","el07ph27","0","20","1","1","3","1","","0","1","0","null","","","<img src = 'category3/GS3.png' width = '100%;'>","null","","","","","","","","","",""
"","html-keyboard-response","193","609128","0.0-10.0-2.9","lqup64oma9","one_one","1","indirect_first","0","el07ph27","0","20","1","1","3","1","","0","1","0","null","","","<img src = 'targets/34.png' width = '100%;'>","null","","","","","","","","","",""
"","html-keyboard-response","194","610357","0.0-10.0-3.9","lqup64oma9","one_one","1","indirect_first","0","el07ph27","0","20","1","1","3","1","","0","1","0","1229","","","<img src = 'targets/mask.png' width = '100%;'>","75","pos","GS","GSnew","3","category3/GS3.png","targets/34.png","1","indirect","25",""
"","html-keyboard-response","195","611863","0.0-10.0-0.10","lqup64oma9","one_one","1","indirect_first","0","el07ph27","0","20","1","1","3","1","","0","1","0","null","","","<div style=""font-size:60px;"">+</div>","null","","","","","","","","","",""
"","html-keyboard-response","196","611953","0.0-10.0-1.10","lqup64oma9","one_one","1","indirect_first","0","el07ph27","0","20","1","1","3","1","","0","1","0","null","","","<img src = 'category3/wang.png' width = '100%;'>","null","","","","","","","","","",""
"","html-keyboard-response","197","612211","0.0-10.0-2.10","lqup64oma9","one_one","1","indirect_first","0","el07ph27","0","20","1","1","3","1","","0","1","0","null","","","<img src = 'targets/8.png' width = '100%;'>","null","","","","","","","","","",""
"","html-keyboard-response","198","614282","0.0-10.0-3.10","lqup64oma9","one_one","1","indirect_first","0","el07ph27","0","20","1","1","3","1","","0","1","0","2071","","","<img src = 'targets/mask.png' width = '100%;'>","75","pos","GS","abstract","3","category3/wang.png","targets/8.png","1","indirect","26",""
"","html-keyboard-response","199","615784","0.0-10.0-0.11","lqup64oma9","one_one","1","indirect_first","0","el07ph27","0","20","1","1","3","1","","0","1","0","null","","","<div style=""font-size:60px;"">+</div>","null","","","","","","","","","",""
"","html-keyboard-response","200","615876","0.0-10.0-1.11","lqup64oma9","one_one","1","indirect_first","0","el07ph27","0","20","1","1","3","1","","0","1","0","null","","","<img src = 'category3/GS1.png' width = '100%;'>","null","","","","","","","","","",""
"","html-keyboard-response","201","616132","0.0-10.0-2.11","lqup64oma9","one_one","1","indirect_first","0","el07ph27","0","20","1","1","3","1","","0","1","0","null","","","<img src = 'targets/43.png' width = '100%;'>","null","","","","","","","","","",""
"","html-keyboard-response","202","618351","0.0-10.0-3.11","lqup64oma9","one_one","1","indirect_first","0","el07ph27","0","20","1","1","3","1","","0","1","0","2219","","","<img src = 'targets/mask.png' width = '100%;'>","75","pos","GS","GSnew","3","category3/GS1.png","targets/43.png","1","indirect","27",""
"","html-keyboard-response","203","619856","0.0-10.0-0.12","lqup64oma9","one_one","1","indirect_first","0","el07ph27","0","20","1","1","3","1","","0","1","0","null","","","<div style=""font-size:60px;"">+</div>","null","","","","","","","","","",""
"","html-keyboard-response","204","619949","0.0-10.0-1.12","lqup64oma9","one_one","1","indirect_first","0","el07ph27","0","20","1","1","3","1","","0","1","0","null","","","<img src = 'category2/GS3.png' width = '100%;'>","null","","","","","","","","","",""
"","html-keyboard-response","205","620207","0.0-10.0-2.12","lqup64oma9","one_one","1","indirect_first","0","el07ph27","0","20","1","1","3","1","","0","1","0","null","","","<img src = 'targets/31.png' width = '100%;'>","null","","","","","","","","","",""
"","html-keyboard-response","206","622251","0.0-10.0-3.12","lqup64oma9","one_one","1","indirect_first","0","el07ph27","0","20","1","1","3","1","","0","1","0","2043","","","<img src = 'targets/mask.png' width = '100%;'>","75","neg","GS","GSnew","2","category2/GS3.png","targets/31.png","1","indirect","28",""
"","html-keyboard-response","207","623757","0.0-10.0-0.13","lqup64oma9","one_one","1","indirect_first","0","el07ph27","0","20","1","1","3","1","","0","1","0","null","","","<div style=""font-size:60px;"">+</div>","null","","","","","","","","","",""
"","html-keyboard-response","208","623850","0.0-10.0-1.13","lqup64oma9","one_one","1","indirect_first","0","el07ph27","0","20","1","1","3","1","","0","1","0","null","","","<img src = 'category4/GS1.png' width = '100%;'>","null","","","","","","","","","",""
"","html-keyboard-response","209","624109","0.0-10.0-2.13","lqup64oma9","one_one","1","indirect_first","0","el07ph27","0","20","1","1","3","1","","0","1","0","null","","","<img src = 'targets/18.png' width = '100%;'>","null","","","","","","","","","",""
"","html-keyboard-response","210","626393","0.0-10.0-3.13","lqup64oma9","one_one","1","indirect_first","0","el07ph27","0","20","1","1","3","1","","0","1","0","2283","","","<img src = 'targets/mask.png' width = '100%;'>","68","pos","GS","GSnew","4","category4/GS1.png","targets/18.png","0","indirect","29",""
"","html-keyboard-response","211","627896","0.0-10.0-0.14","lqup64oma9","one_one","1","indirect_first","0","el07ph27","0","20","1","1","3","1","","0","1","0","null","","","<div style=""font-size:60px;"">+</div>","null","","","","","","","","","",""
"","html-keyboard-response","212","627992","0.0-10.0-1.14","lqup64oma9","one_one","1","indirect_first","0","el07ph27","0","20","1","1","3","1","","0","1","0","null","","","<img src = 'category4/lin.png' width = '100%;'>","null","","","","","","","","","",""
"","html-keyboard-response","213","628247","0.0-10.0-2.14","lqup64oma9","one_one","1","indirect_first","0","el07ph27","0","20","1","1","3","1","","0","1","0","null","","","<img src = 'targets/42.png' width = '100%;'>","null","","","","","","","","","",""
"","html-keyboard-response","214","629730","0.0-10.0-3.14","lqup64oma9","one_one","1","indirect_first","0","el07ph27","0","20","1","1","3","1","","0","1","0","1483","","","<img src = 'targets/mask.png' width = '100%;'>","75","pos","GS","abstract","4","category4/lin.png","targets/42.png","1","indirect","30",""
"","html-keyboard-response","215","631240","0.0-10.0-0.15","lqup64oma9","one_one","1","indirect_first","0","el07ph27","0","20","1","1","3","1","","0","1","0","null","","","<div style=""font-size:60px;"">+</div>","null","","","","","","","","","",""
"","html-keyboard-response","216","631332","0.0-10.0-1.15","lqup64oma9","one_one","1","indirect_first","0","el07ph27","0","20","1","1","3","1","","0","1","0","null","","","<img src = 'category4/GS3.png' width = '100%;'>","null","","","","","","","","","",""
"","html-keyboard-response","217","631588","0.0-10.0-2.15","lqup64oma9","one_one","1","indirect_first","0","el07ph27","0","20","1","1","3","1","","0","1","0","null","","","<img src = 'targets/24.png' width = '100%;'>","null","","","","","","","","","",""
"","html-keyboard-response","218","633365","0.0-10.0-3.15","lqup64oma9","one_one","1","indirect_first","0","el07ph27","0","20","1","1","3","1","","0","1","0","1776","","","<img src = 'targets/mask.png' width = '100%;'>","68","pos","GS","GSnew","4","category4/GS3.png","targets/24.png","0","indirect","31",""
"","survey-html-form","219","649147","0.0-11.0","lqup64oma9","one_one","1","indirect_first","0","el07ph27","0","20","1","1","3","1","","0","1","0","15279","","{}","","","","","","","","","","","",""
"","image-slider-response","220","668220","0.0-12.0-0.0","lqup64oma9","one_one","1","indirect_first","0","el07ph27","0","20","1","1","3","1","","0","1","0","17063","","","","","pos","CS","CS","3","category3/CS1.png","targets/22.png","","direct","","77"
"","image-slider-response","221","674289","0.0-12.0-0.1","lqup64oma9","one_one","1","indirect_first","0","el07ph27","0","20","1","1","3","1","","0","1","0","6068","","","","","neg","GS","GSnew","2","category2/GS2.png","targets/15.png","","direct","","51"
"","image-slider-response","222","682488","0.0-12.0-0.2","lqup64oma9","one_one","1","indirect_first","0","el07ph27","0","20","1","1","3","1","","0","1","0","8198","","","","","pos","GS","abstract","3","category3/wang.png","targets/8.png","","direct","","68"
"","image-slider-response","223","688001","0.0-12.0-0.3","lqup64oma9","one_one","1","indirect_first","0","el07ph27","0","20","1","1","3","1","","0","1","0","5512","","","","","pos","GS","GSnew","3","category3/GS1.png","targets/43.png","","direct","","26"
"","image-slider-response","224","692431","0.0-12.0-0.4","lqup64oma9","one_one","1","indirect_first","0","el07ph27","0","20","1","1","3","1","","0","1","0","4430","","","","","pos","GS","GSold","3","category3/CS10.png","targets/48.png","","direct","","-16"
"","image-slider-response","225","697133","0.0-12.0-0.5","lqup64oma9","one_one","1","indirect_first","0","el07ph27","0","20","1","1","3","1","","0","1","0","4701","","","","","pos","GS","GSold","4","category4/CS8.png","targets/5.png","","direct","","35"
"","image-slider-response","226","703391","0.0-12.0-0.6","lqup64oma9","one_one","1","indirect_first","0","el07ph27","0","20","1","1","3","1","","0","1","0","6257","","","","","pos","GS","GSnew","4","category4/GS1.png","targets/18.png","","direct","","-17"
"","image-slider-response","227","707069","0.0-12.0-0.7","lqup64oma9","one_one","1","indirect_first","0","el07ph27","0","20","1","1","3","1","","0","1","0","3677","","","","","neg","GS","GSold","1","category1/CS3.png","targets/45.png","","direct","","-13"
"","image-slider-response","228","711918","0.0-12.0-0.8","lqup64oma9","one_one","1","indirect_first","0","el07ph27","0","20","1","1","3","1","","0","1","0","4849","","","","","neg","GS","GSold","2","category2/CS10.png","targets/29.png","","direct","","-19"
"","image-slider-response","229","716833","0.0-12.0-0.9","lqup64oma9","one_one","1","indirect_first","0","el07ph27","0","20","1","1","3","1","","0","1","0","4915","","","","","neg","GS","GSold","2","category2/CS3.png","targets/23.png","","direct","","-17"
"","image-slider-response","230","721428","0.0-12.0-0.10","lqup64oma9","one_one","1","indirect_first","0","el07ph27","0","20","1","1","3","1","","0","1","0","4594","","","","","pos","CS","CS","4","category4/CS10.png","targets/37.png","","direct","","59"
"","image-slider-response","231","724590","0.0-12.0-0.11","lqup64oma9","one_one","1","indirect_first","0","el07ph27","0","20","1","1","3","1","","0","1","0","3161","","","","","pos","GS","GSold","4","category4/CS4.png","targets/35.png","","direct","","11"
"","image-slider-response","232","729144","0.0-12.0-0.12","lqup64oma9","one_one","1","indirect_first","0","el07ph27","0","20","1","1","3","1","","0","1","0","4554","","","","","neg","CS","CS","2","category2/CS6.png","targets/46.png","","direct","","-23"
"","image-slider-response","233","732725","0.0-12.0-0.13","lqup64oma9","one_one","1","indirect_first","0","el07ph27","0","20","1","1","3","1","","0","1","0","3579","","","","","neg","GS","GSold","2","category2/CS2.png","targets/21.png","","direct","","19"
"","image-slider-response","234","735436","0.0-12.0-0.14","lqup64oma9","one_one","1","indirect_first","0","el07ph27","0","20","1","1","3","1","","0","1","0","2711","","","","","pos","GS","abstract","4","category4/lin.png","targets/42.png","","direct","","41"
"","image-slider-response","235","738745","0.0-12.0-0.15","lqup64oma9","one_one","1","indirect_first","0","el07ph27","0","20","1","1","3","1","","0","1","0","3308","","","","","pos","GS","GSold","3","category3/CS7.png","targets/30.png","","direct","","33"
"","image-slider-response","236","742685","0.0-12.0-0.16","lqup64oma9","one_one","1","indirect_first","0","el07ph27","0","20","1","1","3","1","","0","1","0","3939","","","","","neg","GS","GSold","1","category1/CS6.png","targets/4.png","","direct","","-9"
"","image-slider-response","237","746200","0.0-12.0-0.17","lqup64oma9","one_one","1","indirect_first","0","el07ph27","0","20","1","1","3","1","","0","1","0","3514","","","","","neg","GS","GSnew","2","category2/GS1.png","targets/13.png","","direct","","-15"
"","image-slider-response","238","749295","0.0-12.0-0.18","lqup64oma9","one_one","1","indirect_first","0","el07ph27","0","20","1","1","3","1","","0","1","0","3094","","","","","pos","GS","GSnew","3","category3/GS3.png","targets/34.png","","direct","","23"
"","image-slider-response","239","753170","0.0-12.0-0.19","lqup64oma9","one_one","1","indirect_first","0","el07ph27","0","20","1","1","3","1","","0","1","0","3874","","","","","neg","GS","GSold","1","category1/CS7.png","targets/6.png","","direct","","16"
"","image-slider-response","240","756168","0.0-12.0-0.20","lqup64oma9","one_one","1","indirect_first","0","el07ph27","0","20","1","1","3","1","","0","1","0","2998","","","","","neg","GS","GSnew","1","category1/GS1.png","targets/19.png","","direct","","-13"
"","image-slider-response","241","759134","0.0-12.0-0.21","lqup64oma9","one_one","1","indirect_first","0","el07ph27","0","20","1","1","3","1","","0","1","0","2964","","","","","neg","GS","GSnew","2","category2/GS3.png","targets/31.png","","direct","","-25"
"","image-slider-response","242","762353","0.0-12.0-0.22","lqup64oma9","one_one","1","indirect_first","0","el07ph27","0","20","1","1","3","1","","0","1","0","3218","","","","","neg","GS","GSnew","1","category1/GS3.png","targets/14.png","","direct","","23"
"","image-slider-response","243","765270","0.0-12.0-0.23","lqup64oma9","one_one","1","indirect_first","0","el07ph27","0","20","1","1","3","1","","0","1","0","2915","","","","","pos","GS","GSold","3","category3/CS5.png","targets/1.png","","direct","","15"
"","image-slider-response","244","771160","0.0-12.0-0.24","lqup64oma9","one_one","1","indirect_first","0","el07ph27","0","20","1","1","3","1","","0","1","0","5888","","","","","pos","GS","GSnew","4","category4/GS2.png","targets/38.png","","direct","","19"
"","image-slider-response","245","774018","0.0-12.0-0.25","lqup64oma9","one_one","1","indirect_first","0","el07ph27","0","20","1","1","3","1","","0","1","0","2858","","","","","pos","GS","GSnew","4","category4/GS3.png","targets/24.png","","direct","","22"
"","image-slider-response","246","777139","0.0-12.0-0.26","lqup64oma9","one_one","1","indirect_first","0","el07ph27","0","20","1","1","3","1","","0","1","0","3120","","","","","pos","GS","GSnew","3","category3/GS2.png","targets/40.png","","direct","","-19"
"","image-slider-response","247","780302","0.0-12.0-0.27","lqup64oma9","one_one","1","indirect_first","0","el07ph27","0","20","1","1","3","1","","0","1","0","3161","","","","","pos","GS","GSold","4","category4/CS5.png","targets/12.png","","direct","","24"
"","image-slider-response","248","783447","0.0-12.0-0.28","lqup64oma9","one_one","1","indirect_first","0","el07ph27","0","20","1","1","3","1","","0","1","0","3144","","","","","neg","GS","abstract","2","category2/men.png","targets/10.png","","direct","","-37"
"","image-slider-response","249","786592","0.0-12.0-0.29","lqup64oma9","one_one","1","indirect_first","0","el07ph27","0","20","1","1","3","1","","0","1","0","3144","","","","","neg","CS","CS","1","category1/CS1.png","targets/44.png","","direct","","-16"
"","image-slider-response","250","790139","0.0-12.0-0.30","lqup64oma9","one_one","1","indirect_first","0","el07ph27","0","20","1","1","3","1","","0","1","0","3546","","","","","neg","GS","GSnew","1","category1/GS2.png","targets/26.png","","direct","","9"
"","image-slider-response","251","793326","0.0-12.0-0.31","lqup64oma9","one_one","1","indirect_first","0","el07ph27","0","20","1","1","3","1","","0","1","0","3185","","","","","neg","GS","abstract","1","category1/ma.png","targets/9.png","","direct","","-26"
"","survey-html-form","252","803257","0.0-13.0","lqup64oma9","one_one","1","indirect_first","0","el07ph27","0","20","1","1","3","1","","0","1","0","9930","","{}","","","","","","","","","","","",""
"","image-slider-response","253","814425","0.0-14.0-0.0","lqup64oma9","one_one","1","indirect_first","0","el07ph27","0","20","1","1","3","1","","0","1","0","10166","","","","","pos","All","all","4","category4/lin_all.png","","","all","","40"
"","image-slider-response","254","818545","0.0-14.0-0.1","lqup64oma9","one_one","1","indirect_first","0","el07ph27","0","20","1","1","3","1","","0","1","0","4120","","","","","neg","All","all","1","category1/ma_all.png","","","all","","26"
"","image-slider-response","255","821749","0.0-14.0-0.2","lqup64oma9","one_one","1","indirect_first","0","el07ph27","0","20","1","1","3","1","","0","1","0","3202","","","","","pos","All","all","3","category3/wang_all.png","","","all","","44"
"","image-slider-response","256","829947","0.0-14.0-0.3","lqup64oma9","one_one","1","indirect_first","0","el07ph27","0","20","1","1","3","1","","0","1","0","8198","","","","","neg","All","all","2","category2/men_all.png","","","all","","-10"
"","survey-text","257","835911","0.0-15.0","lqup64oma9","one_one","1","indirect_first","0","el07ph27","0","20","1","1","3","1","","0","1","0","5943","","{""comment"":""""}","","","","","","","","","","","",""
"","survey-html-form","258","856856","0.0-16.0","lqup64oma9","one_one","1","indirect_first","0","el07ph27","0","20","1","1","3","1","","0","1","0","20944","","{""hinschauen"":""0"",""ablenkung"":""1"",""gewissenhaft"":""0""}","","","","","","","","","","","",""
