"success","trial_type","trial_index","time_elapsed","internal_node_id","subject","condition","condition_code","measure","measure_code","codeword","gender","age","education","chinese","fach","handedness","comment","hinschauen","ablenkung","gewissenhaft","rt","url","responses","stimulus","key_press","val","type","type_specific","category","cs_selected","response","target","task","indirect","nr_pres"
"true","fullscreen","0","5468","0.0-0.0","c8gntmmyut","one_one","1","direct_first","1","rk06th10","0","24","1","1","3","1","","0","1","0","","","","","","","","","","","","","","",""
"","external-html","1","28682","0.0-1.0","c8gntmmyut","one_one","1","direct_first","1","rk06th10","0","24","1","1","3","1","","0","1","0","23155.950000000015","text/information.html","","","","","","","","","","","","",""
"","external-html","2","41037","0.0-2.0","c8gntmmyut","one_one","1","direct_first","1","rk06th10","0","24","1","1","3","1","","0","1","0","12246.949999999997","text/consent.html","","","","","","","","","","","","",""
"","survey-html-form","3","99126","0.0-3.0","c8gntmmyut","one_one","1","direct_first","1","rk06th10","0","24","1","1","3","1","","0","1","0","58084.795000000035","","{""codeword_enter"":""rk06th10""}","","","","","","","","","","","",""
"","survey-html-form","4","118115","0.0-4.0","c8gntmmyut","one_one","1","direct_first","1","rk06th10","0","24","1","1","3","1","","0","1","0","18984.910000000018","","{""age"":""24"",""education"":""1"",""subject"":""3"",""gender"":""0"",""handedness"":""1"",""chinese"":""1""}","","","","","","","","","","","",""
"","survey-html-form","5","120511","0.0-5.0","c8gntmmyut","one_one","1","direct_first","1","rk06th10","0","24","1","1","3","1","","0","1","0","2390.9199999999837","","{}","","","","","","","","","","","",""
"","html-keyboard-response","6","124520","0.0-6.0-0.0-0.0","c8gntmmyut","one_one","1","direct_first","1","rk06th10","0","24","1","1","3","1","","0","1","0","null","","","<div class = 'row'><div class = 'column'><img src = 'category4/CS3.png' width = '70%;'></div><div class = 'column'><img src = 'usneg/6570.1.bmp' width = '100%;'></div></div>","null","neg","CS","CS","4","category4/CS3.png","","","","",""
"","html-keyboard-response","7","127024","0.0-6.0-0.0-0.1","c8gntmmyut","one_one","1","direct_first","1","rk06th10","0","24","1","1","3","1","","0","1","0","null","","","<div class = 'row'><div class = 'column'><img src = 'category1/CS10.png' width = '70%;'></div><div class = 'column'><img src = 'usneg/9435.bmp' width = '100%;'></div></div>","null","neg","CS","CS","1","category1/CS10.png","","","","",""
"","html-keyboard-response","8","129535","0.0-6.0-0.0-0.2","c8gntmmyut","one_one","1","direct_first","1","rk06th10","0","24","1","1","3","1","","0","1","0","null","","","<div class = 'row'><div class = 'column'><img src = 'uspos/2341.bmp' width = '100%;'></div><div class = 'column'><img src = 'category3/CS1.png' width = '70%;'></div></div>","null","pos","CS","CS","3","category3/CS1.png","","","","",""
"","html-keyboard-response","9","132047","0.0-6.0-0.0-0.3","c8gntmmyut","one_one","1","direct_first","1","rk06th10","0","24","1","1","3","1","","0","1","0","null","","","<div class = 'row'><div class = 'column'><img src = 'uspos/4599.bmp' width = '100%;'></div><div class = 'column'><img src = 'category2/CS8.png' width = '70%;'></div></div>","null","pos","CS","CS","2","category2/CS8.png","","","","",""
"","html-keyboard-response","10","134560","0.0-6.0-0.0-0.4","c8gntmmyut","one_one","1","direct_first","1","rk06th10","0","24","1","1","3","1","","0","1","0","null","","","<div class = 'row'><div class = 'column'><img src = 'usneg/9435.bmp' width = '100%;'></div><div class = 'column'><img src = 'category1/CS10.png' width = '70%;'></div></div>","null","neg","CS","CS","1","category1/CS10.png","","","","",""
"","html-keyboard-response","11","137072","0.0-6.0-0.0-0.5","c8gntmmyut","one_one","1","direct_first","1","rk06th10","0","24","1","1","3","1","","0","1","0","null","","","<div class = 'row'><div class = 'column'><img src = 'category2/CS8.png' width = '70%;'></div><div class = 'column'><img src = 'uspos/4599.bmp' width = '100%;'></div></div>","null","pos","CS","CS","2","category2/CS8.png","","","","",""
"","html-keyboard-response","12","139584","0.0-6.0-0.0-0.6","c8gntmmyut","one_one","1","direct_first","1","rk06th10","0","24","1","1","3","1","","0","1","0","null","","","<div class = 'row'><div class = 'column'><img src = 'category4/CS3.png' width = '70%;'></div><div class = 'column'><img src = 'usneg/6570.1.bmp' width = '100%;'></div></div>","null","neg","CS","CS","4","category4/CS3.png","","","","",""
"","html-keyboard-response","13","142091","0.0-6.0-0.0-0.7","c8gntmmyut","one_one","1","direct_first","1","rk06th10","0","24","1","1","3","1","","0","1","0","null","","","<div class = 'row'><div class = 'column'><img src = 'uspos/4599.bmp' width = '100%;'></div><div class = 'column'><img src = 'category2/CS8.png' width = '70%;'></div></div>","null","pos","CS","CS","2","category2/CS8.png","","","","",""
"","html-keyboard-response","14","144603","0.0-6.0-0.0-0.8","c8gntmmyut","one_one","1","direct_first","1","rk06th10","0","24","1","1","3","1","","0","1","0","null","","","<div class = 'row'><div class = 'column'><img src = 'uspos/2341.bmp' width = '100%;'></div><div class = 'column'><img src = 'category3/CS1.png' width = '70%;'></div></div>","null","pos","CS","CS","3","category3/CS1.png","","","","",""
"","html-keyboard-response","15","147112","0.0-6.0-0.0-0.9","c8gntmmyut","one_one","1","direct_first","1","rk06th10","0","24","1","1","3","1","","0","1","0","null","","","<div class = 'row'><div class = 'column'><img src = 'usneg/9435.bmp' width = '100%;'></div><div class = 'column'><img src = 'category1/CS10.png' width = '70%;'></div></div>","null","neg","CS","CS","1","category1/CS10.png","","","","",""
"","html-keyboard-response","16","149620","0.0-6.0-0.0-0.10","c8gntmmyut","one_one","1","direct_first","1","rk06th10","0","24","1","1","3","1","","0","1","0","null","","","<div class = 'row'><div class = 'column'><img src = 'category3/CS1.png' width = '70%;'></div><div class = 'column'><img src = 'uspos/2341.bmp' width = '100%;'></div></div>","null","pos","CS","CS","3","category3/CS1.png","","","","",""
"","html-keyboard-response","17","152125","0.0-6.0-0.0-0.11","c8gntmmyut","one_one","1","direct_first","1","rk06th10","0","24","1","1","3","1","","0","1","0","null","","","<div class = 'row'><div class = 'column'><img src = 'category1/CS10.png' width = '70%;'></div><div class = 'column'><img src = 'usneg/9435.bmp' width = '100%;'></div></div>","null","neg","CS","CS","1","category1/CS10.png","","","","",""
"","html-keyboard-response","18","154634","0.0-6.0-0.0-0.12","c8gntmmyut","one_one","1","direct_first","1","rk06th10","0","24","1","1","3","1","","0","1","0","null","","","<div class = 'row'><div class = 'column'><img src = 'category3/CS1.png' width = '70%;'></div><div class = 'column'><img src = 'uspos/2341.bmp' width = '100%;'></div></div>","null","pos","CS","CS","3","category3/CS1.png","","","","",""
"","html-keyboard-response","19","157145","0.0-6.0-0.0-0.13","c8gntmmyut","one_one","1","direct_first","1","rk06th10","0","24","1","1","3","1","","0","1","0","null","","","<div class = 'row'><div class = 'column'><img src = 'usneg/6570.1.bmp' width = '100%;'></div><div class = 'column'><img src = 'category4/CS3.png' width = '70%;'></div></div>","null","neg","CS","CS","4","category4/CS3.png","","","","",""
"","html-keyboard-response","20","159657","0.0-6.0-0.0-0.14","c8gntmmyut","one_one","1","direct_first","1","rk06th10","0","24","1","1","3","1","","0","1","0","null","","","<div class = 'row'><div class = 'column'><img src = 'uspos/4599.bmp' width = '100%;'></div><div class = 'column'><img src = 'category2/CS8.png' width = '70%;'></div></div>","null","pos","CS","CS","2","category2/CS8.png","","","","",""
"","html-keyboard-response","21","162169","0.0-6.0-0.0-0.15","c8gntmmyut","one_one","1","direct_first","1","rk06th10","0","24","1","1","3","1","","0","1","0","null","","","<div class = 'row'><div class = 'column'><img src = 'usneg/6570.1.bmp' width = '100%;'></div><div class = 'column'><img src = 'category4/CS3.png' width = '70%;'></div></div>","null","neg","CS","CS","4","category4/CS3.png","","","","",""
"","html-keyboard-response","22","164681","0.0-6.0-0.0-0.16","c8gntmmyut","one_one","1","direct_first","1","rk06th10","0","24","1","1","3","1","","0","1","0","null","","","<div class = 'row'><div class = 'column'><img src = 'uspos/4599.bmp' width = '100%;'></div><div class = 'column'><img src = 'category2/CS8.png' width = '70%;'></div></div>","null","pos","CS","CS","2","category2/CS8.png","","","","",""
"","html-keyboard-response","23","167193","0.0-6.0-0.0-0.17","c8gntmmyut","one_one","1","direct_first","1","rk06th10","0","24","1","1","3","1","","0","1","0","null","","","<div class = 'row'><div class = 'column'><img src = 'category1/CS10.png' width = '70%;'></div><div class = 'column'><img src = 'usneg/9435.bmp' width = '100%;'></div></div>","null","neg","CS","CS","1","category1/CS10.png","","","","",""
"","html-keyboard-response","24","169705","0.0-6.0-0.0-0.18","c8gntmmyut","one_one","1","direct_first","1","rk06th10","0","24","1","1","3","1","","0","1","0","null","","","<div class = 'row'><div class = 'column'><img src = 'category3/CS1.png' width = '70%;'></div><div class = 'column'><img src = 'uspos/2341.bmp' width = '100%;'></div></div>","null","pos","CS","CS","3","category3/CS1.png","","","","",""
"","html-keyboard-response","25","172218","0.0-6.0-0.0-0.19","c8gntmmyut","one_one","1","direct_first","1","rk06th10","0","24","1","1","3","1","","0","1","0","null","","","<div class = 'row'><div class = 'column'><img src = 'usneg/6570.1.bmp' width = '100%;'></div><div class = 'column'><img src = 'category4/CS3.png' width = '70%;'></div></div>","null","neg","CS","CS","4","category4/CS3.png","","","","",""
"","survey-html-form","26","174506","0.0-6.0-1.0","c8gntmmyut","one_one","1","direct_first","1","rk06th10","0","24","1","1","3","1","","0","1","0","1782.7249999999767","","{}","","","","","","","","","","","",""
"","html-keyboard-response","27","178514","0.0-6.0-2.0-0.0","c8gntmmyut","one_one","1","direct_first","1","rk06th10","0","24","1","1","3","1","","0","1","0","null","","","<div class = 'row'><div class = 'column'><img src = 'uspos/4599.bmp' width = '100%;'></div><div class = 'column'><img src = 'category2/CS8.png' width = '70%;'></div></div>","null","pos","CS","CS","2","category2/CS8.png","","","","",""
"","html-keyboard-response","28","181026","0.0-6.0-2.0-0.1","c8gntmmyut","one_one","1","direct_first","1","rk06th10","0","24","1","1","3","1","","0","1","0","null","","","<div class = 'row'><div class = 'column'><img src = 'usneg/6570.1.bmp' width = '100%;'></div><div class = 'column'><img src = 'category4/CS3.png' width = '70%;'></div></div>","null","neg","CS","CS","4","category4/CS3.png","","","","",""
"","html-keyboard-response","29","183538","0.0-6.0-2.0-0.2","c8gntmmyut","one_one","1","direct_first","1","rk06th10","0","24","1","1","3","1","","0","1","0","null","","","<div class = 'row'><div class = 'column'><img src = 'usneg/9435.bmp' width = '100%;'></div><div class = 'column'><img src = 'category1/CS10.png' width = '70%;'></div></div>","null","neg","CS","CS","1","category1/CS10.png","","","","",""
"","html-keyboard-response","30","186050","0.0-6.0-2.0-0.3","c8gntmmyut","one_one","1","direct_first","1","rk06th10","0","24","1","1","3","1","","0","1","0","null","","","<div class = 'row'><div class = 'column'><img src = 'category3/CS1.png' width = '70%;'></div><div class = 'column'><img src = 'uspos/2341.bmp' width = '100%;'></div></div>","null","pos","CS","CS","3","category3/CS1.png","","","","",""
"","html-keyboard-response","31","188557","0.0-6.0-2.0-0.4","c8gntmmyut","one_one","1","direct_first","1","rk06th10","0","24","1","1","3","1","","0","1","0","null","","","<div class = 'row'><div class = 'column'><img src = 'category1/CS10.png' width = '70%;'></div><div class = 'column'><img src = 'usneg/9435.bmp' width = '100%;'></div></div>","null","neg","CS","CS","1","category1/CS10.png","","","","",""
"","html-keyboard-response","32","191064","0.0-6.0-2.0-0.5","c8gntmmyut","one_one","1","direct_first","1","rk06th10","0","24","1","1","3","1","","0","1","0","null","","","<div class = 'row'><div class = 'column'><img src = 'uspos/2341.bmp' width = '100%;'></div><div class = 'column'><img src = 'category3/CS1.png' width = '70%;'></div></div>","null","pos","CS","CS","3","category3/CS1.png","","","","",""
"","html-keyboard-response","33","193576","0.0-6.0-2.0-0.6","c8gntmmyut","one_one","1","direct_first","1","rk06th10","0","24","1","1","3","1","","0","1","0","null","","","<div class = 'row'><div class = 'column'><img src = 'category2/CS8.png' width = '70%;'></div><div class = 'column'><img src = 'uspos/4599.bmp' width = '100%;'></div></div>","null","pos","CS","CS","2","category2/CS8.png","","","","",""
"","html-keyboard-response","34","196088","0.0-6.0-2.0-0.7","c8gntmmyut","one_one","1","direct_first","1","rk06th10","0","24","1","1","3","1","","0","1","0","null","","","<div class = 'row'><div class = 'column'><img src = 'uspos/2341.bmp' width = '100%;'></div><div class = 'column'><img src = 'category3/CS1.png' width = '70%;'></div></div>","null","pos","CS","CS","3","category3/CS1.png","","","","",""
"","html-keyboard-response","35","198600","0.0-6.0-2.0-0.8","c8gntmmyut","one_one","1","direct_first","1","rk06th10","0","24","1","1","3","1","","0","1","0","null","","","<div class = 'row'><div class = 'column'><img src = 'uspos/4599.bmp' width = '100%;'></div><div class = 'column'><img src = 'category2/CS8.png' width = '70%;'></div></div>","null","pos","CS","CS","2","category2/CS8.png","","","","",""
"","html-keyboard-response","36","201110","0.0-6.0-2.0-0.9","c8gntmmyut","one_one","1","direct_first","1","rk06th10","0","24","1","1","3","1","","0","1","0","null","","","<div class = 'row'><div class = 'column'><img src = 'category1/CS10.png' width = '70%;'></div><div class = 'column'><img src = 'usneg/9435.bmp' width = '100%;'></div></div>","null","neg","CS","CS","1","category1/CS10.png","","","","",""
"","html-keyboard-response","37","203622","0.0-6.0-2.0-0.10","c8gntmmyut","one_one","1","direct_first","1","rk06th10","0","24","1","1","3","1","","0","1","0","null","","","<div class = 'row'><div class = 'column'><img src = 'usneg/6570.1.bmp' width = '100%;'></div><div class = 'column'><img src = 'category4/CS3.png' width = '70%;'></div></div>","null","neg","CS","CS","4","category4/CS3.png","","","","",""
"","html-keyboard-response","38","206134","0.0-6.0-2.0-0.11","c8gntmmyut","one_one","1","direct_first","1","rk06th10","0","24","1","1","3","1","","0","1","0","null","","","<div class = 'row'><div class = 'column'><img src = 'category3/CS1.png' width = '70%;'></div><div class = 'column'><img src = 'uspos/2341.bmp' width = '100%;'></div></div>","null","pos","CS","CS","3","category3/CS1.png","","","","",""
"","html-keyboard-response","39","208646","0.0-6.0-2.0-0.12","c8gntmmyut","one_one","1","direct_first","1","rk06th10","0","24","1","1","3","1","","0","1","0","null","","","<div class = 'row'><div class = 'column'><img src = 'category4/CS3.png' width = '70%;'></div><div class = 'column'><img src = 'usneg/6570.1.bmp' width = '100%;'></div></div>","null","neg","CS","CS","4","category4/CS3.png","","","","",""
"","html-keyboard-response","40","211159","0.0-6.0-2.0-0.13","c8gntmmyut","one_one","1","direct_first","1","rk06th10","0","24","1","1","3","1","","0","1","0","null","","","<div class = 'row'><div class = 'column'><img src = 'category3/CS1.png' width = '70%;'></div><div class = 'column'><img src = 'uspos/2341.bmp' width = '100%;'></div></div>","null","pos","CS","CS","3","category3/CS1.png","","","","",""
"","html-keyboard-response","41","213671","0.0-6.0-2.0-0.14","c8gntmmyut","one_one","1","direct_first","1","rk06th10","0","24","1","1","3","1","","0","1","0","null","","","<div class = 'row'><div class = 'column'><img src = 'category2/CS8.png' width = '70%;'></div><div class = 'column'><img src = 'uspos/4599.bmp' width = '100%;'></div></div>","null","pos","CS","CS","2","category2/CS8.png","","","","",""
"","html-keyboard-response","42","216183","0.0-6.0-2.0-0.15","c8gntmmyut","one_one","1","direct_first","1","rk06th10","0","24","1","1","3","1","","0","1","0","null","","","<div class = 'row'><div class = 'column'><img src = 'category4/CS3.png' width = '70%;'></div><div class = 'column'><img src = 'usneg/6570.1.bmp' width = '100%;'></div></div>","null","neg","CS","CS","4","category4/CS3.png","","","","",""
"","html-keyboard-response","43","218695","0.0-6.0-2.0-0.16","c8gntmmyut","one_one","1","direct_first","1","rk06th10","0","24","1","1","3","1","","0","1","0","null","","","<div class = 'row'><div class = 'column'><img src = 'usneg/9435.bmp' width = '100%;'></div><div class = 'column'><img src = 'category1/CS10.png' width = '70%;'></div></div>","null","neg","CS","CS","1","category1/CS10.png","","","","",""
"","html-keyboard-response","44","221207","0.0-6.0-2.0-0.17","c8gntmmyut","one_one","1","direct_first","1","rk06th10","0","24","1","1","3","1","","0","1","0","null","","","<div class = 'row'><div class = 'column'><img src = 'uspos/4599.bmp' width = '100%;'></div><div class = 'column'><img src = 'category2/CS8.png' width = '70%;'></div></div>","null","pos","CS","CS","2","category2/CS8.png","","","","",""
"","html-keyboard-response","45","223719","0.0-6.0-2.0-0.18","c8gntmmyut","one_one","1","direct_first","1","rk06th10","0","24","1","1","3","1","","0","1","0","null","","","<div class = 'row'><div class = 'column'><img src = 'category4/CS3.png' width = '70%;'></div><div class = 'column'><img src = 'usneg/6570.1.bmp' width = '100%;'></div></div>","null","neg","CS","CS","4","category4/CS3.png","","","","",""
"","html-keyboard-response","46","226231","0.0-6.0-2.0-0.19","c8gntmmyut","one_one","1","direct_first","1","rk06th10","0","24","1","1","3","1","","0","1","0","null","","","<div class = 'row'><div class = 'column'><img src = 'usneg/9435.bmp' width = '100%;'></div><div class = 'column'><img src = 'category1/CS10.png' width = '70%;'></div></div>","null","neg","CS","CS","1","category1/CS10.png","","","","",""
"","survey-html-form","47","230756","0.0-6.0-3.0","c8gntmmyut","one_one","1","direct_first","1","rk06th10","0","24","1","1","3","1","","0","1","0","4022.6450000000186","","{}","","","","","","","","","","","",""
"","html-keyboard-response","48","234763","0.0-6.0-4.0-0.0","c8gntmmyut","one_one","1","direct_first","1","rk06th10","0","24","1","1","3","1","","0","1","0","null","","","<div class = 'row'><div class = 'column'><img src = 'uspos/2341.bmp' width = '100%;'></div><div class = 'column'><img src = 'category3/CS1.png' width = '70%;'></div></div>","null","pos","CS","CS","3","category3/CS1.png","","","","",""
"","html-keyboard-response","49","237270","0.0-6.0-4.0-0.1","c8gntmmyut","one_one","1","direct_first","1","rk06th10","0","24","1","1","3","1","","0","1","0","null","","","<div class = 'row'><div class = 'column'><img src = 'uspos/4599.bmp' width = '100%;'></div><div class = 'column'><img src = 'category2/CS8.png' width = '70%;'></div></div>","null","pos","CS","CS","2","category2/CS8.png","","","","",""
"","html-keyboard-response","50","239780","0.0-6.0-4.0-0.2","c8gntmmyut","one_one","1","direct_first","1","rk06th10","0","24","1","1","3","1","","0","1","0","null","","","<div class = 'row'><div class = 'column'><img src = 'usneg/9435.bmp' width = '100%;'></div><div class = 'column'><img src = 'category1/CS10.png' width = '70%;'></div></div>","null","neg","CS","CS","1","category1/CS10.png","","","","",""
"","html-keyboard-response","51","242290","0.0-6.0-4.0-0.3","c8gntmmyut","one_one","1","direct_first","1","rk06th10","0","24","1","1","3","1","","0","1","0","null","","","<div class = 'row'><div class = 'column'><img src = 'category3/CS1.png' width = '70%;'></div><div class = 'column'><img src = 'uspos/2341.bmp' width = '100%;'></div></div>","null","pos","CS","CS","3","category3/CS1.png","","","","",""
"","html-keyboard-response","52","244793","0.0-6.0-4.0-0.4","c8gntmmyut","one_one","1","direct_first","1","rk06th10","0","24","1","1","3","1","","0","1","0","null","","","<div class = 'row'><div class = 'column'><img src = 'usneg/6570.1.bmp' width = '100%;'></div><div class = 'column'><img src = 'category4/CS3.png' width = '70%;'></div></div>","null","neg","CS","CS","4","category4/CS3.png","","","","",""
"","html-keyboard-response","53","247298","0.0-6.0-4.0-0.5","c8gntmmyut","one_one","1","direct_first","1","rk06th10","0","24","1","1","3","1","","0","1","0","null","","","<div class = 'row'><div class = 'column'><img src = 'usneg/9435.bmp' width = '100%;'></div><div class = 'column'><img src = 'category1/CS10.png' width = '70%;'></div></div>","null","neg","CS","CS","1","category1/CS10.png","","","","",""
"","html-keyboard-response","54","249811","0.0-6.0-4.0-0.6","c8gntmmyut","one_one","1","direct_first","1","rk06th10","0","24","1","1","3","1","","0","1","0","null","","","<div class = 'row'><div class = 'column'><img src = 'category3/CS1.png' width = '70%;'></div><div class = 'column'><img src = 'uspos/2341.bmp' width = '100%;'></div></div>","null","pos","CS","CS","3","category3/CS1.png","","","","",""
"","html-keyboard-response","55","252321","0.0-6.0-4.0-0.7","c8gntmmyut","one_one","1","direct_first","1","rk06th10","0","24","1","1","3","1","","0","1","0","null","","","<div class = 'row'><div class = 'column'><img src = 'category2/CS8.png' width = '70%;'></div><div class = 'column'><img src = 'uspos/4599.bmp' width = '100%;'></div></div>","null","pos","CS","CS","2","category2/CS8.png","","","","",""
"","html-keyboard-response","56","254832","0.0-6.0-4.0-0.8","c8gntmmyut","one_one","1","direct_first","1","rk06th10","0","24","1","1","3","1","","0","1","0","null","","","<div class = 'row'><div class = 'column'><img src = 'uspos/2341.bmp' width = '100%;'></div><div class = 'column'><img src = 'category3/CS1.png' width = '70%;'></div></div>","null","pos","CS","CS","3","category3/CS1.png","","","","",""
"","html-keyboard-response","57","257344","0.0-6.0-4.0-0.9","c8gntmmyut","one_one","1","direct_first","1","rk06th10","0","24","1","1","3","1","","0","1","0","null","","","<div class = 'row'><div class = 'column'><img src = 'usneg/9435.bmp' width = '100%;'></div><div class = 'column'><img src = 'category1/CS10.png' width = '70%;'></div></div>","null","neg","CS","CS","1","category1/CS10.png","","","","",""
"","html-keyboard-response","58","259848","0.0-6.0-4.0-0.10","c8gntmmyut","one_one","1","direct_first","1","rk06th10","0","24","1","1","3","1","","0","1","0","null","","","<div class = 'row'><div class = 'column'><img src = 'category3/CS1.png' width = '70%;'></div><div class = 'column'><img src = 'uspos/2341.bmp' width = '100%;'></div></div>","null","pos","CS","CS","3","category3/CS1.png","","","","",""
"","html-keyboard-response","59","262361","0.0-6.0-4.0-0.11","c8gntmmyut","one_one","1","direct_first","1","rk06th10","0","24","1","1","3","1","","0","1","0","null","","","<div class = 'row'><div class = 'column'><img src = 'category2/CS8.png' width = '70%;'></div><div class = 'column'><img src = 'uspos/4599.bmp' width = '100%;'></div></div>","null","pos","CS","CS","2","category2/CS8.png","","","","",""
"","html-keyboard-response","60","264874","0.0-6.0-4.0-0.12","c8gntmmyut","one_one","1","direct_first","1","rk06th10","0","24","1","1","3","1","","0","1","0","null","","","<div class = 'row'><div class = 'column'><img src = 'usneg/6570.1.bmp' width = '100%;'></div><div class = 'column'><img src = 'category4/CS3.png' width = '70%;'></div></div>","null","neg","CS","CS","4","category4/CS3.png","","","","",""
"","html-keyboard-response","61","267386","0.0-6.0-4.0-0.13","c8gntmmyut","one_one","1","direct_first","1","rk06th10","0","24","1","1","3","1","","0","1","0","null","","","<div class = 'row'><div class = 'column'><img src = 'category2/CS8.png' width = '70%;'></div><div class = 'column'><img src = 'uspos/4599.bmp' width = '100%;'></div></div>","null","pos","CS","CS","2","category2/CS8.png","","","","",""
"","html-keyboard-response","62","269890","0.0-6.0-4.0-0.14","c8gntmmyut","one_one","1","direct_first","1","rk06th10","0","24","1","1","3","1","","0","1","0","null","","","<div class = 'row'><div class = 'column'><img src = 'category4/CS3.png' width = '70%;'></div><div class = 'column'><img src = 'usneg/6570.1.bmp' width = '100%;'></div></div>","null","neg","CS","CS","4","category4/CS3.png","","","","",""
"","html-keyboard-response","63","272402","0.0-6.0-4.0-0.15","c8gntmmyut","one_one","1","direct_first","1","rk06th10","0","24","1","1","3","1","","0","1","0","null","","","<div class = 'row'><div class = 'column'><img src = 'category2/CS8.png' width = '70%;'></div><div class = 'column'><img src = 'uspos/4599.bmp' width = '100%;'></div></div>","null","pos","CS","CS","2","category2/CS8.png","","","","",""
"","html-keyboard-response","64","274910","0.0-6.0-4.0-0.16","c8gntmmyut","one_one","1","direct_first","1","rk06th10","0","24","1","1","3","1","","0","1","0","null","","","<div class = 'row'><div class = 'column'><img src = 'category1/CS10.png' width = '70%;'></div><div class = 'column'><img src = 'usneg/9435.bmp' width = '100%;'></div></div>","null","neg","CS","CS","1","category1/CS10.png","","","","",""
"","html-keyboard-response","65","277421","0.0-6.0-4.0-0.17","c8gntmmyut","one_one","1","direct_first","1","rk06th10","0","24","1","1","3","1","","0","1","0","null","","","<div class = 'row'><div class = 'column'><img src = 'category4/CS3.png' width = '70%;'></div><div class = 'column'><img src = 'usneg/6570.1.bmp' width = '100%;'></div></div>","null","neg","CS","CS","4","category4/CS3.png","","","","",""
"","html-keyboard-response","66","279933","0.0-6.0-4.0-0.18","c8gntmmyut","one_one","1","direct_first","1","rk06th10","0","24","1","1","3","1","","0","1","0","null","","","<div class = 'row'><div class = 'column'><img src = 'usneg/9435.bmp' width = '100%;'></div><div class = 'column'><img src = 'category1/CS10.png' width = '70%;'></div></div>","null","neg","CS","CS","1","category1/CS10.png","","","","",""
"","html-keyboard-response","67","282437","0.0-6.0-4.0-0.19","c8gntmmyut","one_one","1","direct_first","1","rk06th10","0","24","1","1","3","1","","0","1","0","null","","","<div class = 'row'><div class = 'column'><img src = 'usneg/6570.1.bmp' width = '100%;'></div><div class = 'column'><img src = 'category4/CS3.png' width = '70%;'></div></div>","null","neg","CS","CS","4","category4/CS3.png","","","","",""
"","survey-html-form","68","287404","0.0-6.0-5.0","c8gntmmyut","one_one","1","direct_first","1","rk06th10","0","24","1","1","3","1","","0","1","0","4460.649999999965","","{}","","","","","","","","","","","",""
"","html-keyboard-response","69","291413","0.0-6.0-6.0-0.0","c8gntmmyut","one_one","1","direct_first","1","rk06th10","0","24","1","1","3","1","","0","1","0","null","","","<div class = 'row'><div class = 'column'><img src = 'uspos/2341.bmp' width = '100%;'></div><div class = 'column'><img src = 'category3/CS1.png' width = '70%;'></div></div>","null","pos","CS","CS","3","category3/CS1.png","","","","",""
"","html-keyboard-response","70","293925","0.0-6.0-6.0-0.1","c8gntmmyut","one_one","1","direct_first","1","rk06th10","0","24","1","1","3","1","","0","1","0","null","","","<div class = 'row'><div class = 'column'><img src = 'uspos/4599.bmp' width = '100%;'></div><div class = 'column'><img src = 'category2/CS8.png' width = '70%;'></div></div>","null","pos","CS","CS","2","category2/CS8.png","","","","",""
"","html-keyboard-response","71","296437","0.0-6.0-6.0-0.2","c8gntmmyut","one_one","1","direct_first","1","rk06th10","0","24","1","1","3","1","","0","1","0","null","","","<div class = 'row'><div class = 'column'><img src = 'category4/CS3.png' width = '70%;'></div><div class = 'column'><img src = 'usneg/6570.1.bmp' width = '100%;'></div></div>","null","neg","CS","CS","4","category4/CS3.png","","","","",""
"","html-keyboard-response","72","298945","0.0-6.0-6.0-0.3","c8gntmmyut","one_one","1","direct_first","1","rk06th10","0","24","1","1","3","1","","0","1","0","null","","","<div class = 'row'><div class = 'column'><img src = 'category3/CS1.png' width = '70%;'></div><div class = 'column'><img src = 'uspos/2341.bmp' width = '100%;'></div></div>","null","pos","CS","CS","3","category3/CS1.png","","","","",""
"","html-keyboard-response","73","301453","0.0-6.0-6.0-0.4","c8gntmmyut","one_one","1","direct_first","1","rk06th10","0","24","1","1","3","1","","0","1","0","null","","","<div class = 'row'><div class = 'column'><img src = 'category4/CS3.png' width = '70%;'></div><div class = 'column'><img src = 'usneg/6570.1.bmp' width = '100%;'></div></div>","null","neg","CS","CS","4","category4/CS3.png","","","","",""
"","html-keyboard-response","74","303965","0.0-6.0-6.0-0.5","c8gntmmyut","one_one","1","direct_first","1","rk06th10","0","24","1","1","3","1","","0","1","0","null","","","<div class = 'row'><div class = 'column'><img src = 'uspos/4599.bmp' width = '100%;'></div><div class = 'column'><img src = 'category2/CS8.png' width = '70%;'></div></div>","null","pos","CS","CS","2","category2/CS8.png","","","","",""
"","html-keyboard-response","75","306473","0.0-6.0-6.0-0.6","c8gntmmyut","one_one","1","direct_first","1","rk06th10","0","24","1","1","3","1","","0","1","0","null","","","<div class = 'row'><div class = 'column'><img src = 'usneg/6570.1.bmp' width = '100%;'></div><div class = 'column'><img src = 'category4/CS3.png' width = '70%;'></div></div>","null","neg","CS","CS","4","category4/CS3.png","","","","",""
"","html-keyboard-response","76","308985","0.0-6.0-6.0-0.7","c8gntmmyut","one_one","1","direct_first","1","rk06th10","0","24","1","1","3","1","","0","1","0","null","","","<div class = 'row'><div class = 'column'><img src = 'uspos/2341.bmp' width = '100%;'></div><div class = 'column'><img src = 'category3/CS1.png' width = '70%;'></div></div>","null","pos","CS","CS","3","category3/CS1.png","","","","",""
"","html-keyboard-response","77","311497","0.0-6.0-6.0-0.8","c8gntmmyut","one_one","1","direct_first","1","rk06th10","0","24","1","1","3","1","","0","1","0","null","","","<div class = 'row'><div class = 'column'><img src = 'category1/CS10.png' width = '70%;'></div><div class = 'column'><img src = 'usneg/9435.bmp' width = '100%;'></div></div>","null","neg","CS","CS","1","category1/CS10.png","","","","",""
"","html-keyboard-response","78","314009","0.0-6.0-6.0-0.9","c8gntmmyut","one_one","1","direct_first","1","rk06th10","0","24","1","1","3","1","","0","1","0","null","","","<div class = 'row'><div class = 'column'><img src = 'category2/CS8.png' width = '70%;'></div><div class = 'column'><img src = 'uspos/4599.bmp' width = '100%;'></div></div>","null","pos","CS","CS","2","category2/CS8.png","","","","",""
"","html-keyboard-response","79","316521","0.0-6.0-6.0-0.10","c8gntmmyut","one_one","1","direct_first","1","rk06th10","0","24","1","1","3","1","","0","1","0","null","","","<div class = 'row'><div class = 'column'><img src = 'category4/CS3.png' width = '70%;'></div><div class = 'column'><img src = 'usneg/6570.1.bmp' width = '100%;'></div></div>","null","neg","CS","CS","4","category4/CS3.png","","","","",""
"","html-keyboard-response","80","319033","0.0-6.0-6.0-0.11","c8gntmmyut","one_one","1","direct_first","1","rk06th10","0","24","1","1","3","1","","0","1","0","null","","","<div class = 'row'><div class = 'column'><img src = 'usneg/9435.bmp' width = '100%;'></div><div class = 'column'><img src = 'category1/CS10.png' width = '70%;'></div></div>","null","neg","CS","CS","1","category1/CS10.png","","","","",""
"","html-keyboard-response","81","321546","0.0-6.0-6.0-0.12","c8gntmmyut","one_one","1","direct_first","1","rk06th10","0","24","1","1","3","1","","0","1","0","null","","","<div class = 'row'><div class = 'column'><img src = 'usneg/6570.1.bmp' width = '100%;'></div><div class = 'column'><img src = 'category4/CS3.png' width = '70%;'></div></div>","null","neg","CS","CS","4","category4/CS3.png","","","","",""
"","html-keyboard-response","82","324053","0.0-6.0-6.0-0.13","c8gntmmyut","one_one","1","direct_first","1","rk06th10","0","24","1","1","3","1","","0","1","0","null","","","<div class = 'row'><div class = 'column'><img src = 'category1/CS10.png' width = '70%;'></div><div class = 'column'><img src = 'usneg/9435.bmp' width = '100%;'></div></div>","null","neg","CS","CS","1","category1/CS10.png","","","","",""
"","html-keyboard-response","83","326565","0.0-6.0-6.0-0.14","c8gntmmyut","one_one","1","direct_first","1","rk06th10","0","24","1","1","3","1","","0","1","0","null","","","<div class = 'row'><div class = 'column'><img src = 'category3/CS1.png' width = '70%;'></div><div class = 'column'><img src = 'uspos/2341.bmp' width = '100%;'></div></div>","null","pos","CS","CS","3","category3/CS1.png","","","","",""
"","html-keyboard-response","84","329070","0.0-6.0-6.0-0.15","c8gntmmyut","one_one","1","direct_first","1","rk06th10","0","24","1","1","3","1","","0","1","0","null","","","<div class = 'row'><div class = 'column'><img src = 'category2/CS8.png' width = '70%;'></div><div class = 'column'><img src = 'uspos/4599.bmp' width = '100%;'></div></div>","null","pos","CS","CS","2","category2/CS8.png","","","","",""
"","html-keyboard-response","85","331579","0.0-6.0-6.0-0.16","c8gntmmyut","one_one","1","direct_first","1","rk06th10","0","24","1","1","3","1","","0","1","0","null","","","<div class = 'row'><div class = 'column'><img src = 'usneg/9435.bmp' width = '100%;'></div><div class = 'column'><img src = 'category1/CS10.png' width = '70%;'></div></div>","null","neg","CS","CS","1","category1/CS10.png","","","","",""
"","html-keyboard-response","86","334091","0.0-6.0-6.0-0.17","c8gntmmyut","one_one","1","direct_first","1","rk06th10","0","24","1","1","3","1","","0","1","0","null","","","<div class = 'row'><div class = 'column'><img src = 'uspos/4599.bmp' width = '100%;'></div><div class = 'column'><img src = 'category2/CS8.png' width = '70%;'></div></div>","null","pos","CS","CS","2","category2/CS8.png","","","","",""
"","html-keyboard-response","87","336603","0.0-6.0-6.0-0.18","c8gntmmyut","one_one","1","direct_first","1","rk06th10","0","24","1","1","3","1","","0","1","0","null","","","<div class = 'row'><div class = 'column'><img src = 'category1/CS10.png' width = '70%;'></div><div class = 'column'><img src = 'usneg/9435.bmp' width = '100%;'></div></div>","null","neg","CS","CS","1","category1/CS10.png","","","","",""
"","html-keyboard-response","88","339115","0.0-6.0-6.0-0.19","c8gntmmyut","one_one","1","direct_first","1","rk06th10","0","24","1","1","3","1","","0","1","0","null","","","<div class = 'row'><div class = 'column'><img src = 'category3/CS1.png' width = '70%;'></div><div class = 'column'><img src = 'uspos/2341.bmp' width = '100%;'></div></div>","null","pos","CS","CS","3","category3/CS1.png","","","","",""
"","survey-html-form","89","346986","0.0-7.0","c8gntmmyut","one_one","1","direct_first","1","rk06th10","0","24","1","1","3","1","","0","1","0","7364.820000000007","","{}","","","","","","","","","","","",""
"","image-slider-response","90","359944","0.0-8.0-0.0","c8gntmmyut","one_one","1","direct_first","1","rk06th10","0","24","1","1","3","1","","0","1","0","10950.339999999967","","","","","neg","GS","GSold","4","category4/CS10.png","8","targets/18.png","direct","",""
"","image-slider-response","91","363186","0.0-8.0-0.1","c8gntmmyut","one_one","1","direct_first","1","rk06th10","0","24","1","1","3","1","","0","1","0","3240.2700000000186","","","","","neg","CS","CS","1","category1/CS10.png","-29","targets/35.png","direct","",""
"","image-slider-response","92","365946","0.0-8.0-0.2","c8gntmmyut","one_one","1","direct_first","1","rk06th10","0","24","1","1","3","1","","0","1","0","2758.6450000000186","","","","","pos","GS","GSold","2","category2/CS4.png","33","targets/17.png","direct","",""
"","image-slider-response","93","369485","0.0-8.0-0.3","c8gntmmyut","one_one","1","direct_first","1","rk06th10","0","24","1","1","3","1","","0","1","0","3538.3099999999977","","","","","pos","GS","abstract","2","category2/men.png","38","targets/23.png","direct","",""
"","image-slider-response","94","373284","0.0-8.0-0.4","c8gntmmyut","one_one","1","direct_first","1","rk06th10","0","24","1","1","3","1","","0","1","0","3797.265000000014","","","","","pos","GS","GSold","3","category3/CS3.png","-32","targets/11.png","direct","",""
"","image-slider-response","95","376392","0.0-8.0-0.5","c8gntmmyut","one_one","1","direct_first","1","rk06th10","0","24","1","1","3","1","","0","1","0","3106.445000000007","","","","","neg","GS","GSnew","1","category1/GS1.png","-32","targets/5.png","direct","",""
"","image-slider-response","96","379245","0.0-8.0-0.6","c8gntmmyut","one_one","1","direct_first","1","rk06th10","0","24","1","1","3","1","","0","1","0","2852.079999999958","","","","","pos","GS","GSold","2","category2/CS3.png","27","targets/4.png","direct","",""
"","image-slider-response","97","384231","0.0-8.0-0.7","c8gntmmyut","one_one","1","direct_first","1","rk06th10","0","24","1","1","3","1","","0","1","0","4984.864999999991","","","","","neg","GS","GSold","1","category1/CS4.png","27","targets/47.png","direct","",""
"","image-slider-response","98","387794","0.0-8.0-0.8","c8gntmmyut","one_one","1","direct_first","1","rk06th10","0","24","1","1","3","1","","0","1","0","3561.320000000007","","","","","pos","GS","GSnew","2","category2/GS2.png","11","targets/45.png","direct","",""
"","image-slider-response","99","390812","0.0-8.0-0.9","c8gntmmyut","one_one","1","direct_first","1","rk06th10","0","24","1","1","3","1","","0","1","0","3017.2449999999953","","","","","neg","GS","GSold","1","category1/CS9.png","-17","targets/19.png","direct","",""
"","image-slider-response","100","393121","0.0-8.0-0.10","c8gntmmyut","one_one","1","direct_first","1","rk06th10","0","24","1","1","3","1","","0","1","0","2307.344999999914","","","","","pos","GS","GSnew","3","category3/GS3.png","21","targets/43.png","direct","",""
"","image-slider-response","101","396080","0.0-8.0-0.11","c8gntmmyut","one_one","1","direct_first","1","rk06th10","0","24","1","1","3","1","","0","1","0","2957.9199999999255","","","","","neg","GS","GSnew","1","category1/GS2.png","-13","targets/14.png","direct","",""
"","image-slider-response","102","398636","0.0-8.0-0.12","c8gntmmyut","one_one","1","direct_first","1","rk06th10","0","24","1","1","3","1","","0","1","0","2554.9150000000373","","","","","neg","GS","GSnew","4","category4/GS2.png","16","targets/48.png","direct","",""
"","image-slider-response","103","400952","0.0-8.0-0.13","c8gntmmyut","one_one","1","direct_first","1","rk06th10","0","24","1","1","3","1","","0","1","0","2314.890000000014","","","","","pos","GS","GSold","3","category3/CS6.png","17","targets/40.png","direct","",""
"","image-slider-response","104","404014","0.0-8.0-0.14","c8gntmmyut","one_one","1","direct_first","1","rk06th10","0","24","1","1","3","1","","0","1","0","3060.9150000000373","","","","","pos","GS","GSold","3","category3/CS4.png","25","targets/26.png","direct","",""
"","image-slider-response","105","406577","0.0-8.0-0.15","c8gntmmyut","one_one","1","direct_first","1","rk06th10","0","24","1","1","3","1","","0","1","0","2561.6200000000536","","","","","neg","GS","GSnew","1","category1/GS3.png","-20","targets/31.png","direct","",""
"","image-slider-response","106","409395","0.0-8.0-0.16","c8gntmmyut","one_one","1","direct_first","1","rk06th10","0","24","1","1","3","1","","0","1","0","2817.0149999999558","","","","","pos","GS","GSnew","3","category3/GS1.png","25","targets/16.png","direct","",""
"","image-slider-response","107","411700","0.0-8.0-0.17","c8gntmmyut","one_one","1","direct_first","1","rk06th10","0","24","1","1","3","1","","0","1","0","2303.8950000000186","","","","","neg","GS","GSold","1","category1/CS2.png","-23","targets/36.png","direct","",""
"","image-slider-response","108","418935","0.0-8.0-0.18","c8gntmmyut","one_one","1","direct_first","1","rk06th10","0","24","1","1","3","1","","0","1","0","7233.885000000009","","","","","neg","GS","GSold","4","category4/CS5.png","16","targets/39.png","direct","",""
"","image-slider-response","109","421416","0.0-8.0-0.19","c8gntmmyut","one_one","1","direct_first","1","rk06th10","0","24","1","1","3","1","","0","1","0","2479.375","","","","","pos","CS","CS","2","category2/CS8.png","-14","targets/21.png","direct","",""
"","image-slider-response","110","424752","0.0-8.0-0.20","c8gntmmyut","one_one","1","direct_first","1","rk06th10","0","24","1","1","3","1","","0","1","0","3334.9749999999767","","","","","neg","GS","abstract","4","category4/lin.png","14","targets/7.png","direct","",""
"","image-slider-response","111","427755","0.0-8.0-0.21","c8gntmmyut","one_one","1","direct_first","1","rk06th10","0","24","1","1","3","1","","0","1","0","3001.579999999958","","","","","pos","CS","CS","3","category3/CS1.png","38","targets/30.png","direct","",""
"","image-slider-response","112","430761","0.0-8.0-0.22","c8gntmmyut","one_one","1","direct_first","1","rk06th10","0","24","1","1","3","1","","0","1","0","3005.380000000063","","","","","neg","CS","CS","4","category4/CS3.png","-23","targets/42.png","direct","",""
"","image-slider-response","113","433391","0.0-8.0-0.23","c8gntmmyut","one_one","1","direct_first","1","rk06th10","0","24","1","1","3","1","","0","1","0","2628.4650000000256","","","","","pos","GS","abstract","3","category3/wang.png","22","targets/37.png","direct","",""
"","image-slider-response","114","436315","0.0-8.0-0.24","c8gntmmyut","one_one","1","direct_first","1","rk06th10","0","24","1","1","3","1","","0","1","0","2922.9749999999767","","","","","neg","GS","GSnew","4","category4/GS1.png","-34","targets/33.png","direct","",""
"","image-slider-response","115","439815","0.0-8.0-0.25","c8gntmmyut","one_one","1","direct_first","1","rk06th10","0","24","1","1","3","1","","0","1","0","3498.549999999872","","","","","pos","GS","GSnew","2","category2/GS3.png","15","targets/24.png","direct","",""
"","image-slider-response","116","442389","0.0-8.0-0.26","c8gntmmyut","one_one","1","direct_first","1","rk06th10","0","24","1","1","3","1","","0","1","0","2573.1149999999325","","","","","neg","GS","GSold","4","category4/CS7.png","-17","targets/28.png","direct","",""
"","image-slider-response","117","444984","0.0-8.0-0.27","c8gntmmyut","one_one","1","direct_first","1","rk06th10","0","24","1","1","3","1","","0","1","0","2593.664999999979","","","","","pos","GS","GSold","2","category2/CS2.png","11","targets/29.png","direct","",""
"","image-slider-response","118","447990","0.0-8.0-0.28","c8gntmmyut","one_one","1","direct_first","1","rk06th10","0","24","1","1","3","1","","0","1","0","3004.9500000000116","","","","","pos","GS","GSnew","3","category3/GS2.png","31","targets/38.png","direct","",""
"","image-slider-response","119","450663","0.0-8.0-0.29","c8gntmmyut","one_one","1","direct_first","1","rk06th10","0","24","1","1","3","1","","0","1","0","2671.9950000000536","","","","","neg","GS","abstract","1","category1/ma.png","-28","targets/27.png","direct","",""
"","image-slider-response","120","452893","0.0-8.0-0.30","c8gntmmyut","one_one","1","direct_first","1","rk06th10","0","24","1","1","3","1","","0","1","0","2228.6049999999814","","","","","pos","GS","GSnew","2","category2/GS1.png","12","targets/44.png","direct","",""
"","image-slider-response","121","455382","0.0-8.0-0.31","c8gntmmyut","one_one","1","direct_first","1","rk06th10","0","24","1","1","3","1","","0","1","0","2487.9049999999697","","","","","neg","GS","GSnew","4","category4/GS3.png","-19","targets/25.png","direct","",""
"","html-keyboard-response","122","491548","0.0-9.0","c8gntmmyut","one_one","1","direct_first","1","rk06th10","0","24","1","1","3","1","","0","1","0","36164.67999999999","","","<p>Sie sehen nun die chinesischen Zeichen nur ganz kurz. Danach sehen Sie die jeweilige Aussprache der Zeichen als Silbe auf dem Bildschrim. Ihre Aufgabe ist es, für jede Silbe anzugeben, ob diese etwas angenehmes, oder unangenehmes bedeuten könnte. Verlassen Sie sich hier vor allem auf Ihre Intuition.<br><br>Die Zeichen werden nur zur Orientierung dargestellt, beachten Sie sie deshalb nicht. Konzentrieren Sie sich vor allem auf die Silben. <br>Reagieren Sie mit folgenden zwei Tasten: <br><br><b>'D' </b> wenn die Silbe etwas <b>unangenehmes</b> bedeuten könnte. <br><b>'K'</b> wenn die Silbe etwas <b>angenehmes</b> bedeuten könnte. <br><br>Bitte legen Sie nun den Zeigefinger der linken Hand auf die Taste 'D' und den Zeigefinger der rechten Hand auf die Taste 'K'. <br>Reagieren Sie auf jede Silbe so schnell wie möglich. Uns interessiert Ihre spontane Reaktion. <br> <br> <br>Drücken Sie 'D' oder 'K', um die nächste Aufgabe zu starten. </p>","75","","","","","","","","","",""
"","html-keyboard-response","123","494558","0.0-10.0-0.0","c8gntmmyut","one_one","1","direct_first","1","rk06th10","0","24","1","1","3","1","","0","1","0","null","","","<div style=""font-size:60px;"">+</div>","null","","","","","","","","","",""
"","html-keyboard-response","124","494655","0.0-10.0-1.0","c8gntmmyut","one_one","1","direct_first","1","rk06th10","0","24","1","1","3","1","","0","1","0","null","","","<img src = 'category4/CS5.png' width = '100%;'>","null","","","","","","","","","",""
"","html-keyboard-response","125","494914","0.0-10.0-2.0","c8gntmmyut","one_one","1","direct_first","1","rk06th10","0","24","1","1","3","1","","0","1","0","null","","","<img src = 'targets/39.png' width = '100%;'>","null","","","","","","","","","",""
"","html-keyboard-response","126","498459","0.0-10.0-3.0","c8gntmmyut","one_one","1","direct_first","1","rk06th10","0","24","1","1","3","1","","0","1","0","3543.5650000000605","","","<img src = 'targets/mask.png' width = '100%;'>","68","neg","GS","GSold","4","category4/CS5.png","","targets/39.png","indirect","0","0"
"","html-keyboard-response","127","499969","0.0-10.0-0.1","c8gntmmyut","one_one","1","direct_first","1","rk06th10","0","24","1","1","3","1","","0","1","0","null","","","<div style=""font-size:60px;"">+</div>","null","","","","","","","","","",""
"","html-keyboard-response","128","500060","0.0-10.0-1.1","c8gntmmyut","one_one","1","direct_first","1","rk06th10","0","24","1","1","3","1","","0","1","0","null","","","<img src = 'category2/CS2.png' width = '100%;'>","null","","","","","","","","","",""
"","html-keyboard-response","129","500322","0.0-10.0-2.1","c8gntmmyut","one_one","1","direct_first","1","rk06th10","0","24","1","1","3","1","","0","1","0","null","","","<img src = 'targets/29.png' width = '100%;'>","null","","","","","","","","","",""
"","html-keyboard-response","130","502547","0.0-10.0-3.1","c8gntmmyut","one_one","1","direct_first","1","rk06th10","0","24","1","1","3","1","","0","1","0","2224.350000000093","","","<img src = 'targets/mask.png' width = '100%;'>","75","pos","GS","GSold","2","category2/CS2.png","","targets/29.png","indirect","1","1"
"","html-keyboard-response","131","504056","0.0-10.0-0.2","c8gntmmyut","one_one","1","direct_first","1","rk06th10","0","24","1","1","3","1","","0","1","0","null","","","<div style=""font-size:60px;"">+</div>","null","","","","","","","","","",""
"","html-keyboard-response","132","504152","0.0-10.0-1.2","c8gntmmyut","one_one","1","direct_first","1","rk06th10","0","24","1","1","3","1","","0","1","0","null","","","<img src = 'category2/CS4.png' width = '100%;'>","null","","","","","","","","","",""
"","html-keyboard-response","133","504410","0.0-10.0-2.2","c8gntmmyut","one_one","1","direct_first","1","rk06th10","0","24","1","1","3","1","","0","1","0","null","","","<img src = 'targets/17.png' width = '100%;'>","null","","","","","","","","","",""
"","html-keyboard-response","134","505768","0.0-10.0-3.2","c8gntmmyut","one_one","1","direct_first","1","rk06th10","0","24","1","1","3","1","","0","1","0","1357.3600000001024","","","<img src = 'targets/mask.png' width = '100%;'>","75","pos","GS","GSold","2","category2/CS4.png","","targets/17.png","indirect","1","2"
"","html-keyboard-response","135","507279","0.0-10.0-0.3","c8gntmmyut","one_one","1","direct_first","1","rk06th10","0","24","1","1","3","1","","0","1","0","null","","","<div style=""font-size:60px;"">+</div>","null","","","","","","","","","",""
"","html-keyboard-response","136","507370","0.0-10.0-1.3","c8gntmmyut","one_one","1","direct_first","1","rk06th10","0","24","1","1","3","1","","0","1","0","null","","","<img src = 'category1/CS10.png' width = '100%;'>","null","","","","","","","","","",""
"","html-keyboard-response","137","507629","0.0-10.0-2.3","c8gntmmyut","one_one","1","direct_first","1","rk06th10","0","24","1","1","3","1","","0","1","0","null","","","<img src = 'targets/35.png' width = '100%;'>","null","","","","","","","","","",""
"","html-keyboard-response","138","509139","0.0-10.0-3.3","c8gntmmyut","one_one","1","direct_first","1","rk06th10","0","24","1","1","3","1","","0","1","0","1508.615000000107","","","<img src = 'targets/mask.png' width = '100%;'>","68","neg","CS","CS","1","category1/CS10.png","","targets/35.png","indirect","0","3"
"","html-keyboard-response","139","510649","0.0-10.0-0.4","c8gntmmyut","one_one","1","direct_first","1","rk06th10","0","24","1","1","3","1","","0","1","0","null","","","<div style=""font-size:60px;"">+</div>","null","","","","","","","","","",""
"","html-keyboard-response","140","510745","0.0-10.0-1.4","c8gntmmyut","one_one","1","direct_first","1","rk06th10","0","24","1","1","3","1","","0","1","0","null","","","<img src = 'category4/CS10.png' width = '100%;'>","null","","","","","","","","","",""
"","html-keyboard-response","141","511007","0.0-10.0-2.4","c8gntmmyut","one_one","1","direct_first","1","rk06th10","0","24","1","1","3","1","","0","1","0","null","","","<img src = 'targets/18.png' width = '100%;'>","null","","","","","","","","","",""
"","html-keyboard-response","142","512250","0.0-10.0-3.4","c8gntmmyut","one_one","1","direct_first","1","rk06th10","0","24","1","1","3","1","","0","1","0","1242.9099999999162","","","<img src = 'targets/mask.png' width = '100%;'>","75","neg","GS","GSold","4","category4/CS10.png","","targets/18.png","indirect","1","4"
"","html-keyboard-response","143","513761","0.0-10.0-0.5","c8gntmmyut","one_one","1","direct_first","1","rk06th10","0","24","1","1","3","1","","0","1","0","null","","","<div style=""font-size:60px;"">+</div>","null","","","","","","","","","",""
"","html-keyboard-response","144","513852","0.0-10.0-1.5","c8gntmmyut","one_one","1","direct_first","1","rk06th10","0","24","1","1","3","1","","0","1","0","null","","","<img src = 'category3/CS4.png' width = '100%;'>","null","","","","","","","","","",""
"","html-keyboard-response","145","514114","0.0-10.0-2.5","c8gntmmyut","one_one","1","direct_first","1","rk06th10","0","24","1","1","3","1","","0","1","0","null","","","<img src = 'targets/26.png' width = '100%;'>","null","","","","","","","","","",""
"","html-keyboard-response","146","515907","0.0-10.0-3.5","c8gntmmyut","one_one","1","direct_first","1","rk06th10","0","24","1","1","3","1","","0","1","0","1792.0500000000466","","","<img src = 'targets/mask.png' width = '100%;'>","75","pos","GS","GSold","3","category3/CS4.png","","targets/26.png","indirect","1","5"
"","html-keyboard-response","147","517418","0.0-10.0-0.6","c8gntmmyut","one_one","1","direct_first","1","rk06th10","0","24","1","1","3","1","","0","1","0","null","","","<div style=""font-size:60px;"">+</div>","null","","","","","","","","","",""
"","html-keyboard-response","148","517509","0.0-10.0-1.6","c8gntmmyut","one_one","1","direct_first","1","rk06th10","0","24","1","1","3","1","","0","1","0","null","","","<img src = 'category4/CS3.png' width = '100%;'>","null","","","","","","","","","",""
"","html-keyboard-response","149","517770","0.0-10.0-2.6","c8gntmmyut","one_one","1","direct_first","1","rk06th10","0","24","1","1","3","1","","0","1","0","null","","","<img src = 'targets/42.png' width = '100%;'>","null","","","","","","","","","",""
"","html-keyboard-response","150","518395","0.0-10.0-3.6","c8gntmmyut","one_one","1","direct_first","1","rk06th10","0","24","1","1","3","1","","0","1","0","623.2949999999255","","","<img src = 'targets/mask.png' width = '100%;'>","68","neg","CS","CS","4","category4/CS3.png","","targets/42.png","indirect","0","6"
"","html-keyboard-response","151","519901","0.0-10.0-0.7","c8gntmmyut","one_one","1","direct_first","1","rk06th10","0","24","1","1","3","1","","0","1","0","null","","","<div style=""font-size:60px;"">+</div>","null","","","","","","","","","",""
"","html-keyboard-response","152","519998","0.0-10.0-1.7","c8gntmmyut","one_one","1","direct_first","1","rk06th10","0","24","1","1","3","1","","0","1","0","null","","","<img src = 'category3/CS3.png' width = '100%;'>","null","","","","","","","","","",""
"","html-keyboard-response","153","520259","0.0-10.0-2.7","c8gntmmyut","one_one","1","direct_first","1","rk06th10","0","24","1","1","3","1","","0","1","0","null","","","<img src = 'targets/11.png' width = '100%;'>","null","","","","","","","","","",""
"","html-keyboard-response","154","521962","0.0-10.0-3.7","c8gntmmyut","one_one","1","direct_first","1","rk06th10","0","24","1","1","3","1","","0","1","0","1702.6849999999395","","","<img src = 'targets/mask.png' width = '100%;'>","68","pos","GS","GSold","3","category3/CS3.png","","targets/11.png","indirect","0","7"
"","html-keyboard-response","155","523471","0.0-10.0-0.8","c8gntmmyut","one_one","1","direct_first","1","rk06th10","0","24","1","1","3","1","","0","1","0","null","","","<div style=""font-size:60px;"">+</div>","null","","","","","","","","","",""
"","html-keyboard-response","156","523567","0.0-10.0-1.8","c8gntmmyut","one_one","1","direct_first","1","rk06th10","0","24","1","1","3","1","","0","1","0","null","","","<img src = 'category3/CS6.png' width = '100%;'>","null","","","","","","","","","",""
"","html-keyboard-response","157","523827","0.0-10.0-2.8","c8gntmmyut","one_one","1","direct_first","1","rk06th10","0","24","1","1","3","1","","0","1","0","null","","","<img src = 'targets/40.png' width = '100%;'>","null","","","","","","","","","",""
"","html-keyboard-response","158","525779","0.0-10.0-3.8","c8gntmmyut","one_one","1","direct_first","1","rk06th10","0","24","1","1","3","1","","0","1","0","1950.1799999999348","","","<img src = 'targets/mask.png' width = '100%;'>","75","pos","GS","GSold","3","category3/CS6.png","","targets/40.png","indirect","1","8"
"","html-keyboard-response","159","527288","0.0-10.0-0.9","c8gntmmyut","one_one","1","direct_first","1","rk06th10","0","24","1","1","3","1","","0","1","0","null","","","<div style=""font-size:60px;"">+</div>","null","","","","","","","","","",""
"","html-keyboard-response","160","527384","0.0-10.0-1.9","c8gntmmyut","one_one","1","direct_first","1","rk06th10","0","24","1","1","3","1","","0","1","0","null","","","<img src = 'category3/CS1.png' width = '100%;'>","null","","","","","","","","","",""
"","html-keyboard-response","161","527637","0.0-10.0-2.9","c8gntmmyut","one_one","1","direct_first","1","rk06th10","0","24","1","1","3","1","","0","1","0","null","","","<img src = 'targets/30.png' width = '100%;'>","null","","","","","","","","","",""
"","html-keyboard-response","162","528691","0.0-10.0-3.9","c8gntmmyut","one_one","1","direct_first","1","rk06th10","0","24","1","1","3","1","","0","1","0","1052.4799999999814","","","<img src = 'targets/mask.png' width = '100%;'>","75","pos","CS","CS","3","category3/CS1.png","","targets/30.png","indirect","1","9"
"","html-keyboard-response","163","530202","0.0-10.0-0.10","c8gntmmyut","one_one","1","direct_first","1","rk06th10","0","24","1","1","3","1","","0","1","0","null","","","<div style=""font-size:60px;"">+</div>","null","","","","","","","","","",""
"","html-keyboard-response","164","530297","0.0-10.0-1.10","c8gntmmyut","one_one","1","direct_first","1","rk06th10","0","24","1","1","3","1","","0","1","0","null","","","<img src = 'category1/CS4.png' width = '100%;'>","null","","","","","","","","","",""
"","html-keyboard-response","165","530558","0.0-10.0-2.10","c8gntmmyut","one_one","1","direct_first","1","rk06th10","0","24","1","1","3","1","","0","1","0","null","","","<img src = 'targets/47.png' width = '100%;'>","null","","","","","","","","","",""
"","html-keyboard-response","166","531435","0.0-10.0-3.10","c8gntmmyut","one_one","1","direct_first","1","rk06th10","0","24","1","1","3","1","","0","1","0","875.4500000000698","","","<img src = 'targets/mask.png' width = '100%;'>","68","neg","GS","GSold","1","category1/CS4.png","","targets/47.png","indirect","0","10"
"","html-keyboard-response","167","532945","0.0-10.0-0.11","c8gntmmyut","one_one","1","direct_first","1","rk06th10","0","24","1","1","3","1","","0","1","0","null","","","<div style=""font-size:60px;"">+</div>","null","","","","","","","","","",""
"","html-keyboard-response","168","533041","0.0-10.0-1.11","c8gntmmyut","one_one","1","direct_first","1","rk06th10","0","24","1","1","3","1","","0","1","0","null","","","<img src = 'category1/CS9.png' width = '100%;'>","null","","","","","","","","","",""
"","html-keyboard-response","169","533303","0.0-10.0-2.11","c8gntmmyut","one_one","1","direct_first","1","rk06th10","0","24","1","1","3","1","","0","1","0","null","","","<img src = 'targets/19.png' width = '100%;'>","null","","","","","","","","","",""
"","html-keyboard-response","170","534899","0.0-10.0-3.11","c8gntmmyut","one_one","1","direct_first","1","rk06th10","0","24","1","1","3","1","","0","1","0","1594.875","","","<img src = 'targets/mask.png' width = '100%;'>","75","neg","GS","GSold","1","category1/CS9.png","","targets/19.png","indirect","1","11"
"","html-keyboard-response","171","536409","0.0-10.0-0.12","c8gntmmyut","one_one","1","direct_first","1","rk06th10","0","24","1","1","3","1","","0","1","0","null","","","<div style=""font-size:60px;"">+</div>","null","","","","","","","","","",""
"","html-keyboard-response","172","536500","0.0-10.0-1.12","c8gntmmyut","one_one","1","direct_first","1","rk06th10","0","24","1","1","3","1","","0","1","0","null","","","<img src = 'category1/CS2.png' width = '100%;'>","null","","","","","","","","","",""
"","html-keyboard-response","173","536761","0.0-10.0-2.12","c8gntmmyut","one_one","1","direct_first","1","rk06th10","0","24","1","1","3","1","","0","1","0","null","","","<img src = 'targets/36.png' width = '100%;'>","null","","","","","","","","","",""
"","html-keyboard-response","174","539179","0.0-10.0-3.12","c8gntmmyut","one_one","1","direct_first","1","rk06th10","0","24","1","1","3","1","","0","1","0","2416.2600000000093","","","<img src = 'targets/mask.png' width = '100%;'>","75","neg","GS","GSold","1","category1/CS2.png","","targets/36.png","indirect","1","12"
"","html-keyboard-response","175","540688","0.0-10.0-0.13","c8gntmmyut","one_one","1","direct_first","1","rk06th10","0","24","1","1","3","1","","0","1","0","null","","","<div style=""font-size:60px;"">+</div>","null","","","","","","","","","",""
"","html-keyboard-response","176","540784","0.0-10.0-1.13","c8gntmmyut","one_one","1","direct_first","1","rk06th10","0","24","1","1","3","1","","0","1","0","null","","","<img src = 'category4/CS7.png' width = '100%;'>","null","","","","","","","","","",""
"","html-keyboard-response","177","541045","0.0-10.0-2.13","c8gntmmyut","one_one","1","direct_first","1","rk06th10","0","24","1","1","3","1","","0","1","0","null","","","<img src = 'targets/28.png' width = '100%;'>","null","","","","","","","","","",""
"","html-keyboard-response","178","542227","0.0-10.0-3.13","c8gntmmyut","one_one","1","direct_first","1","rk06th10","0","24","1","1","3","1","","0","1","0","1180.1599999999162","","","<img src = 'targets/mask.png' width = '100%;'>","75","neg","GS","GSold","4","category4/CS7.png","","targets/28.png","indirect","1","13"
"","html-keyboard-response","179","543734","0.0-10.0-0.14","c8gntmmyut","one_one","1","direct_first","1","rk06th10","0","24","1","1","3","1","","0","1","0","null","","","<div style=""font-size:60px;"">+</div>","null","","","","","","","","","",""
"","html-keyboard-response","180","543831","0.0-10.0-1.14","c8gntmmyut","one_one","1","direct_first","1","rk06th10","0","24","1","1","3","1","","0","1","0","null","","","<img src = 'category2/CS3.png' width = '100%;'>","null","","","","","","","","","",""
"","html-keyboard-response","181","544092","0.0-10.0-2.14","c8gntmmyut","one_one","1","direct_first","1","rk06th10","0","24","1","1","3","1","","0","1","0","null","","","<img src = 'targets/4.png' width = '100%;'>","null","","","","","","","","","",""
"","html-keyboard-response","182","544714","0.0-10.0-3.14","c8gntmmyut","one_one","1","direct_first","1","rk06th10","0","24","1","1","3","1","","0","1","0","621.3949999999022","","","<img src = 'targets/mask.png' width = '100%;'>","68","pos","GS","GSold","2","category2/CS3.png","","targets/4.png","indirect","0","14"
"","html-keyboard-response","183","546223","0.0-10.0-0.15","c8gntmmyut","one_one","1","direct_first","1","rk06th10","0","24","1","1","3","1","","0","1","0","null","","","<div style=""font-size:60px;"">+</div>","null","","","","","","","","","",""
"","html-keyboard-response","184","546319","0.0-10.0-1.15","c8gntmmyut","one_one","1","direct_first","1","rk06th10","0","24","1","1","3","1","","0","1","0","null","","","<img src = 'category2/CS8.png' width = '100%;'>","null","","","","","","","","","",""
"","html-keyboard-response","185","546581","0.0-10.0-2.15","c8gntmmyut","one_one","1","direct_first","1","rk06th10","0","24","1","1","3","1","","0","1","0","null","","","<img src = 'targets/21.png' width = '100%;'>","null","","","","","","","","","",""
"","html-keyboard-response","186","548931","0.0-10.0-3.15","c8gntmmyut","one_one","1","direct_first","1","rk06th10","0","24","1","1","3","1","","0","1","0","2349.170000000042","","","<img src = 'targets/mask.png' width = '100%;'>","68","pos","CS","CS","2","category2/CS8.png","","targets/21.png","indirect","0","15"
"","survey-html-form","187","551508","0.0-11.0","c8gntmmyut","one_one","1","direct_first","1","rk06th10","0","24","1","1","3","1","","0","1","0","2071.615000000107","","{}","","","","","","","","","","","",""
"","html-keyboard-response","188","554515","0.0-12.0-0.0","c8gntmmyut","one_one","1","direct_first","1","rk06th10","0","24","1","1","3","1","","0","1","0","null","","","<div style=""font-size:60px;"">+</div>","null","","","","","","","","","",""
"","html-keyboard-response","189","554611","0.0-12.0-1.0","c8gntmmyut","one_one","1","direct_first","1","rk06th10","0","24","1","1","3","1","","0","1","0","null","","","<img src = 'category2/GS1.png' width = '100%;'>","null","","","","","","","","","",""
"","html-keyboard-response","190","554870","0.0-12.0-2.0","c8gntmmyut","one_one","1","direct_first","1","rk06th10","0","24","1","1","3","1","","0","1","0","null","","","<img src = 'targets/44.png' width = '100%;'>","null","","","","","","","","","",""
"","html-keyboard-response","191","555267","0.0-12.0-3.0","c8gntmmyut","one_one","1","direct_first","1","rk06th10","0","24","1","1","3","1","","0","1","0","395.95999999996275","","","<img src = 'targets/mask.png' width = '100%;'>","75","pos","GS","GSnew","2","category2/GS1.png","","targets/44.png","indirect","1","16"
"","html-keyboard-response","192","556776","0.0-12.0-0.1","c8gntmmyut","one_one","1","direct_first","1","rk06th10","0","24","1","1","3","1","","0","1","0","null","","","<div style=""font-size:60px;"">+</div>","null","","","","","","","","","",""
"","html-keyboard-response","193","556869","0.0-12.0-1.1","c8gntmmyut","one_one","1","direct_first","1","rk06th10","0","24","1","1","3","1","","0","1","0","null","","","<img src = 'category3/wang.png' width = '100%;'>","null","","","","","","","","","",""
"","html-keyboard-response","194","557130","0.0-12.0-2.1","c8gntmmyut","one_one","1","direct_first","1","rk06th10","0","24","1","1","3","1","","0","1","0","null","","","<img src = 'targets/37.png' width = '100%;'>","null","","","","","","","","","",""
"","html-keyboard-response","195","558027","0.0-12.0-3.1","c8gntmmyut","one_one","1","direct_first","1","rk06th10","0","24","1","1","3","1","","0","1","0","895.3249999999534","","","<img src = 'targets/mask.png' width = '100%;'>","68","pos","GS","abstract","3","category3/wang.png","","targets/37.png","indirect","0","17"
"","html-keyboard-response","196","559533","0.0-12.0-0.2","c8gntmmyut","one_one","1","direct_first","1","rk06th10","0","24","1","1","3","1","","0","1","0","null","","","<div style=""font-size:60px;"">+</div>","null","","","","","","","","","",""
"","html-keyboard-response","197","559629","0.0-12.0-1.2","c8gntmmyut","one_one","1","direct_first","1","rk06th10","0","24","1","1","3","1","","0","1","0","null","","","<img src = 'category4/GS3.png' width = '100%;'>","null","","","","","","","","","",""
"","html-keyboard-response","198","559890","0.0-12.0-2.2","c8gntmmyut","one_one","1","direct_first","1","rk06th10","0","24","1","1","3","1","","0","1","0","null","","","<img src = 'targets/25.png' width = '100%;'>","null","","","","","","","","","",""
"","html-keyboard-response","199","561275","0.0-12.0-3.2","c8gntmmyut","one_one","1","direct_first","1","rk06th10","0","24","1","1","3","1","","0","1","0","1383.234999999986","","","<img src = 'targets/mask.png' width = '100%;'>","68","neg","GS","GSnew","4","category4/GS3.png","","targets/25.png","indirect","0","18"
"","html-keyboard-response","200","562785","0.0-12.0-0.3","c8gntmmyut","one_one","1","direct_first","1","rk06th10","0","24","1","1","3","1","","0","1","0","null","","","<div style=""font-size:60px;"">+</div>","null","","","","","","","","","",""
"","html-keyboard-response","201","562878","0.0-12.0-1.3","c8gntmmyut","one_one","1","direct_first","1","rk06th10","0","24","1","1","3","1","","0","1","0","null","","","<img src = 'category2/men.png' width = '100%;'>","null","","","","","","","","","",""
"","html-keyboard-response","202","563139","0.0-12.0-2.3","c8gntmmyut","one_one","1","direct_first","1","rk06th10","0","24","1","1","3","1","","0","1","0","null","","","<img src = 'targets/23.png' width = '100%;'>","null","","","","","","","","","",""
"","html-keyboard-response","203","564267","0.0-12.0-3.3","c8gntmmyut","one_one","1","direct_first","1","rk06th10","0","24","1","1","3","1","","0","1","0","1126.9449999999488","","","<img src = 'targets/mask.png' width = '100%;'>","68","pos","GS","abstract","2","category2/men.png","","targets/23.png","indirect","0","19"
"","html-keyboard-response","204","565778","0.0-12.0-0.4","c8gntmmyut","one_one","1","direct_first","1","rk06th10","0","24","1","1","3","1","","0","1","0","null","","","<div style=""font-size:60px;"">+</div>","null","","","","","","","","","",""
"","html-keyboard-response","205","565874","0.0-12.0-1.4","c8gntmmyut","one_one","1","direct_first","1","rk06th10","0","24","1","1","3","1","","0","1","0","null","","","<img src = 'category4/lin.png' width = '100%;'>","null","","","","","","","","","",""
"","html-keyboard-response","206","566135","0.0-12.0-2.4","c8gntmmyut","one_one","1","direct_first","1","rk06th10","0","24","1","1","3","1","","0","1","0","null","","","<img src = 'targets/7.png' width = '100%;'>","null","","","","","","","","","",""
"","html-keyboard-response","207","567251","0.0-12.0-3.4","c8gntmmyut","one_one","1","direct_first","1","rk06th10","0","24","1","1","3","1","","0","1","0","1114.3199999999488","","","<img src = 'targets/mask.png' width = '100%;'>","68","neg","GS","abstract","4","category4/lin.png","","targets/7.png","indirect","0","20"
"","html-keyboard-response","208","568762","0.0-12.0-0.5","c8gntmmyut","one_one","1","direct_first","1","rk06th10","0","24","1","1","3","1","","0","1","0","null","","","<div style=""font-size:60px;"">+</div>","null","","","","","","","","","",""
"","html-keyboard-response","209","568858","0.0-12.0-1.5","c8gntmmyut","one_one","1","direct_first","1","rk06th10","0","24","1","1","3","1","","0","1","0","null","","","<img src = 'category4/GS1.png' width = '100%;'>","null","","","","","","","","","",""
"","html-keyboard-response","210","569119","0.0-12.0-2.5","c8gntmmyut","one_one","1","direct_first","1","rk06th10","0","24","1","1","3","1","","0","1","0","null","","","<img src = 'targets/33.png' width = '100%;'>","null","","","","","","","","","",""
"","html-keyboard-response","211","570163","0.0-12.0-3.5","c8gntmmyut","one_one","1","direct_first","1","rk06th10","0","24","1","1","3","1","","0","1","0","1042.4899999998743","","","<img src = 'targets/mask.png' width = '100%;'>","68","neg","GS","GSnew","4","category4/GS1.png","","targets/33.png","indirect","0","21"
"","html-keyboard-response","212","571673","0.0-12.0-0.6","c8gntmmyut","one_one","1","direct_first","1","rk06th10","0","24","1","1","3","1","","0","1","0","null","","","<div style=""font-size:60px;"">+</div>","null","","","","","","","","","",""
"","html-keyboard-response","213","571769","0.0-12.0-1.6","c8gntmmyut","one_one","1","direct_first","1","rk06th10","0","24","1","1","3","1","","0","1","0","null","","","<img src = 'category1/GS2.png' width = '100%;'>","null","","","","","","","","","",""
"","html-keyboard-response","214","572030","0.0-12.0-2.6","c8gntmmyut","one_one","1","direct_first","1","rk06th10","0","24","1","1","3","1","","0","1","0","null","","","<img src = 'targets/14.png' width = '100%;'>","null","","","","","","","","","",""
"","html-keyboard-response","215","572867","0.0-12.0-3.6","c8gntmmyut","one_one","1","direct_first","1","rk06th10","0","24","1","1","3","1","","0","1","0","835.0799999998417","","","<img src = 'targets/mask.png' width = '100%;'>","75","neg","GS","GSnew","1","category1/GS2.png","","targets/14.png","indirect","1","22"
"","html-keyboard-response","216","574375","0.0-12.0-0.7","c8gntmmyut","one_one","1","direct_first","1","rk06th10","0","24","1","1","3","1","","0","1","0","null","","","<div style=""font-size:60px;"">+</div>","null","","","","","","","","","",""
"","html-keyboard-response","217","574471","0.0-12.0-1.7","c8gntmmyut","one_one","1","direct_first","1","rk06th10","0","24","1","1","3","1","","0","1","0","null","","","<img src = 'category3/GS2.png' width = '100%;'>","null","","","","","","","","","",""
"","html-keyboard-response","218","574732","0.0-12.0-2.7","c8gntmmyut","one_one","1","direct_first","1","rk06th10","0","24","1","1","3","1","","0","1","0","null","","","<img src = 'targets/38.png' width = '100%;'>","null","","","","","","","","","",""
"","html-keyboard-response","219","575307","0.0-12.0-3.7","c8gntmmyut","one_one","1","direct_first","1","rk06th10","0","24","1","1","3","1","","0","1","0","574.1349999998929","","","<img src = 'targets/mask.png' width = '100%;'>","75","pos","GS","GSnew","3","category3/GS2.png","","targets/38.png","indirect","1","23"
"","html-keyboard-response","220","576815","0.0-12.0-0.8","c8gntmmyut","one_one","1","direct_first","1","rk06th10","0","24","1","1","3","1","","0","1","0","null","","","<div style=""font-size:60px;"">+</div>","null","","","","","","","","","",""
"","html-keyboard-response","221","576911","0.0-12.0-1.8","c8gntmmyut","one_one","1","direct_first","1","rk06th10","0","24","1","1","3","1","","0","1","0","null","","","<img src = 'category1/ma.png' width = '100%;'>","null","","","","","","","","","",""
"","html-keyboard-response","222","577169","0.0-12.0-2.8","c8gntmmyut","one_one","1","direct_first","1","rk06th10","0","24","1","1","3","1","","0","1","0","null","","","<img src = 'targets/27.png' width = '100%;'>","null","","","","","","","","","",""
"","html-keyboard-response","223","578163","0.0-12.0-3.8","c8gntmmyut","one_one","1","direct_first","1","rk06th10","0","24","1","1","3","1","","0","1","0","992.2199999999721","","","<img src = 'targets/mask.png' width = '100%;'>","75","neg","GS","abstract","1","category1/ma.png","","targets/27.png","indirect","1","24"
"","html-keyboard-response","224","579673","0.0-12.0-0.9","c8gntmmyut","one_one","1","direct_first","1","rk06th10","0","24","1","1","3","1","","0","1","0","null","","","<div style=""font-size:60px;"">+</div>","null","","","","","","","","","",""
"","html-keyboard-response","225","579767","0.0-12.0-1.9","c8gntmmyut","one_one","1","direct_first","1","rk06th10","0","24","1","1","3","1","","0","1","0","null","","","<img src = 'category2/GS2.png' width = '100%;'>","null","","","","","","","","","",""
"","html-keyboard-response","226","580026","0.0-12.0-2.9","c8gntmmyut","one_one","1","direct_first","1","rk06th10","0","24","1","1","3","1","","0","1","0","null","","","<img src = 'targets/45.png' width = '100%;'>","null","","","","","","","","","",""
"","html-keyboard-response","227","580947","0.0-12.0-3.9","c8gntmmyut","one_one","1","direct_first","1","rk06th10","0","24","1","1","3","1","","0","1","0","918.9899999999907","","","<img src = 'targets/mask.png' width = '100%;'>","75","pos","GS","GSnew","2","category2/GS2.png","","targets/45.png","indirect","1","25"
"","html-keyboard-response","228","582457","0.0-12.0-0.10","c8gntmmyut","one_one","1","direct_first","1","rk06th10","0","24","1","1","3","1","","0","1","0","null","","","<div style=""font-size:60px;"">+</div>","null","","","","","","","","","",""
"","html-keyboard-response","229","582553","0.0-12.0-1.10","c8gntmmyut","one_one","1","direct_first","1","rk06th10","0","24","1","1","3","1","","0","1","0","null","","","<img src = 'category3/GS3.png' width = '100%;'>","null","","","","","","","","","",""
"","html-keyboard-response","230","582815","0.0-12.0-2.10","c8gntmmyut","one_one","1","direct_first","1","rk06th10","0","24","1","1","3","1","","0","1","0","null","","","<img src = 'targets/43.png' width = '100%;'>","null","","","","","","","","","",""
"","html-keyboard-response","231","583627","0.0-12.0-3.10","c8gntmmyut","one_one","1","direct_first","1","rk06th10","0","24","1","1","3","1","","0","1","0","810.9800000000978","","","<img src = 'targets/mask.png' width = '100%;'>","75","pos","GS","GSnew","3","category3/GS3.png","","targets/43.png","indirect","1","26"
"","html-keyboard-response","232","585137","0.0-12.0-0.11","c8gntmmyut","one_one","1","direct_first","1","rk06th10","0","24","1","1","3","1","","0","1","0","null","","","<div style=""font-size:60px;"">+</div>","null","","","","","","","","","",""
"","html-keyboard-response","233","585233","0.0-12.0-1.11","c8gntmmyut","one_one","1","direct_first","1","rk06th10","0","24","1","1","3","1","","0","1","0","null","","","<img src = 'category1/GS3.png' width = '100%;'>","null","","","","","","","","","",""
"","html-keyboard-response","234","585495","0.0-12.0-2.11","c8gntmmyut","one_one","1","direct_first","1","rk06th10","0","24","1","1","3","1","","0","1","0","null","","","<img src = 'targets/31.png' width = '100%;'>","null","","","","","","","","","",""
"","html-keyboard-response","235","586211","0.0-12.0-3.11","c8gntmmyut","one_one","1","direct_first","1","rk06th10","0","24","1","1","3","1","","0","1","0","715.2199999999721","","","<img src = 'targets/mask.png' width = '100%;'>","68","neg","GS","GSnew","1","category1/GS3.png","","targets/31.png","indirect","0","27"
"","html-keyboard-response","236","587722","0.0-12.0-0.12","c8gntmmyut","one_one","1","direct_first","1","rk06th10","0","24","1","1","3","1","","0","1","0","null","","","<div style=""font-size:60px;"">+</div>","null","","","","","","","","","",""
"","html-keyboard-response","237","587818","0.0-12.0-1.12","c8gntmmyut","one_one","1","direct_first","1","rk06th10","0","24","1","1","3","1","","0","1","0","null","","","<img src = 'category2/GS3.png' width = '100%;'>","null","","","","","","","","","",""
"","html-keyboard-response","238","588079","0.0-12.0-2.12","c8gntmmyut","one_one","1","direct_first","1","rk06th10","0","24","1","1","3","1","","0","1","0","null","","","<img src = 'targets/24.png' width = '100%;'>","null","","","","","","","","","",""
"","html-keyboard-response","239","589123","0.0-12.0-3.12","c8gntmmyut","one_one","1","direct_first","1","rk06th10","0","24","1","1","3","1","","0","1","0","1042.045000000042","","","<img src = 'targets/mask.png' width = '100%;'>","75","pos","GS","GSnew","2","category2/GS3.png","","targets/24.png","indirect","1","28"
"","html-keyboard-response","240","590630","0.0-12.0-0.13","c8gntmmyut","one_one","1","direct_first","1","rk06th10","0","24","1","1","3","1","","0","1","0","null","","","<div style=""font-size:60px;"">+</div>","null","","","","","","","","","",""
"","html-keyboard-response","241","590726","0.0-12.0-1.13","c8gntmmyut","one_one","1","direct_first","1","rk06th10","0","24","1","1","3","1","","0","1","0","null","","","<img src = 'category3/GS1.png' width = '100%;'>","null","","","","","","","","","",""
"","html-keyboard-response","242","590988","0.0-12.0-2.13","c8gntmmyut","one_one","1","direct_first","1","rk06th10","0","24","1","1","3","1","","0","1","0","null","","","<img src = 'targets/16.png' width = '100%;'>","null","","","","","","","","","",""
"","html-keyboard-response","243","591723","0.0-12.0-3.13","c8gntmmyut","one_one","1","direct_first","1","rk06th10","0","24","1","1","3","1","","0","1","0","734.2300000000978","","","<img src = 'targets/mask.png' width = '100%;'>","75","pos","GS","GSnew","3","category3/GS1.png","","targets/16.png","indirect","1","29"
"","html-keyboard-response","244","593233","0.0-12.0-0.14","c8gntmmyut","one_one","1","direct_first","1","rk06th10","0","24","1","1","3","1","","0","1","0","null","","","<div style=""font-size:60px;"">+</div>","null","","","","","","","","","",""
"","html-keyboard-response","245","593325","0.0-12.0-1.14","c8gntmmyut","one_one","1","direct_first","1","rk06th10","0","24","1","1","3","1","","0","1","0","null","","","<img src = 'category4/GS2.png' width = '100%;'>","null","","","","","","","","","",""
"","html-keyboard-response","246","593582","0.0-12.0-2.14","c8gntmmyut","one_one","1","direct_first","1","rk06th10","0","24","1","1","3","1","","0","1","0","null","","","<img src = 'targets/48.png' width = '100%;'>","null","","","","","","","","","",""
"","html-keyboard-response","247","595203","0.0-12.0-3.14","c8gntmmyut","one_one","1","direct_first","1","rk06th10","0","24","1","1","3","1","","0","1","0","1619.765000000014","","","<img src = 'targets/mask.png' width = '100%;'>","75","neg","GS","GSnew","4","category4/GS2.png","","targets/48.png","indirect","1","30"
"","html-keyboard-response","248","596713","0.0-12.0-0.15","c8gntmmyut","one_one","1","direct_first","1","rk06th10","0","24","1","1","3","1","","0","1","0","null","","","<div style=""font-size:60px;"">+</div>","null","","","","","","","","","",""
"","html-keyboard-response","249","596809","0.0-12.0-1.15","c8gntmmyut","one_one","1","direct_first","1","rk06th10","0","24","1","1","3","1","","0","1","0","null","","","<img src = 'category1/GS1.png' width = '100%;'>","null","","","","","","","","","",""
"","html-keyboard-response","250","597071","0.0-12.0-2.15","c8gntmmyut","one_one","1","direct_first","1","rk06th10","0","24","1","1","3","1","","0","1","0","null","","","<img src = 'targets/5.png' width = '100%;'>","null","","","","","","","","","",""
"","html-keyboard-response","251","597866","0.0-12.0-3.15","c8gntmmyut","one_one","1","direct_first","1","rk06th10","0","24","1","1","3","1","","0","1","0","794.1999999999534","","","<img src = 'targets/mask.png' width = '100%;'>","75","neg","GS","GSnew","1","category1/GS1.png","","targets/5.png","indirect","1","31"
"","survey-html-form","252","603937","0.0-13.0","c8gntmmyut","one_one","1","direct_first","1","rk06th10","0","24","1","1","3","1","","0","1","0","5564.694999999949","","{}","","","","","","","","","","","",""
"","image-slider-response","253","608781","0.0-14.0-0.0","c8gntmmyut","one_one","1","direct_first","1","rk06th10","0","24","1","1","3","1","","0","1","0","3840.884999999893","","","","","pos","All","all","2","category2/men_all.png","67","","all","",""
"","image-slider-response","254","612267","0.0-14.0-0.1","c8gntmmyut","one_one","1","direct_first","1","rk06th10","0","24","1","1","3","1","","0","1","0","3485.320000000065","","","","","pos","All","all","3","category3/wang_all.png","36","","all","",""
"","image-slider-response","255","617464","0.0-14.0-0.2","c8gntmmyut","one_one","1","direct_first","1","rk06th10","0","24","1","1","3","1","","0","1","0","5195.405000000144","","","","","neg","All","all","1","category1/ma_all.png","-30","","all","",""
"","image-slider-response","256","620818","0.0-14.0-0.3","c8gntmmyut","one_one","1","direct_first","1","rk06th10","0","24","1","1","3","1","","0","1","0","3353.0299999999115","","","","","neg","All","all","4","category4/lin_all.png","-29","","all","",""
"","survey-text","257","622873","0.0-15.0","c8gntmmyut","one_one","1","direct_first","1","rk06th10","0","24","1","1","3","1","","0","1","0","2044.9149999999208","","{""comment"":""""}","","","","","","","","","","","",""
"","survey-html-form","258","636755","0.0-16.0","c8gntmmyut","one_one","1","direct_first","1","rk06th10","0","24","1","1","3","1","","0","1","0","13880.165000000037","","{""hinschauen"":""0"",""ablenkung"":""1"",""gewissenhaft"":""0""}","","","","","","","","","","","",""
