"success","trial_type","trial_index","time_elapsed","internal_node_id","subject","condition","condition_code","measure","measure_code","codeword","gender","age","education","chinese","fach","handedness","comment","hinschauen","ablenkung","gewissenhaft","rt","url","responses","stimulus","key_press","val","type","type_specific","category","cs_selected","response","target","task","indirect","nr_pres"
"true","fullscreen","0","3848","0.0-0.0","ttfw248xer","many_one","0","direct_first","1","at05sm01","1","31","1","1","3","1","","0","1","0","","","","","","","","","","","","","","",""
"","external-html","1","7366","0.0-1.0","ttfw248xer","many_one","0","direct_first","1","at05sm01","1","31","1","1","3","1","","0","1","0","3481.3500000018394","text/information.html","","","","","","","","","","","","",""
"","external-html","2","12883","0.0-2.0","ttfw248xer","many_one","0","direct_first","1","at05sm01","1","31","1","1","3","1","","0","1","0","5483.445000005304","text/consent.html","","","","","","","","","","","","",""
"","survey-html-form","3","76463","0.0-3.0","ttfw248xer","many_one","0","direct_first","1","at05sm01","1","31","1","1","3","1","","0","1","0","63575.989999997546","","{""codeword_enter"":""at05sm01""}","","","","","","","","","","","",""
"","survey-html-form","4","98002","0.0-4.0","ttfw248xer","many_one","0","direct_first","1","at05sm01","1","31","1","1","3","1","","0","1","0","21530.335000003106","","{""age"":""31"",""education"":""1"",""subject"":""3"",""gender"":""1"",""handedness"":""1"",""chinese"":""1""}","","","","","","","","","","","",""
"","survey-html-form","5","99641","0.0-5.0","ttfw248xer","many_one","0","direct_first","1","at05sm01","1","31","1","1","3","1","","0","1","0","1637.719999998808","","{}","","","","","","","","","","","",""
"","html-keyboard-response","6","103651","0.0-6.0-0.0-0.0","ttfw248xer","many_one","0","direct_first","1","at05sm01","1","31","1","1","3","1","","0","1","0","null","","","<div class = 'row'><div class = 'column'><img src = 'uspos/5830.bmp' width = '100%;'></div><div class = 'column'><img src = 'category3/CS6.png' width = '70%;'></div></div>","null","pos","CS","CS","3","category3/CS6.png","","","","",""
"","html-keyboard-response","7","106161","0.0-6.0-0.0-0.1","ttfw248xer","many_one","0","direct_first","1","at05sm01","1","31","1","1","3","1","","0","1","0","null","","","<div class = 'row'><div class = 'column'><img src = 'category4/CS3.png' width = '70%;'></div><div class = 'column'><img src = 'usneg/9280.bmp' width = '100%;'></div></div>","null","neg","CS","CS","4","category4/CS3.png","","","","",""
"","html-keyboard-response","8","108672","0.0-6.0-0.0-0.2","ttfw248xer","many_one","0","direct_first","1","at05sm01","1","31","1","1","3","1","","0","1","0","null","","","<div class = 'row'><div class = 'column'><img src = 'category1/CS8.png' width = '70%;'></div><div class = 'column'><img src = 'uspos/5831.bmp' width = '100%;'></div></div>","null","pos","CS","CS","1","category1/CS8.png","","","","",""
"","html-keyboard-response","9","111185","0.0-6.0-0.0-0.3","ttfw248xer","many_one","0","direct_first","1","at05sm01","1","31","1","1","3","1","","0","1","0","null","","","<div class = 'row'><div class = 'column'><img src = 'category1/CS9.png' width = '70%;'></div><div class = 'column'><img src = 'uspos/5629.bmp' width = '100%;'></div></div>","null","pos","CS","CS","1","category1/CS9.png","","","","",""
"","html-keyboard-response","10","113699","0.0-6.0-0.0-0.4","ttfw248xer","many_one","0","direct_first","1","at05sm01","1","31","1","1","3","1","","0","1","0","null","","","<div class = 'row'><div class = 'column'><img src = 'category1/CS4.png' width = '70%;'></div><div class = 'column'><img src = 'uspos/2040.bmp' width = '100%;'></div></div>","null","pos","CS","CS","1","category1/CS4.png","","","","",""
"","html-keyboard-response","11","116213","0.0-6.0-0.0-0.5","ttfw248xer","many_one","0","direct_first","1","at05sm01","1","31","1","1","3","1","","0","1","0","null","","","<div class = 'row'><div class = 'column'><img src = 'category4/CS2.png' width = '70%;'></div><div class = 'column'><img src = 'usneg/8485.bmp' width = '100%;'></div></div>","null","neg","CS","CS","4","category4/CS2.png","","","","",""
"","html-keyboard-response","12","118726","0.0-6.0-0.0-0.6","ttfw248xer","many_one","0","direct_first","1","at05sm01","1","31","1","1","3","1","","0","1","0","null","","","<div class = 'row'><div class = 'column'><img src = 'uspos/8350.bmp' width = '100%;'></div><div class = 'column'><img src = 'category3/CS5.png' width = '70%;'></div></div>","null","pos","CS","CS","3","category3/CS5.png","","","","",""
"","html-keyboard-response","13","121239","0.0-6.0-0.0-0.7","ttfw248xer","many_one","0","direct_first","1","at05sm01","1","31","1","1","3","1","","0","1","0","null","","","<div class = 'row'><div class = 'column'><img src = 'category3/CS1.png' width = '70%;'></div><div class = 'column'><img src = 'uspos/1440.bmp' width = '100%;'></div></div>","null","pos","CS","CS","3","category3/CS1.png","","","","",""
"","html-keyboard-response","14","123743","0.0-6.0-0.0-0.8","ttfw248xer","many_one","0","direct_first","1","at05sm01","1","31","1","1","3","1","","0","1","0","null","","","<div class = 'row'><div class = 'column'><img src = 'uspos/2340.bmp' width = '100%;'></div><div class = 'column'><img src = 'category3/CS8.png' width = '70%;'></div></div>","null","pos","CS","CS","3","category3/CS8.png","","","","",""
"","html-keyboard-response","15","126253","0.0-6.0-0.0-0.9","ttfw248xer","many_one","0","direct_first","1","at05sm01","1","31","1","1","3","1","","0","1","0","null","","","<div class = 'row'><div class = 'column'><img src = 'usneg/9000.bmp' width = '100%;'></div><div class = 'column'><img src = 'category4/CS10.png' width = '70%;'></div></div>","null","neg","CS","CS","4","category4/CS10.png","","","","",""
"","html-keyboard-response","16","128766","0.0-6.0-0.0-0.10","ttfw248xer","many_one","0","direct_first","1","at05sm01","1","31","1","1","3","1","","0","1","0","null","","","<div class = 'row'><div class = 'column'><img src = 'usneg/9181.bmp' width = '100%;'></div><div class = 'column'><img src = 'category2/CS3.png' width = '70%;'></div></div>","null","neg","CS","CS","2","category2/CS3.png","","","","",""
"","html-keyboard-response","17","131279","0.0-6.0-0.0-0.11","ttfw248xer","many_one","0","direct_first","1","at05sm01","1","31","1","1","3","1","","0","1","0","null","","","<div class = 'row'><div class = 'column'><img src = 'uspos/7325.bmp' width = '100%;'></div><div class = 'column'><img src = 'category1/CS2.png' width = '70%;'></div></div>","null","pos","CS","CS","1","category1/CS2.png","","","","",""
"","html-keyboard-response","18","133791","0.0-6.0-0.0-0.12","ttfw248xer","many_one","0","direct_first","1","at05sm01","1","31","1","1","3","1","","0","1","0","null","","","<div class = 'row'><div class = 'column'><img src = 'usneg/3181.bmp' width = '100%;'></div><div class = 'column'><img src = 'category2/CS4.png' width = '70%;'></div></div>","null","neg","CS","CS","2","category2/CS4.png","","","","",""
"","html-keyboard-response","19","136304","0.0-6.0-0.0-0.13","ttfw248xer","many_one","0","direct_first","1","at05sm01","1","31","1","1","3","1","","0","1","0","null","","","<div class = 'row'><div class = 'column'><img src = 'uspos/1710.bmp' width = '100%;'></div><div class = 'column'><img src = 'category3/CS4.png' width = '70%;'></div></div>","null","pos","CS","CS","3","category3/CS4.png","","","","",""
"","html-keyboard-response","20","138817","0.0-6.0-0.0-0.14","ttfw248xer","many_one","0","direct_first","1","at05sm01","1","31","1","1","3","1","","0","1","0","null","","","<div class = 'row'><div class = 'column'><img src = 'usneg/2900.bmp' width = '100%;'></div><div class = 'column'><img src = 'category4/CS9.png' width = '70%;'></div></div>","null","neg","CS","CS","4","category4/CS9.png","","","","",""
"","html-keyboard-response","21","141329","0.0-6.0-0.0-0.15","ttfw248xer","many_one","0","direct_first","1","at05sm01","1","31","1","1","3","1","","0","1","0","null","","","<div class = 'row'><div class = 'column'><img src = 'usneg/9421.bmp' width = '100%;'></div><div class = 'column'><img src = 'category2/CS1.png' width = '70%;'></div></div>","null","neg","CS","CS","2","category2/CS1.png","","","","",""
"","html-keyboard-response","22","143839","0.0-6.0-0.0-0.16","ttfw248xer","many_one","0","direct_first","1","at05sm01","1","31","1","1","3","1","","0","1","0","null","","","<div class = 'row'><div class = 'column'><img src = 'category2/CS5.png' width = '70%;'></div><div class = 'column'><img src = 'usneg/6570.1.bmp' width = '100%;'></div></div>","null","neg","CS","CS","2","category2/CS5.png","","","","",""
"","html-keyboard-response","23","146352","0.0-6.0-0.0-0.17","ttfw248xer","many_one","0","direct_first","1","at05sm01","1","31","1","1","3","1","","0","1","0","null","","","<div class = 'row'><div class = 'column'><img src = 'uspos/2550.bmp' width = '100%;'></div><div class = 'column'><img src = 'category1/CS1.png' width = '70%;'></div></div>","null","pos","CS","CS","1","category1/CS1.png","","","","",""
"","html-keyboard-response","24","148863","0.0-6.0-0.0-0.18","ttfw248xer","many_one","0","direct_first","1","at05sm01","1","31","1","1","3","1","","0","1","0","null","","","<div class = 'row'><div class = 'column'><img src = 'category4/CS4.png' width = '70%;'></div><div class = 'column'><img src = 'usneg/2750.bmp' width = '100%;'></div></div>","null","neg","CS","CS","4","category4/CS4.png","","","","",""
"","html-keyboard-response","25","151372","0.0-6.0-0.0-0.19","ttfw248xer","many_one","0","direct_first","1","at05sm01","1","31","1","1","3","1","","0","1","0","null","","","<div class = 'row'><div class = 'column'><img src = 'category2/CS7.png' width = '70%;'></div><div class = 'column'><img src = 'usneg/9830.bmp' width = '100%;'></div></div>","null","neg","CS","CS","2","category2/CS7.png","","","","",""
"","survey-html-form","26","158786","0.0-6.0-1.0","ttfw248xer","many_one","0","direct_first","1","at05sm01","1","31","1","1","3","1","","0","1","0","6912.095000006957","","{}","","","","","","","","","","","",""
"","html-keyboard-response","27","162790","0.0-6.0-2.0-0.0","ttfw248xer","many_one","0","direct_first","1","at05sm01","1","31","1","1","3","1","","0","1","0","null","","","<div class = 'row'><div class = 'column'><img src = 'uspos/2340.bmp' width = '100%;'></div><div class = 'column'><img src = 'category3/CS8.png' width = '70%;'></div></div>","null","pos","CS","CS","3","category3/CS8.png","","","","",""
"","html-keyboard-response","28","165299","0.0-6.0-2.0-0.1","ttfw248xer","many_one","0","direct_first","1","at05sm01","1","31","1","1","3","1","","0","1","0","null","","","<div class = 'row'><div class = 'column'><img src = 'uspos/2040.bmp' width = '100%;'></div><div class = 'column'><img src = 'category1/CS4.png' width = '70%;'></div></div>","null","pos","CS","CS","1","category1/CS4.png","","","","",""
"","html-keyboard-response","29","167805","0.0-6.0-2.0-0.2","ttfw248xer","many_one","0","direct_first","1","at05sm01","1","31","1","1","3","1","","0","1","0","null","","","<div class = 'row'><div class = 'column'><img src = 'uspos/5831.bmp' width = '100%;'></div><div class = 'column'><img src = 'category1/CS8.png' width = '70%;'></div></div>","null","pos","CS","CS","1","category1/CS8.png","","","","",""
"","html-keyboard-response","30","170317","0.0-6.0-2.0-0.3","ttfw248xer","many_one","0","direct_first","1","at05sm01","1","31","1","1","3","1","","0","1","0","null","","","<div class = 'row'><div class = 'column'><img src = 'category4/CS10.png' width = '70%;'></div><div class = 'column'><img src = 'usneg/9000.bmp' width = '100%;'></div></div>","null","neg","CS","CS","4","category4/CS10.png","","","","",""
"","html-keyboard-response","31","172823","0.0-6.0-2.0-0.4","ttfw248xer","many_one","0","direct_first","1","at05sm01","1","31","1","1","3","1","","0","1","0","null","","","<div class = 'row'><div class = 'column'><img src = 'category4/CS9.png' width = '70%;'></div><div class = 'column'><img src = 'usneg/2900.bmp' width = '100%;'></div></div>","null","neg","CS","CS","4","category4/CS9.png","","","","",""
"","html-keyboard-response","32","175336","0.0-6.0-2.0-0.5","ttfw248xer","many_one","0","direct_first","1","at05sm01","1","31","1","1","3","1","","0","1","0","null","","","<div class = 'row'><div class = 'column'><img src = 'usneg/9280.bmp' width = '100%;'></div><div class = 'column'><img src = 'category4/CS3.png' width = '70%;'></div></div>","null","neg","CS","CS","4","category4/CS3.png","","","","",""
"","html-keyboard-response","33","177848","0.0-6.0-2.0-0.6","ttfw248xer","many_one","0","direct_first","1","at05sm01","1","31","1","1","3","1","","0","1","0","null","","","<div class = 'row'><div class = 'column'><img src = 'category2/CS4.png' width = '70%;'></div><div class = 'column'><img src = 'usneg/3181.bmp' width = '100%;'></div></div>","null","neg","CS","CS","2","category2/CS4.png","","","","",""
"","html-keyboard-response","34","180361","0.0-6.0-2.0-0.7","ttfw248xer","many_one","0","direct_first","1","at05sm01","1","31","1","1","3","1","","0","1","0","null","","","<div class = 'row'><div class = 'column'><img src = 'usneg/9181.bmp' width = '100%;'></div><div class = 'column'><img src = 'category2/CS3.png' width = '70%;'></div></div>","null","neg","CS","CS","2","category2/CS3.png","","","","",""
"","html-keyboard-response","35","182874","0.0-6.0-2.0-0.8","ttfw248xer","many_one","0","direct_first","1","at05sm01","1","31","1","1","3","1","","0","1","0","null","","","<div class = 'row'><div class = 'column'><img src = 'category4/CS4.png' width = '70%;'></div><div class = 'column'><img src = 'usneg/2750.bmp' width = '100%;'></div></div>","null","neg","CS","CS","4","category4/CS4.png","","","","",""
"","html-keyboard-response","36","185382","0.0-6.0-2.0-0.9","ttfw248xer","many_one","0","direct_first","1","at05sm01","1","31","1","1","3","1","","0","1","0","null","","","<div class = 'row'><div class = 'column'><img src = 'category3/CS5.png' width = '70%;'></div><div class = 'column'><img src = 'uspos/8350.bmp' width = '100%;'></div></div>","null","pos","CS","CS","3","category3/CS5.png","","","","",""
"","html-keyboard-response","37","187893","0.0-6.0-2.0-0.10","ttfw248xer","many_one","0","direct_first","1","at05sm01","1","31","1","1","3","1","","0","1","0","null","","","<div class = 'row'><div class = 'column'><img src = 'category3/CS1.png' width = '70%;'></div><div class = 'column'><img src = 'uspos/1440.bmp' width = '100%;'></div></div>","null","pos","CS","CS","3","category3/CS1.png","","","","",""
"","html-keyboard-response","38","190405","0.0-6.0-2.0-0.11","ttfw248xer","many_one","0","direct_first","1","at05sm01","1","31","1","1","3","1","","0","1","0","null","","","<div class = 'row'><div class = 'column'><img src = 'uspos/5629.bmp' width = '100%;'></div><div class = 'column'><img src = 'category1/CS9.png' width = '70%;'></div></div>","null","pos","CS","CS","1","category1/CS9.png","","","","",""
"","html-keyboard-response","39","192918","0.0-6.0-2.0-0.12","ttfw248xer","many_one","0","direct_first","1","at05sm01","1","31","1","1","3","1","","0","1","0","null","","","<div class = 'row'><div class = 'column'><img src = 'category1/CS2.png' width = '70%;'></div><div class = 'column'><img src = 'uspos/7325.bmp' width = '100%;'></div></div>","null","pos","CS","CS","1","category1/CS2.png","","","","",""
"","html-keyboard-response","40","195430","0.0-6.0-2.0-0.13","ttfw248xer","many_one","0","direct_first","1","at05sm01","1","31","1","1","3","1","","0","1","0","null","","","<div class = 'row'><div class = 'column'><img src = 'category4/CS2.png' width = '70%;'></div><div class = 'column'><img src = 'usneg/8485.bmp' width = '100%;'></div></div>","null","neg","CS","CS","4","category4/CS2.png","","","","",""
"","html-keyboard-response","41","197941","0.0-6.0-2.0-0.14","ttfw248xer","many_one","0","direct_first","1","at05sm01","1","31","1","1","3","1","","0","1","0","null","","","<div class = 'row'><div class = 'column'><img src = 'category2/CS5.png' width = '70%;'></div><div class = 'column'><img src = 'usneg/6570.1.bmp' width = '100%;'></div></div>","null","neg","CS","CS","2","category2/CS5.png","","","","",""
"","html-keyboard-response","42","200453","0.0-6.0-2.0-0.15","ttfw248xer","many_one","0","direct_first","1","at05sm01","1","31","1","1","3","1","","0","1","0","null","","","<div class = 'row'><div class = 'column'><img src = 'category3/CS6.png' width = '70%;'></div><div class = 'column'><img src = 'uspos/5830.bmp' width = '100%;'></div></div>","null","pos","CS","CS","3","category3/CS6.png","","","","",""
"","html-keyboard-response","43","202962","0.0-6.0-2.0-0.16","ttfw248xer","many_one","0","direct_first","1","at05sm01","1","31","1","1","3","1","","0","1","0","null","","","<div class = 'row'><div class = 'column'><img src = 'category3/CS4.png' width = '70%;'></div><div class = 'column'><img src = 'uspos/1710.bmp' width = '100%;'></div></div>","null","pos","CS","CS","3","category3/CS4.png","","","","",""
"","html-keyboard-response","44","205474","0.0-6.0-2.0-0.17","ttfw248xer","many_one","0","direct_first","1","at05sm01","1","31","1","1","3","1","","0","1","0","null","","","<div class = 'row'><div class = 'column'><img src = 'category2/CS1.png' width = '70%;'></div><div class = 'column'><img src = 'usneg/9421.bmp' width = '100%;'></div></div>","null","neg","CS","CS","2","category2/CS1.png","","","","",""
"","html-keyboard-response","45","207984","0.0-6.0-2.0-0.18","ttfw248xer","many_one","0","direct_first","1","at05sm01","1","31","1","1","3","1","","0","1","0","null","","","<div class = 'row'><div class = 'column'><img src = 'category2/CS7.png' width = '70%;'></div><div class = 'column'><img src = 'usneg/9830.bmp' width = '100%;'></div></div>","null","neg","CS","CS","2","category2/CS7.png","","","","",""
"","html-keyboard-response","46","210495","0.0-6.0-2.0-0.19","ttfw248xer","many_one","0","direct_first","1","at05sm01","1","31","1","1","3","1","","0","1","0","null","","","<div class = 'row'><div class = 'column'><img src = 'uspos/2550.bmp' width = '100%;'></div><div class = 'column'><img src = 'category1/CS1.png' width = '70%;'></div></div>","null","pos","CS","CS","1","category1/CS1.png","","","","",""
"","survey-html-form","47","218193","0.0-6.0-3.0","ttfw248xer","many_one","0","direct_first","1","at05sm01","1","31","1","1","3","1","","0","1","0","7192.9849999869475","","{}","","","","","","","","","","","",""
"","html-keyboard-response","48","222200","0.0-6.0-4.0-0.0","ttfw248xer","many_one","0","direct_first","1","at05sm01","1","31","1","1","3","1","","0","1","0","null","","","<div class = 'row'><div class = 'column'><img src = 'category2/CS1.png' width = '70%;'></div><div class = 'column'><img src = 'usneg/9421.bmp' width = '100%;'></div></div>","null","neg","CS","CS","2","category2/CS1.png","","","","",""
"","html-keyboard-response","49","224713","0.0-6.0-4.0-0.1","ttfw248xer","many_one","0","direct_first","1","at05sm01","1","31","1","1","3","1","","0","1","0","null","","","<div class = 'row'><div class = 'column'><img src = 'uspos/2550.bmp' width = '100%;'></div><div class = 'column'><img src = 'category1/CS1.png' width = '70%;'></div></div>","null","pos","CS","CS","1","category1/CS1.png","","","","",""
"","html-keyboard-response","50","227221","0.0-6.0-4.0-0.2","ttfw248xer","many_one","0","direct_first","1","at05sm01","1","31","1","1","3","1","","0","1","0","null","","","<div class = 'row'><div class = 'column'><img src = 'category4/CS3.png' width = '70%;'></div><div class = 'column'><img src = 'usneg/9280.bmp' width = '100%;'></div></div>","null","neg","CS","CS","4","category4/CS3.png","","","","",""
"","html-keyboard-response","51","229729","0.0-6.0-4.0-0.3","ttfw248xer","many_one","0","direct_first","1","at05sm01","1","31","1","1","3","1","","0","1","0","null","","","<div class = 'row'><div class = 'column'><img src = 'category4/CS10.png' width = '70%;'></div><div class = 'column'><img src = 'usneg/9000.bmp' width = '100%;'></div></div>","null","neg","CS","CS","4","category4/CS10.png","","","","",""
"","html-keyboard-response","52","232234","0.0-6.0-4.0-0.4","ttfw248xer","many_one","0","direct_first","1","at05sm01","1","31","1","1","3","1","","0","1","0","null","","","<div class = 'row'><div class = 'column'><img src = 'uspos/5831.bmp' width = '100%;'></div><div class = 'column'><img src = 'category1/CS8.png' width = '70%;'></div></div>","null","pos","CS","CS","1","category1/CS8.png","","","","",""
"","html-keyboard-response","53","234746","0.0-6.0-4.0-0.5","ttfw248xer","many_one","0","direct_first","1","at05sm01","1","31","1","1","3","1","","0","1","0","null","","","<div class = 'row'><div class = 'column'><img src = 'category3/CS5.png' width = '70%;'></div><div class = 'column'><img src = 'uspos/8350.bmp' width = '100%;'></div></div>","null","pos","CS","CS","3","category3/CS5.png","","","","",""
"","html-keyboard-response","54","237259","0.0-6.0-4.0-0.6","ttfw248xer","many_one","0","direct_first","1","at05sm01","1","31","1","1","3","1","","0","1","0","null","","","<div class = 'row'><div class = 'column'><img src = 'usneg/6570.1.bmp' width = '100%;'></div><div class = 'column'><img src = 'category2/CS5.png' width = '70%;'></div></div>","null","neg","CS","CS","2","category2/CS5.png","","","","",""
"","html-keyboard-response","55","239771","0.0-6.0-4.0-0.7","ttfw248xer","many_one","0","direct_first","1","at05sm01","1","31","1","1","3","1","","0","1","0","null","","","<div class = 'row'><div class = 'column'><img src = 'usneg/8485.bmp' width = '100%;'></div><div class = 'column'><img src = 'category4/CS2.png' width = '70%;'></div></div>","null","neg","CS","CS","4","category4/CS2.png","","","","",""
"","html-keyboard-response","56","242284","0.0-6.0-4.0-0.8","ttfw248xer","many_one","0","direct_first","1","at05sm01","1","31","1","1","3","1","","0","1","0","null","","","<div class = 'row'><div class = 'column'><img src = 'uspos/1710.bmp' width = '100%;'></div><div class = 'column'><img src = 'category3/CS4.png' width = '70%;'></div></div>","null","pos","CS","CS","3","category3/CS4.png","","","","",""
"","html-keyboard-response","57","244796","0.0-6.0-4.0-0.9","ttfw248xer","many_one","0","direct_first","1","at05sm01","1","31","1","1","3","1","","0","1","0","null","","","<div class = 'row'><div class = 'column'><img src = 'uspos/5629.bmp' width = '100%;'></div><div class = 'column'><img src = 'category1/CS9.png' width = '70%;'></div></div>","null","pos","CS","CS","1","category1/CS9.png","","","","",""
"","html-keyboard-response","58","247309","0.0-6.0-4.0-0.10","ttfw248xer","many_one","0","direct_first","1","at05sm01","1","31","1","1","3","1","","0","1","0","null","","","<div class = 'row'><div class = 'column'><img src = 'category3/CS6.png' width = '70%;'></div><div class = 'column'><img src = 'uspos/5830.bmp' width = '100%;'></div></div>","null","pos","CS","CS","3","category3/CS6.png","","","","",""
"","html-keyboard-response","59","249817","0.0-6.0-4.0-0.11","ttfw248xer","many_one","0","direct_first","1","at05sm01","1","31","1","1","3","1","","0","1","0","null","","","<div class = 'row'><div class = 'column'><img src = 'usneg/9181.bmp' width = '100%;'></div><div class = 'column'><img src = 'category2/CS3.png' width = '70%;'></div></div>","null","neg","CS","CS","2","category2/CS3.png","","","","",""
"","html-keyboard-response","60","252330","0.0-6.0-4.0-0.12","ttfw248xer","many_one","0","direct_first","1","at05sm01","1","31","1","1","3","1","","0","1","0","null","","","<div class = 'row'><div class = 'column'><img src = 'category1/CS2.png' width = '70%;'></div><div class = 'column'><img src = 'uspos/7325.bmp' width = '100%;'></div></div>","null","pos","CS","CS","1","category1/CS2.png","","","","",""
"","html-keyboard-response","61","254842","0.0-6.0-4.0-0.13","ttfw248xer","many_one","0","direct_first","1","at05sm01","1","31","1","1","3","1","","0","1","0","null","","","<div class = 'row'><div class = 'column'><img src = 'category3/CS8.png' width = '70%;'></div><div class = 'column'><img src = 'uspos/2340.bmp' width = '100%;'></div></div>","null","pos","CS","CS","3","category3/CS8.png","","","","",""
"","html-keyboard-response","62","257353","0.0-6.0-4.0-0.14","ttfw248xer","many_one","0","direct_first","1","at05sm01","1","31","1","1","3","1","","0","1","0","null","","","<div class = 'row'><div class = 'column'><img src = 'category2/CS7.png' width = '70%;'></div><div class = 'column'><img src = 'usneg/9830.bmp' width = '100%;'></div></div>","null","neg","CS","CS","2","category2/CS7.png","","","","",""
"","html-keyboard-response","63","259865","0.0-6.0-4.0-0.15","ttfw248xer","many_one","0","direct_first","1","at05sm01","1","31","1","1","3","1","","0","1","0","null","","","<div class = 'row'><div class = 'column'><img src = 'usneg/2900.bmp' width = '100%;'></div><div class = 'column'><img src = 'category4/CS9.png' width = '70%;'></div></div>","null","neg","CS","CS","4","category4/CS9.png","","","","",""
"","html-keyboard-response","64","262374","0.0-6.0-4.0-0.16","ttfw248xer","many_one","0","direct_first","1","at05sm01","1","31","1","1","3","1","","0","1","0","null","","","<div class = 'row'><div class = 'column'><img src = 'usneg/3181.bmp' width = '100%;'></div><div class = 'column'><img src = 'category2/CS4.png' width = '70%;'></div></div>","null","neg","CS","CS","2","category2/CS4.png","","","","",""
"","html-keyboard-response","65","264882","0.0-6.0-4.0-0.17","ttfw248xer","many_one","0","direct_first","1","at05sm01","1","31","1","1","3","1","","0","1","0","null","","","<div class = 'row'><div class = 'column'><img src = 'uspos/1440.bmp' width = '100%;'></div><div class = 'column'><img src = 'category3/CS1.png' width = '70%;'></div></div>","null","pos","CS","CS","3","category3/CS1.png","","","","",""
"","html-keyboard-response","66","267388","0.0-6.0-4.0-0.18","ttfw248xer","many_one","0","direct_first","1","at05sm01","1","31","1","1","3","1","","0","1","0","null","","","<div class = 'row'><div class = 'column'><img src = 'uspos/2040.bmp' width = '100%;'></div><div class = 'column'><img src = 'category1/CS4.png' width = '70%;'></div></div>","null","pos","CS","CS","1","category1/CS4.png","","","","",""
"","html-keyboard-response","67","269900","0.0-6.0-4.0-0.19","ttfw248xer","many_one","0","direct_first","1","at05sm01","1","31","1","1","3","1","","0","1","0","null","","","<div class = 'row'><div class = 'column'><img src = 'category4/CS4.png' width = '70%;'></div><div class = 'column'><img src = 'usneg/2750.bmp' width = '100%;'></div></div>","null","neg","CS","CS","4","category4/CS4.png","","","","",""
"","survey-html-form","68","275390","0.0-6.0-5.0","ttfw248xer","many_one","0","direct_first","1","at05sm01","1","31","1","1","3","1","","0","1","0","4983.99999999674","","{}","","","","","","","","","","","",""
"","html-keyboard-response","69","279401","0.0-6.0-6.0-0.0","ttfw248xer","many_one","0","direct_first","1","at05sm01","1","31","1","1","3","1","","0","1","0","null","","","<div class = 'row'><div class = 'column'><img src = 'usneg/9830.bmp' width = '100%;'></div><div class = 'column'><img src = 'category2/CS7.png' width = '70%;'></div></div>","null","neg","CS","CS","2","category2/CS7.png","","","","",""
"","html-keyboard-response","70","281913","0.0-6.0-6.0-0.1","ttfw248xer","many_one","0","direct_first","1","at05sm01","1","31","1","1","3","1","","0","1","0","null","","","<div class = 'row'><div class = 'column'><img src = 'category4/CS10.png' width = '70%;'></div><div class = 'column'><img src = 'usneg/9000.bmp' width = '100%;'></div></div>","null","neg","CS","CS","4","category4/CS10.png","","","","",""
"","html-keyboard-response","71","284422","0.0-6.0-6.0-0.2","ttfw248xer","many_one","0","direct_first","1","at05sm01","1","31","1","1","3","1","","0","1","0","null","","","<div class = 'row'><div class = 'column'><img src = 'category3/CS8.png' width = '70%;'></div><div class = 'column'><img src = 'uspos/2340.bmp' width = '100%;'></div></div>","null","pos","CS","CS","3","category3/CS8.png","","","","",""
"","html-keyboard-response","72","286934","0.0-6.0-6.0-0.3","ttfw248xer","many_one","0","direct_first","1","at05sm01","1","31","1","1","3","1","","0","1","0","null","","","<div class = 'row'><div class = 'column'><img src = 'usneg/2750.bmp' width = '100%;'></div><div class = 'column'><img src = 'category4/CS4.png' width = '70%;'></div></div>","null","neg","CS","CS","4","category4/CS4.png","","","","",""
"","html-keyboard-response","73","289442","0.0-6.0-6.0-0.4","ttfw248xer","many_one","0","direct_first","1","at05sm01","1","31","1","1","3","1","","0","1","0","null","","","<div class = 'row'><div class = 'column'><img src = 'category1/CS9.png' width = '70%;'></div><div class = 'column'><img src = 'uspos/5629.bmp' width = '100%;'></div></div>","null","pos","CS","CS","1","category1/CS9.png","","","","",""
"","html-keyboard-response","74","291952","0.0-6.0-6.0-0.5","ttfw248xer","many_one","0","direct_first","1","at05sm01","1","31","1","1","3","1","","0","1","0","null","","","<div class = 'row'><div class = 'column'><img src = 'uspos/2040.bmp' width = '100%;'></div><div class = 'column'><img src = 'category1/CS4.png' width = '70%;'></div></div>","null","pos","CS","CS","1","category1/CS4.png","","","","",""
"","html-keyboard-response","75","294464","0.0-6.0-6.0-0.6","ttfw248xer","many_one","0","direct_first","1","at05sm01","1","31","1","1","3","1","","0","1","0","null","","","<div class = 'row'><div class = 'column'><img src = 'uspos/2550.bmp' width = '100%;'></div><div class = 'column'><img src = 'category1/CS1.png' width = '70%;'></div></div>","null","pos","CS","CS","1","category1/CS1.png","","","","",""
"","html-keyboard-response","76","296976","0.0-6.0-6.0-0.7","ttfw248xer","many_one","0","direct_first","1","at05sm01","1","31","1","1","3","1","","0","1","0","null","","","<div class = 'row'><div class = 'column'><img src = 'category3/CS4.png' width = '70%;'></div><div class = 'column'><img src = 'uspos/1710.bmp' width = '100%;'></div></div>","null","pos","CS","CS","3","category3/CS4.png","","","","",""
"","html-keyboard-response","77","299489","0.0-6.0-6.0-0.8","ttfw248xer","many_one","0","direct_first","1","at05sm01","1","31","1","1","3","1","","0","1","0","null","","","<div class = 'row'><div class = 'column'><img src = 'category2/CS4.png' width = '70%;'></div><div class = 'column'><img src = 'usneg/3181.bmp' width = '100%;'></div></div>","null","neg","CS","CS","2","category2/CS4.png","","","","",""
"","html-keyboard-response","78","302001","0.0-6.0-6.0-0.9","ttfw248xer","many_one","0","direct_first","1","at05sm01","1","31","1","1","3","1","","0","1","0","null","","","<div class = 'row'><div class = 'column'><img src = 'usneg/8485.bmp' width = '100%;'></div><div class = 'column'><img src = 'category4/CS2.png' width = '70%;'></div></div>","null","neg","CS","CS","4","category4/CS2.png","","","","",""
"","html-keyboard-response","79","304514","0.0-6.0-6.0-0.10","ttfw248xer","many_one","0","direct_first","1","at05sm01","1","31","1","1","3","1","","0","1","0","null","","","<div class = 'row'><div class = 'column'><img src = 'category3/CS5.png' width = '70%;'></div><div class = 'column'><img src = 'uspos/8350.bmp' width = '100%;'></div></div>","null","pos","CS","CS","3","category3/CS5.png","","","","",""
"","html-keyboard-response","80","307023","0.0-6.0-6.0-0.11","ttfw248xer","many_one","0","direct_first","1","at05sm01","1","31","1","1","3","1","","0","1","0","null","","","<div class = 'row'><div class = 'column'><img src = 'category4/CS3.png' width = '70%;'></div><div class = 'column'><img src = 'usneg/9280.bmp' width = '100%;'></div></div>","null","neg","CS","CS","4","category4/CS3.png","","","","",""
"","html-keyboard-response","81","309536","0.0-6.0-6.0-0.12","ttfw248xer","many_one","0","direct_first","1","at05sm01","1","31","1","1","3","1","","0","1","0","null","","","<div class = 'row'><div class = 'column'><img src = 'uspos/1440.bmp' width = '100%;'></div><div class = 'column'><img src = 'category3/CS1.png' width = '70%;'></div></div>","null","pos","CS","CS","3","category3/CS1.png","","","","",""
"","html-keyboard-response","82","312049","0.0-6.0-6.0-0.13","ttfw248xer","many_one","0","direct_first","1","at05sm01","1","31","1","1","3","1","","0","1","0","null","","","<div class = 'row'><div class = 'column'><img src = 'category2/CS5.png' width = '70%;'></div><div class = 'column'><img src = 'usneg/6570.1.bmp' width = '100%;'></div></div>","null","neg","CS","CS","2","category2/CS5.png","","","","",""
"","html-keyboard-response","83","314561","0.0-6.0-6.0-0.14","ttfw248xer","many_one","0","direct_first","1","at05sm01","1","31","1","1","3","1","","0","1","0","null","","","<div class = 'row'><div class = 'column'><img src = 'usneg/9181.bmp' width = '100%;'></div><div class = 'column'><img src = 'category2/CS3.png' width = '70%;'></div></div>","null","neg","CS","CS","2","category2/CS3.png","","","","",""
"","html-keyboard-response","84","317072","0.0-6.0-6.0-0.15","ttfw248xer","many_one","0","direct_first","1","at05sm01","1","31","1","1","3","1","","0","1","0","null","","","<div class = 'row'><div class = 'column'><img src = 'category1/CS2.png' width = '70%;'></div><div class = 'column'><img src = 'uspos/7325.bmp' width = '100%;'></div></div>","null","pos","CS","CS","1","category1/CS2.png","","","","",""
"","html-keyboard-response","85","319584","0.0-6.0-6.0-0.16","ttfw248xer","many_one","0","direct_first","1","at05sm01","1","31","1","1","3","1","","0","1","0","null","","","<div class = 'row'><div class = 'column'><img src = 'category1/CS8.png' width = '70%;'></div><div class = 'column'><img src = 'uspos/5831.bmp' width = '100%;'></div></div>","null","pos","CS","CS","1","category1/CS8.png","","","","",""
"","html-keyboard-response","86","322097","0.0-6.0-6.0-0.17","ttfw248xer","many_one","0","direct_first","1","at05sm01","1","31","1","1","3","1","","0","1","0","null","","","<div class = 'row'><div class = 'column'><img src = 'category3/CS6.png' width = '70%;'></div><div class = 'column'><img src = 'uspos/5830.bmp' width = '100%;'></div></div>","null","pos","CS","CS","3","category3/CS6.png","","","","",""
"","html-keyboard-response","87","324609","0.0-6.0-6.0-0.18","ttfw248xer","many_one","0","direct_first","1","at05sm01","1","31","1","1","3","1","","0","1","0","null","","","<div class = 'row'><div class = 'column'><img src = 'category2/CS1.png' width = '70%;'></div><div class = 'column'><img src = 'usneg/9421.bmp' width = '100%;'></div></div>","null","neg","CS","CS","2","category2/CS1.png","","","","",""
"","html-keyboard-response","88","327121","0.0-6.0-6.0-0.19","ttfw248xer","many_one","0","direct_first","1","at05sm01","1","31","1","1","3","1","","0","1","0","null","","","<div class = 'row'><div class = 'column'><img src = 'category4/CS9.png' width = '70%;'></div><div class = 'column'><img src = 'usneg/2900.bmp' width = '100%;'></div></div>","null","neg","CS","CS","4","category4/CS9.png","","","","",""
"","survey-html-form","89","338187","0.0-7.0","ttfw248xer","many_one","0","direct_first","1","at05sm01","1","31","1","1","3","1","","0","1","0","10560.519999999087","","{}","","","","","","","","","","","",""
"","image-slider-response","90","348357","0.0-8.0-0.0","ttfw248xer","many_one","0","direct_first","1","at05sm01","1","31","1","1","3","1","","0","1","0","8167.524999997113","","","","","pos","GS","GSnew","3","category3/GS1.png","-54","targets/47.png","direct","",""
"","image-slider-response","91","354043","0.0-8.0-0.1","ttfw248xer","many_one","0","direct_first","1","at05sm01","1","31","1","1","3","1","","0","1","0","5682.679999998072","","","","","neg","CS","CS","4","category4/CS10.png","61","targets/5.png","direct","",""
"","image-slider-response","92","359352","0.0-8.0-0.2","ttfw248xer","many_one","0","direct_first","1","at05sm01","1","31","1","1","3","1","","0","1","0","5305.060000013327","","","","","neg","GS","GSold","4","category4/CS6.png","-100","targets/40.png","direct","",""
"","image-slider-response","93","362606","0.0-8.0-0.3","ttfw248xer","many_one","0","direct_first","1","at05sm01","1","31","1","1","3","1","","0","1","0","3251.315000001341","","","","","pos","CS","CS","3","category3/CS1.png","30","targets/19.png","direct","",""
"","image-slider-response","94","366696","0.0-8.0-0.4","ttfw248xer","many_one","0","direct_first","1","at05sm01","1","31","1","1","3","1","","0","1","0","4086.055000007036","","","","","neg","CS","CS","4","category4/CS4.png","85","targets/20.png","direct","",""
"","image-slider-response","95","370891","0.0-8.0-0.5","ttfw248xer","many_one","0","direct_first","1","at05sm01","1","31","1","1","3","1","","0","1","0","4189.905000006547","","","","","pos","GS","GSold","1","category1/CS6.png","89","targets/1.png","direct","",""
"","image-slider-response","96","374972","0.0-8.0-0.6","ttfw248xer","many_one","0","direct_first","1","at05sm01","1","31","1","1","3","1","","0","1","0","4078.240000002552","","","","","neg","GS","GSold","2","category2/CS10.png","-100","targets/15.png","direct","",""
"","image-slider-response","97","378706","0.0-8.0-0.7","ttfw248xer","many_one","0","direct_first","1","at05sm01","1","31","1","1","3","1","","0","1","0","3728.510000000824","","","","","neg","GS","GSold","2","category2/CS9.png","-100","targets/43.png","direct","",""
"","image-slider-response","98","381680","0.0-8.0-0.8","ttfw248xer","many_one","0","direct_first","1","at05sm01","1","31","1","1","3","1","","0","1","0","2971.210000003339","","","","","pos","CS","CS","1","category1/CS4.png","50","targets/42.png","direct","",""
"","image-slider-response","99","385224","0.0-8.0-0.9","ttfw248xer","many_one","0","direct_first","1","at05sm01","1","31","1","1","3","1","","0","1","0","3542.249999998603","","","","","pos","GS","GSnew","1","category1/GS1.png","50","targets/37.png","direct","",""
"","image-slider-response","100","388087","0.0-8.0-0.10","ttfw248xer","many_one","0","direct_first","1","at05sm01","1","31","1","1","3","1","","0","1","0","2859.550000008312","","","","","neg","CS","CS","4","category4/CS9.png","28","targets/22.png","direct","",""
"","image-slider-response","101","391229","0.0-8.0-0.11","ttfw248xer","many_one","0","direct_first","1","at05sm01","1","31","1","1","3","1","","0","1","0","3139.9549999914598","","","","","pos","GS","GSold","1","category1/CS5.png","-49","targets/21.png","direct","",""
"","image-slider-response","102","393852","0.0-8.0-0.12","ttfw248xer","many_one","0","direct_first","1","at05sm01","1","31","1","1","3","1","","0","1","0","2619.124999997439","","","","","neg","GS","GSnew","2","category2/GS3.png","45","targets/26.png","direct","",""
"","image-slider-response","103","397805","0.0-8.0-0.13","ttfw248xer","many_one","0","direct_first","1","at05sm01","1","31","1","1","3","1","","0","1","0","3950.665000011213","","","","","neg","CS","CS","4","category4/CS2.png","-100","targets/8.png","direct","",""
"","image-slider-response","104","400387","0.0-8.0-0.14","ttfw248xer","many_one","0","direct_first","1","at05sm01","1","31","1","1","3","1","","0","1","0","2578.3550000051036","","","","","pos","GS","GSnew","1","category1/GS3.png","46","targets/23.png","direct","",""
"","image-slider-response","105","403306","0.0-8.0-0.15","ttfw248xer","many_one","0","direct_first","1","at05sm01","1","31","1","1","3","1","","0","1","0","2915.534999992815","","","","","pos","GS","GSold","1","category1/CS10.png","10","targets/33.png","direct","",""
"","image-slider-response","106","408284","0.0-8.0-0.16","ttfw248xer","many_one","0","direct_first","1","at05sm01","1","31","1","1","3","1","","0","1","0","4973.794999998063","","","","","pos","CS","CS","1","category1/CS2.png","12","targets/46.png","direct","",""
"","image-slider-response","107","411594","0.0-8.0-0.17","ttfw248xer","many_one","0","direct_first","1","at05sm01","1","31","1","1","3","1","","0","1","0","3307.524999996531","","","","","pos","CS","CS","3","category3/CS8.png","70","targets/7.png","direct","",""
"","image-slider-response","108","415404","0.0-8.0-0.18","ttfw248xer","many_one","0","direct_first","1","at05sm01","1","31","1","1","3","1","","0","1","0","3808.0799999879673","","","","","neg","GS","GSnew","4","category4/GS3.png","36","targets/14.png","direct","",""
"","image-slider-response","109","418827","0.0-8.0-0.19","ttfw248xer","many_one","0","direct_first","1","at05sm01","1","31","1","1","3","1","","0","1","0","3420.2599999989616","","","","","neg","CS","CS","2","category2/CS1.png","-37","targets/18.png","direct","",""
"","image-slider-response","110","423165","0.0-8.0-0.20","ttfw248xer","many_one","0","direct_first","1","at05sm01","1","31","1","1","3","1","","0","1","0","4335.1350000011735","","","","","neg","GS","abstract","4","category4/lin.png","100","targets/25.png","direct","",""
"","image-slider-response","111","426953","0.0-8.0-0.21","ttfw248xer","many_one","0","direct_first","1","at05sm01","1","31","1","1","3","1","","0","1","0","3781.5199999895412","","","","","neg","GS","abstract","2","category2/men.png","100","targets/30.png","direct","",""
"","image-slider-response","112","429725","0.0-8.0-0.22","ttfw248xer","many_one","0","direct_first","1","at05sm01","1","31","1","1","3","1","","0","1","0","2769.5399999938672","","","","","pos","CS","CS","3","category3/CS5.png","27","targets/2.png","direct","",""
"","image-slider-response","113","432403","0.0-8.0-0.23","ttfw248xer","many_one","0","direct_first","1","at05sm01","1","31","1","1","3","1","","0","1","0","2672.999999995227","","","","","neg","GS","GSold","2","category2/CS6.png","22","targets/36.png","direct","",""
"","image-slider-response","114","434825","0.0-8.0-0.24","ttfw248xer","many_one","0","direct_first","1","at05sm01","1","31","1","1","3","1","","0","1","0","2418.0750000086846","","","","","pos","GS","GSold","3","category3/CS3.png","-28","targets/34.png","direct","",""
"","image-slider-response","115","438752","0.0-8.0-0.25","ttfw248xer","many_one","0","direct_first","1","at05sm01","1","31","1","1","3","1","","0","1","0","3921.6900000028545","","","","","neg","CS","CS","4","category4/CS3.png","-97","targets/10.png","direct","",""
"","image-slider-response","116","442679","0.0-8.0-0.26","ttfw248xer","many_one","0","direct_first","1","at05sm01","1","31","1","1","3","1","","0","1","0","3924.4499999913387","","","","","neg","CS","CS","2","category2/CS7.png","-100","targets/13.png","direct","",""
"","image-slider-response","117","448381","0.0-8.0-0.27","ttfw248xer","many_one","0","direct_first","1","at05sm01","1","31","1","1","3","1","","0","1","0","5697.870000003604","","","","","pos","GS","GSnew","3","category3/GS3.png","34","targets/3.png","direct","",""
"","image-slider-response","118","451364","0.0-8.0-0.28","ttfw248xer","many_one","0","direct_first","1","at05sm01","1","31","1","1","3","1","","0","1","0","2980.154999997467","","","","","pos","CS","CS","1","category1/CS9.png","-59","targets/38.png","direct","",""
"","image-slider-response","119","454307","0.0-8.0-0.29","ttfw248xer","many_one","0","direct_first","1","at05sm01","1","31","1","1","3","1","","0","1","0","2940.389999988838","","","","","pos","CS","CS","1","category1/CS8.png","-73","targets/9.png","direct","",""
"","image-slider-response","120","457499","0.0-8.0-0.30","ttfw248xer","many_one","0","direct_first","1","at05sm01","1","31","1","1","3","1","","0","1","0","3189.5300000032876","","","","","pos","GS","GSold","3","category3/CS7.png","-57","targets/11.png","direct","",""
"","image-slider-response","121","460041","0.0-8.0-0.31","ttfw248xer","many_one","0","direct_first","1","at05sm01","1","31","1","1","3","1","","0","1","0","2539.805000007618","","","","","pos","GS","GSold","3","category3/CS2.png","-34","targets/6.png","direct","",""
"","image-slider-response","122","462463","0.0-8.0-0.32","ttfw248xer","many_one","0","direct_first","1","at05sm01","1","31","1","1","3","1","","0","1","0","2418.2549999968614","","","","","neg","GS","GSnew","2","category2/GS1.png","29","targets/29.png","direct","",""
"","image-slider-response","123","465078","0.0-8.0-0.33","ttfw248xer","many_one","0","direct_first","1","at05sm01","1","31","1","1","3","1","","0","1","0","2611.2150000117254","","","","","neg","GS","GSold","4","category4/CS8.png","28","targets/16.png","direct","",""
"","image-slider-response","124","467933","0.0-8.0-0.34","ttfw248xer","many_one","0","direct_first","1","at05sm01","1","31","1","1","3","1","","0","1","0","2852.515000005951","","","","","pos","GS","abstract","1","category1/ma.png","-11","targets/4.png","direct","",""
"","image-slider-response","125","471090","0.0-8.0-0.35","ttfw248xer","many_one","0","direct_first","1","at05sm01","1","31","1","1","3","1","","0","1","0","3153.7399999942863","","","","","pos","GS","GSnew","3","category3/GS2.png","55","targets/31.png","direct","",""
"","image-slider-response","126","473720","0.0-8.0-0.36","ttfw248xer","many_one","0","direct_first","1","at05sm01","1","31","1","1","3","1","","0","1","0","2627.1249999990687","","","","","pos","GS","abstract","3","category3/wang.png","78","targets/48.png","direct","",""
"","image-slider-response","127","479334","0.0-8.0-0.37","ttfw248xer","many_one","0","direct_first","1","at05sm01","1","31","1","1","3","1","","0","1","0","5611.9200000102865","","","","","pos","CS","CS","3","category3/CS4.png","68","targets/35.png","direct","",""
"","image-slider-response","128","482888","0.0-8.0-0.38","ttfw248xer","many_one","0","direct_first","1","at05sm01","1","31","1","1","3","1","","0","1","0","3551.2049999961164","","","","","neg","CS","CS","2","category2/CS4.png","-74","targets/41.png","direct","",""
"","image-slider-response","129","486568","0.0-8.0-0.39","ttfw248xer","many_one","0","direct_first","1","at05sm01","1","31","1","1","3","1","","0","1","0","3677.32000000251","","","","","pos","CS","CS","3","category3/CS6.png","25","targets/12.png","direct","",""
"","image-slider-response","130","489848","0.0-8.0-0.40","ttfw248xer","many_one","0","direct_first","1","at05sm01","1","31","1","1","3","1","","0","1","0","3276.8300000025192","","","","","neg","GS","GSnew","2","category2/GS2.png","38","targets/28.png","direct","",""
"","image-slider-response","131","492841","0.0-8.0-0.41","ttfw248xer","many_one","0","direct_first","1","at05sm01","1","31","1","1","3","1","","0","1","0","2988.819999998668","","","","","neg","CS","CS","2","category2/CS3.png","-53","targets/44.png","direct","",""
"","image-slider-response","132","495639","0.0-8.0-0.42","ttfw248xer","many_one","0","direct_first","1","at05sm01","1","31","1","1","3","1","","0","1","0","2793.8500000018394","","","","","neg","CS","CS","2","category2/CS5.png","-69","targets/17.png","direct","",""
"","image-slider-response","133","497948","0.0-8.0-0.43","ttfw248xer","many_one","0","direct_first","1","at05sm01","1","31","1","1","3","1","","0","1","0","2306.9350000005215","","","","","pos","GS","GSnew","1","category1/GS2.png","17","targets/32.png","direct","",""
"","image-slider-response","134","501067","0.0-8.0-0.44","ttfw248xer","many_one","0","direct_first","1","at05sm01","1","31","1","1","3","1","","0","1","0","3117.2550000046613","","","","","neg","GS","GSnew","4","category4/GS2.png","-61","targets/24.png","direct","",""
"","image-slider-response","135","503634","0.0-8.0-0.45","ttfw248xer","many_one","0","direct_first","1","at05sm01","1","31","1","1","3","1","","0","1","0","2561.260000002221","","","","","neg","GS","GSold","4","category4/CS7.png","34","targets/27.png","direct","",""
"","image-slider-response","136","506596","0.0-8.0-0.46","ttfw248xer","many_one","0","direct_first","1","at05sm01","1","31","1","1","3","1","","0","1","0","2960.4200000030687","","","","","neg","GS","GSnew","4","category4/GS1.png","-68","targets/39.png","direct","",""
"","image-slider-response","137","509331","0.0-8.0-0.47","ttfw248xer","many_one","0","direct_first","1","at05sm01","1","31","1","1","3","1","","0","1","0","2731.325000000652","","","","","pos","CS","CS","1","category1/CS1.png","25","targets/45.png","direct","",""
"","html-keyboard-response","138","534872","0.0-9.0","ttfw248xer","many_one","0","direct_first","1","at05sm01","1","31","1","1","3","1","","0","1","0","25537.079999994603","","","<p>Sie sehen nun die chinesischen Zeichen nur ganz kurz. Danach sehen Sie die jeweilige Aussprache der Zeichen als Silbe auf dem Bildschrim. Ihre Aufgabe ist es, für jede Silbe anzugeben, ob diese etwas angenehmes, oder unangenehmes bedeuten könnte. Verlassen Sie sich hier vor allem auf Ihre Intuition.<br><br>Die Zeichen werden nur zur Orientierung dargestellt, beachten Sie sie deshalb nicht. Konzentrieren Sie sich vor allem auf die Silben. <br>Reagieren Sie mit folgenden zwei Tasten: <br><br><b>'D' </b> wenn die Silbe etwas <b>unangenehmes</b> bedeuten könnte. <br><b>'K'</b> wenn die Silbe etwas <b>angenehmes</b> bedeuten könnte. <br><br>Bitte legen Sie nun den Zeigefinger der linken Hand auf die Taste 'D' und den Zeigefinger der rechten Hand auf die Taste 'K'. <br>Reagieren Sie auf jede Silbe so schnell wie möglich. Uns interessiert Ihre spontane Reaktion. <br> <br> <br>Drücken Sie 'D' oder 'K', um die nächste Aufgabe zu starten. </p>","68","","","","","","","","","",""
"","html-keyboard-response","139","537879","0.0-10.0-0.0","ttfw248xer","many_one","0","direct_first","1","at05sm01","1","31","1","1","3","1","","0","1","0","null","","","<div style=""font-size:60px;"">+</div>","null","","","","","","","","","",""
"","html-keyboard-response","140","537970","0.0-10.0-1.0","ttfw248xer","many_one","0","direct_first","1","at05sm01","1","31","1","1","3","1","","0","1","0","null","","","<img src = 'category4/CS9.png' width = '100%;'>","null","","","","","","","","","",""
"","html-keyboard-response","141","538232","0.0-10.0-2.0","ttfw248xer","many_one","0","direct_first","1","at05sm01","1","31","1","1","3","1","","0","1","0","null","","","<img src = 'targets/22.png' width = '100%;'>","null","","","","","","","","","",""
"","html-keyboard-response","142","542423","0.0-10.0-3.0","ttfw248xer","many_one","0","direct_first","1","at05sm01","1","31","1","1","3","1","","0","1","0","4189.585000000079","","","<img src = 'targets/mask.png' width = '100%;'>","68","neg","CS","CS","4","category4/CS9.png","","targets/22.png","indirect","0","0"
"","html-keyboard-response","143","543927","0.0-10.0-0.1","ttfw248xer","many_one","0","direct_first","1","at05sm01","1","31","1","1","3","1","","0","1","0","null","","","<div style=""font-size:60px;"">+</div>","null","","","","","","","","","",""
"","html-keyboard-response","144","544020","0.0-10.0-1.1","ttfw248xer","many_one","0","direct_first","1","at05sm01","1","31","1","1","3","1","","0","1","0","null","","","<img src = 'category1/CS6.png' width = '100%;'>","null","","","","","","","","","",""
"","html-keyboard-response","145","544273","0.0-10.0-2.1","ttfw248xer","many_one","0","direct_first","1","at05sm01","1","31","1","1","3","1","","0","1","0","null","","","<img src = 'targets/1.png' width = '100%;'>","null","","","","","","","","","",""
"","html-keyboard-response","146","545979","0.0-10.0-3.1","ttfw248xer","many_one","0","direct_first","1","at05sm01","1","31","1","1","3","1","","0","1","0","1704.5499999949243","","","<img src = 'targets/mask.png' width = '100%;'>","68","pos","GS","GSold","1","category1/CS6.png","","targets/1.png","indirect","0","1"
"","html-keyboard-response","147","547483","0.0-10.0-0.2","ttfw248xer","many_one","0","direct_first","1","at05sm01","1","31","1","1","3","1","","0","1","0","null","","","<div style=""font-size:60px;"">+</div>","null","","","","","","","","","",""
"","html-keyboard-response","148","547576","0.0-10.0-1.2","ttfw248xer","many_one","0","direct_first","1","at05sm01","1","31","1","1","3","1","","0","1","0","null","","","<img src = 'category2/CS9.png' width = '100%;'>","null","","","","","","","","","",""
"","html-keyboard-response","149","547837","0.0-10.0-2.2","ttfw248xer","many_one","0","direct_first","1","at05sm01","1","31","1","1","3","1","","0","1","0","null","","","<img src = 'targets/43.png' width = '100%;'>","null","","","","","","","","","",""
"","html-keyboard-response","150","548867","0.0-10.0-3.2","ttfw248xer","many_one","0","direct_first","1","at05sm01","1","31","1","1","3","1","","0","1","0","1027.6999999914551","","","<img src = 'targets/mask.png' width = '100%;'>","75","neg","GS","GSold","2","category2/CS9.png","","targets/43.png","indirect","1","2"
"","html-keyboard-response","151","550374","0.0-10.0-0.3","ttfw248xer","many_one","0","direct_first","1","at05sm01","1","31","1","1","3","1","","0","1","0","null","","","<div style=""font-size:60px;"">+</div>","null","","","","","","","","","",""
"","html-keyboard-response","152","550465","0.0-10.0-1.3","ttfw248xer","many_one","0","direct_first","1","at05sm01","1","31","1","1","3","1","","0","1","0","null","","","<img src = 'category1/CS2.png' width = '100%;'>","null","","","","","","","","","",""
"","html-keyboard-response","153","550718","0.0-10.0-2.3","ttfw248xer","many_one","0","direct_first","1","at05sm01","1","31","1","1","3","1","","0","1","0","null","","","<img src = 'targets/46.png' width = '100%;'>","null","","","","","","","","","",""
"","html-keyboard-response","154","551735","0.0-10.0-3.3","ttfw248xer","many_one","0","direct_first","1","at05sm01","1","31","1","1","3","1","","0","1","0","1015.3300000092713","","","<img src = 'targets/mask.png' width = '100%;'>","68","pos","CS","CS","1","category1/CS2.png","","targets/46.png","indirect","0","3"
"","html-keyboard-response","155","553241","0.0-10.0-0.4","ttfw248xer","many_one","0","direct_first","1","at05sm01","1","31","1","1","3","1","","0","1","0","null","","","<div style=""font-size:60px;"">+</div>","null","","","","","","","","","",""
"","html-keyboard-response","156","553335","0.0-10.0-1.4","ttfw248xer","many_one","0","direct_first","1","at05sm01","1","31","1","1","3","1","","0","1","0","null","","","<img src = 'category2/CS3.png' width = '100%;'>","null","","","","","","","","","",""
"","html-keyboard-response","157","553595","0.0-10.0-2.4","ttfw248xer","many_one","0","direct_first","1","at05sm01","1","31","1","1","3","1","","0","1","0","null","","","<img src = 'targets/44.png' width = '100%;'>","null","","","","","","","","","",""
"","html-keyboard-response","158","554383","0.0-10.0-3.4","ttfw248xer","many_one","0","direct_first","1","at05sm01","1","31","1","1","3","1","","0","1","0","787.1699999959674","","","<img src = 'targets/mask.png' width = '100%;'>","68","neg","CS","CS","2","category2/CS3.png","","targets/44.png","indirect","0","4"
"","html-keyboard-response","159","555894","0.0-10.0-0.5","ttfw248xer","many_one","0","direct_first","1","at05sm01","1","31","1","1","3","1","","0","1","0","null","","","<div style=""font-size:60px;"">+</div>","null","","","","","","","","","",""
"","html-keyboard-response","160","555988","0.0-10.0-1.5","ttfw248xer","many_one","0","direct_first","1","at05sm01","1","31","1","1","3","1","","0","1","0","null","","","<img src = 'category1/CS9.png' width = '100%;'>","null","","","","","","","","","",""
"","html-keyboard-response","161","556241","0.0-10.0-2.5","ttfw248xer","many_one","0","direct_first","1","at05sm01","1","31","1","1","3","1","","0","1","0","null","","","<img src = 'targets/38.png' width = '100%;'>","null","","","","","","","","","",""
"","html-keyboard-response","162","560628","0.0-10.0-3.5","ttfw248xer","many_one","0","direct_first","1","at05sm01","1","31","1","1","3","1","","0","1","0","4386.6650000127265","","","<img src = 'targets/mask.png' width = '100%;'>","68","pos","CS","CS","1","category1/CS9.png","","targets/38.png","indirect","0","5"
"","html-keyboard-response","163","562139","0.0-10.0-0.6","ttfw248xer","many_one","0","direct_first","1","at05sm01","1","31","1","1","3","1","","0","1","0","null","","","<div style=""font-size:60px;"">+</div>","null","","","","","","","","","",""
"","html-keyboard-response","164","562235","0.0-10.0-1.6","ttfw248xer","many_one","0","direct_first","1","at05sm01","1","31","1","1","3","1","","0","1","0","null","","","<img src = 'category2/CS7.png' width = '100%;'>","null","","","","","","","","","",""
"","html-keyboard-response","165","562495","0.0-10.0-2.6","ttfw248xer","many_one","0","direct_first","1","at05sm01","1","31","1","1","3","1","","0","1","0","null","","","<img src = 'targets/13.png' width = '100%;'>","null","","","","","","","","","",""
"","html-keyboard-response","166","563268","0.0-10.0-3.6","ttfw248xer","many_one","0","direct_first","1","at05sm01","1","31","1","1","3","1","","0","1","0","771.4200000045821","","","<img src = 'targets/mask.png' width = '100%;'>","75","neg","CS","CS","2","category2/CS7.png","","targets/13.png","indirect","1","6"
"","html-keyboard-response","167","564778","0.0-10.0-0.7","ttfw248xer","many_one","0","direct_first","1","at05sm01","1","31","1","1","3","1","","0","1","0","null","","","<div style=""font-size:60px;"">+</div>","null","","","","","","","","","",""
"","html-keyboard-response","168","564873","0.0-10.0-1.7","ttfw248xer","many_one","0","direct_first","1","at05sm01","1","31","1","1","3","1","","0","1","0","null","","","<img src = 'category3/CS6.png' width = '100%;'>","null","","","","","","","","","",""
"","html-keyboard-response","169","565128","0.0-10.0-2.7","ttfw248xer","many_one","0","direct_first","1","at05sm01","1","31","1","1","3","1","","0","1","0","null","","","<img src = 'targets/12.png' width = '100%;'>","null","","","","","","","","","",""
"","html-keyboard-response","170","566816","0.0-10.0-3.7","ttfw248xer","many_one","0","direct_first","1","at05sm01","1","31","1","1","3","1","","0","1","0","1686.1150000040652","","","<img src = 'targets/mask.png' width = '100%;'>","75","pos","CS","CS","3","category3/CS6.png","","targets/12.png","indirect","1","7"
"","html-keyboard-response","171","568324","0.0-10.0-0.8","ttfw248xer","many_one","0","direct_first","1","at05sm01","1","31","1","1","3","1","","0","1","0","null","","","<div style=""font-size:60px;"">+</div>","null","","","","","","","","","",""
"","html-keyboard-response","172","568420","0.0-10.0-1.8","ttfw248xer","many_one","0","direct_first","1","at05sm01","1","31","1","1","3","1","","0","1","0","null","","","<img src = 'category2/CS10.png' width = '100%;'>","null","","","","","","","","","",""
"","html-keyboard-response","173","568682","0.0-10.0-2.8","ttfw248xer","many_one","0","direct_first","1","at05sm01","1","31","1","1","3","1","","0","1","0","null","","","<img src = 'targets/15.png' width = '100%;'>","null","","","","","","","","","",""
"","html-keyboard-response","174","569376","0.0-10.0-3.8","ttfw248xer","many_one","0","direct_first","1","at05sm01","1","31","1","1","3","1","","0","1","0","693.5750000120606","","","<img src = 'targets/mask.png' width = '100%;'>","68","neg","GS","GSold","2","category2/CS10.png","","targets/15.png","indirect","0","8"
"","html-keyboard-response","175","570883","0.0-10.0-0.9","ttfw248xer","many_one","0","direct_first","1","at05sm01","1","31","1","1","3","1","","0","1","0","null","","","<div style=""font-size:60px;"">+</div>","null","","","","","","","","","",""
"","html-keyboard-response","176","570980","0.0-10.0-1.9","ttfw248xer","many_one","0","direct_first","1","at05sm01","1","31","1","1","3","1","","0","1","0","null","","","<img src = 'category1/CS1.png' width = '100%;'>","null","","","","","","","","","",""
"","html-keyboard-response","177","571237","0.0-10.0-2.9","ttfw248xer","many_one","0","direct_first","1","at05sm01","1","31","1","1","3","1","","0","1","0","null","","","<img src = 'targets/45.png' width = '100%;'>","null","","","","","","","","","",""
"","html-keyboard-response","178","571922","0.0-10.0-3.9","ttfw248xer","many_one","0","direct_first","1","at05sm01","1","31","1","1","3","1","","0","1","0","682.9999999899883","","","<img src = 'targets/mask.png' width = '100%;'>","68","pos","CS","CS","1","category1/CS1.png","","targets/45.png","indirect","0","9"
"","html-keyboard-response","179","573432","0.0-10.0-0.10","ttfw248xer","many_one","0","direct_first","1","at05sm01","1","31","1","1","3","1","","0","1","0","null","","","<div style=""font-size:60px;"">+</div>","null","","","","","","","","","",""
"","html-keyboard-response","180","573529","0.0-10.0-1.10","ttfw248xer","many_one","0","direct_first","1","at05sm01","1","31","1","1","3","1","","0","1","0","null","","","<img src = 'category3/CS5.png' width = '100%;'>","null","","","","","","","","","",""
"","html-keyboard-response","181","573790","0.0-10.0-2.10","ttfw248xer","many_one","0","direct_first","1","at05sm01","1","31","1","1","3","1","","0","1","0","null","","","<img src = 'targets/2.png' width = '100%;'>","null","","","","","","","","","",""
"","html-keyboard-response","182","574500","0.0-10.0-3.10","ttfw248xer","many_one","0","direct_first","1","at05sm01","1","31","1","1","3","1","","0","1","0","708.9750000013737","","","<img src = 'targets/mask.png' width = '100%;'>","75","pos","CS","CS","3","category3/CS5.png","","targets/2.png","indirect","1","10"
"","html-keyboard-response","183","576008","0.0-10.0-0.11","ttfw248xer","many_one","0","direct_first","1","at05sm01","1","31","1","1","3","1","","0","1","0","null","","","<div style=""font-size:60px;"">+</div>","null","","","","","","","","","",""
"","html-keyboard-response","184","576101","0.0-10.0-1.11","ttfw248xer","many_one","0","direct_first","1","at05sm01","1","31","1","1","3","1","","0","1","0","null","","","<img src = 'category4/CS10.png' width = '100%;'>","null","","","","","","","","","",""
"","html-keyboard-response","185","576363","0.0-10.0-2.11","ttfw248xer","many_one","0","direct_first","1","at05sm01","1","31","1","1","3","1","","0","1","0","null","","","<img src = 'targets/5.png' width = '100%;'>","null","","","","","","","","","",""
"","html-keyboard-response","186","577135","0.0-10.0-3.11","ttfw248xer","many_one","0","direct_first","1","at05sm01","1","31","1","1","3","1","","0","1","0","771.4800000103423","","","<img src = 'targets/mask.png' width = '100%;'>","75","neg","CS","CS","4","category4/CS10.png","","targets/5.png","indirect","1","11"
"","html-keyboard-response","187","578641","0.0-10.0-0.12","ttfw248xer","many_one","0","direct_first","1","at05sm01","1","31","1","1","3","1","","0","1","0","null","","","<div style=""font-size:60px;"">+</div>","null","","","","","","","","","",""
"","html-keyboard-response","188","578737","0.0-10.0-1.12","ttfw248xer","many_one","0","direct_first","1","at05sm01","1","31","1","1","3","1","","0","1","0","null","","","<img src = 'category2/CS6.png' width = '100%;'>","null","","","","","","","","","",""
"","html-keyboard-response","189","578998","0.0-10.0-2.12","ttfw248xer","many_one","0","direct_first","1","at05sm01","1","31","1","1","3","1","","0","1","0","null","","","<img src = 'targets/36.png' width = '100%;'>","null","","","","","","","","","",""
"","html-keyboard-response","190","579708","0.0-10.0-3.12","ttfw248xer","many_one","0","direct_first","1","at05sm01","1","31","1","1","3","1","","0","1","0","708.7549999996554","","","<img src = 'targets/mask.png' width = '100%;'>","68","neg","GS","GSold","2","category2/CS6.png","","targets/36.png","indirect","0","12"
"","html-keyboard-response","191","581215","0.0-10.0-0.13","ttfw248xer","many_one","0","direct_first","1","at05sm01","1","31","1","1","3","1","","0","1","0","null","","","<div style=""font-size:60px;"">+</div>","null","","","","","","","","","",""
"","html-keyboard-response","192","581309","0.0-10.0-1.13","ttfw248xer","many_one","0","direct_first","1","at05sm01","1","31","1","1","3","1","","0","1","0","null","","","<img src = 'category3/CS1.png' width = '100%;'>","null","","","","","","","","","",""
"","html-keyboard-response","193","581565","0.0-10.0-2.13","ttfw248xer","many_one","0","direct_first","1","at05sm01","1","31","1","1","3","1","","0","1","0","null","","","<img src = 'targets/19.png' width = '100%;'>","null","","","","","","","","","",""
"","html-keyboard-response","194","582641","0.0-10.0-3.13","ttfw248xer","many_one","0","direct_first","1","at05sm01","1","31","1","1","3","1","","0","1","0","1075.010000000475","","","<img src = 'targets/mask.png' width = '100%;'>","75","pos","CS","CS","3","category3/CS1.png","","targets/19.png","indirect","1","13"
"","html-keyboard-response","195","584147","0.0-10.0-0.14","ttfw248xer","many_one","0","direct_first","1","at05sm01","1","31","1","1","3","1","","0","1","0","null","","","<div style=""font-size:60px;"">+</div>","null","","","","","","","","","",""
"","html-keyboard-response","196","584240","0.0-10.0-1.14","ttfw248xer","many_one","0","direct_first","1","at05sm01","1","31","1","1","3","1","","0","1","0","null","","","<img src = 'category4/CS4.png' width = '100%;'>","null","","","","","","","","","",""
"","html-keyboard-response","197","584501","0.0-10.0-2.14","ttfw248xer","many_one","0","direct_first","1","at05sm01","1","31","1","1","3","1","","0","1","0","null","","","<img src = 'targets/20.png' width = '100%;'>","null","","","","","","","","","",""
"","html-keyboard-response","198","584908","0.0-10.0-3.14","ttfw248xer","many_one","0","direct_first","1","at05sm01","1","31","1","1","3","1","","0","1","0","406.1400000064168","","","<img src = 'targets/mask.png' width = '100%;'>","75","neg","CS","CS","4","category4/CS4.png","","targets/20.png","indirect","1","14"
"","html-keyboard-response","199","586413","0.0-10.0-0.15","ttfw248xer","many_one","0","direct_first","1","at05sm01","1","31","1","1","3","1","","0","1","0","null","","","<div style=""font-size:60px;"">+</div>","null","","","","","","","","","",""
"","html-keyboard-response","200","586507","0.0-10.0-1.15","ttfw248xer","many_one","0","direct_first","1","at05sm01","1","31","1","1","3","1","","0","1","0","null","","","<img src = 'category1/CS4.png' width = '100%;'>","null","","","","","","","","","",""
"","html-keyboard-response","201","586764","0.0-10.0-2.15","ttfw248xer","many_one","0","direct_first","1","at05sm01","1","31","1","1","3","1","","0","1","0","null","","","<img src = 'targets/42.png' width = '100%;'>","null","","","","","","","","","",""
"","html-keyboard-response","202","587204","0.0-10.0-3.15","ttfw248xer","many_one","0","direct_first","1","at05sm01","1","31","1","1","3","1","","0","1","0","437.9099999932805","","","<img src = 'targets/mask.png' width = '100%;'>","75","pos","CS","CS","1","category1/CS4.png","","targets/42.png","indirect","1","15"
"","html-keyboard-response","203","588714","0.0-10.0-0.16","ttfw248xer","many_one","0","direct_first","1","at05sm01","1","31","1","1","3","1","","0","1","0","null","","","<div style=""font-size:60px;"">+</div>","null","","","","","","","","","",""
"","html-keyboard-response","204","588808","0.0-10.0-1.16","ttfw248xer","many_one","0","direct_first","1","at05sm01","1","31","1","1","3","1","","0","1","0","null","","","<img src = 'category2/CS5.png' width = '100%;'>","null","","","","","","","","","",""
"","html-keyboard-response","205","589070","0.0-10.0-2.16","ttfw248xer","many_one","0","direct_first","1","at05sm01","1","31","1","1","3","1","","0","1","0","null","","","<img src = 'targets/17.png' width = '100%;'>","null","","","","","","","","","",""
"","html-keyboard-response","206","589950","0.0-10.0-3.16","ttfw248xer","many_one","0","direct_first","1","at05sm01","1","31","1","1","3","1","","0","1","0","879.0000000008149","","","<img src = 'targets/mask.png' width = '100%;'>","68","neg","CS","CS","2","category2/CS5.png","","targets/17.png","indirect","0","16"
"","html-keyboard-response","207","591461","0.0-10.0-0.17","ttfw248xer","many_one","0","direct_first","1","at05sm01","1","31","1","1","3","1","","0","1","0","null","","","<div style=""font-size:60px;"">+</div>","null","","","","","","","","","",""
"","html-keyboard-response","208","591555","0.0-10.0-1.17","ttfw248xer","many_one","0","direct_first","1","at05sm01","1","31","1","1","3","1","","0","1","0","null","","","<img src = 'category4/CS2.png' width = '100%;'>","null","","","","","","","","","",""
"","html-keyboard-response","209","591817","0.0-10.0-2.17","ttfw248xer","many_one","0","direct_first","1","at05sm01","1","31","1","1","3","1","","0","1","0","null","","","<img src = 'targets/8.png' width = '100%;'>","null","","","","","","","","","",""
"","html-keyboard-response","210","592551","0.0-10.0-3.17","ttfw248xer","many_one","0","direct_first","1","at05sm01","1","31","1","1","3","1","","0","1","0","733.5649999877205","","","<img src = 'targets/mask.png' width = '100%;'>","68","neg","CS","CS","4","category4/CS2.png","","targets/8.png","indirect","0","17"
"","html-keyboard-response","211","594062","0.0-10.0-0.18","ttfw248xer","many_one","0","direct_first","1","at05sm01","1","31","1","1","3","1","","0","1","0","null","","","<div style=""font-size:60px;"">+</div>","null","","","","","","","","","",""
"","html-keyboard-response","212","594158","0.0-10.0-1.18","ttfw248xer","many_one","0","direct_first","1","at05sm01","1","31","1","1","3","1","","0","1","0","null","","","<img src = 'category1/CS8.png' width = '100%;'>","null","","","","","","","","","",""
"","html-keyboard-response","213","594419","0.0-10.0-2.18","ttfw248xer","many_one","0","direct_first","1","at05sm01","1","31","1","1","3","1","","0","1","0","null","","","<img src = 'targets/9.png' width = '100%;'>","null","","","","","","","","","",""
"","html-keyboard-response","214","595143","0.0-10.0-3.18","ttfw248xer","many_one","0","direct_first","1","at05sm01","1","31","1","1","3","1","","0","1","0","722.8299999987939","","","<img src = 'targets/mask.png' width = '100%;'>","75","pos","CS","CS","1","category1/CS8.png","","targets/9.png","indirect","1","18"
"","html-keyboard-response","215","596651","0.0-10.0-0.19","ttfw248xer","many_one","0","direct_first","1","at05sm01","1","31","1","1","3","1","","0","1","0","null","","","<div style=""font-size:60px;"">+</div>","null","","","","","","","","","",""
"","html-keyboard-response","216","596743","0.0-10.0-1.19","ttfw248xer","many_one","0","direct_first","1","at05sm01","1","31","1","1","3","1","","0","1","0","null","","","<img src = 'category2/CS1.png' width = '100%;'>","null","","","","","","","","","",""
"","html-keyboard-response","217","597001","0.0-10.0-2.19","ttfw248xer","many_one","0","direct_first","1","at05sm01","1","31","1","1","3","1","","0","1","0","null","","","<img src = 'targets/18.png' width = '100%;'>","null","","","","","","","","","",""
"","html-keyboard-response","218","598705","0.0-10.0-3.19","ttfw248xer","many_one","0","direct_first","1","at05sm01","1","31","1","1","3","1","","0","1","0","1702.5100000028033","","","<img src = 'targets/mask.png' width = '100%;'>","75","neg","CS","CS","2","category2/CS1.png","","targets/18.png","indirect","1","19"
"","html-keyboard-response","219","600216","0.0-10.0-0.20","ttfw248xer","many_one","0","direct_first","1","at05sm01","1","31","1","1","3","1","","0","1","0","null","","","<div style=""font-size:60px;"">+</div>","null","","","","","","","","","",""
"","html-keyboard-response","220","600309","0.0-10.0-1.20","ttfw248xer","many_one","0","direct_first","1","at05sm01","1","31","1","1","3","1","","0","1","0","null","","","<img src = 'category2/CS4.png' width = '100%;'>","null","","","","","","","","","",""
"","html-keyboard-response","221","600570","0.0-10.0-2.20","ttfw248xer","many_one","0","direct_first","1","at05sm01","1","31","1","1","3","1","","0","1","0","null","","","<img src = 'targets/41.png' width = '100%;'>","null","","","","","","","","","",""
"","html-keyboard-response","222","600898","0.0-10.0-3.20","ttfw248xer","many_one","0","direct_first","1","at05sm01","1","31","1","1","3","1","","0","1","0","326.9250000012107","","","<img src = 'targets/mask.png' width = '100%;'>","68","neg","CS","CS","2","category2/CS4.png","","targets/41.png","indirect","0","20"
"","html-keyboard-response","223","602408","0.0-10.0-0.21","ttfw248xer","many_one","0","direct_first","1","at05sm01","1","31","1","1","3","1","","0","1","0","null","","","<div style=""font-size:60px;"">+</div>","null","","","","","","","","","",""
"","html-keyboard-response","224","602504","0.0-10.0-1.21","ttfw248xer","many_one","0","direct_first","1","at05sm01","1","31","1","1","3","1","","0","1","0","null","","","<img src = 'category3/CS8.png' width = '100%;'>","null","","","","","","","","","",""
"","html-keyboard-response","225","602766","0.0-10.0-2.21","ttfw248xer","many_one","0","direct_first","1","at05sm01","1","31","1","1","3","1","","0","1","0","null","","","<img src = 'targets/7.png' width = '100%;'>","null","","","","","","","","","",""
"","html-keyboard-response","226","602973","0.0-10.0-3.21","ttfw248xer","many_one","0","direct_first","1","at05sm01","1","31","1","1","3","1","","0","1","0","206.60000000498258","","","<img src = 'targets/mask.png' width = '100%;'>","75","pos","CS","CS","3","category3/CS8.png","","targets/7.png","indirect","1","21"
"","html-keyboard-response","227","604482","0.0-10.0-0.22","ttfw248xer","many_one","0","direct_first","1","at05sm01","1","31","1","1","3","1","","0","1","0","null","","","<div style=""font-size:60px;"">+</div>","null","","","","","","","","","",""
"","html-keyboard-response","228","604578","0.0-10.0-1.22","ttfw248xer","many_one","0","direct_first","1","at05sm01","1","31","1","1","3","1","","0","1","0","null","","","<img src = 'category4/CS3.png' width = '100%;'>","null","","","","","","","","","",""
"","html-keyboard-response","229","604835","0.0-10.0-2.22","ttfw248xer","many_one","0","direct_first","1","at05sm01","1","31","1","1","3","1","","0","1","0","null","","","<img src = 'targets/10.png' width = '100%;'>","null","","","","","","","","","",""
"","html-keyboard-response","230","605395","0.0-10.0-3.22","ttfw248xer","many_one","0","direct_first","1","at05sm01","1","31","1","1","3","1","","0","1","0","559.4200000050478","","","<img src = 'targets/mask.png' width = '100%;'>","68","neg","CS","CS","4","category4/CS3.png","","targets/10.png","indirect","0","22"
"","html-keyboard-response","231","606902","0.0-10.0-0.23","ttfw248xer","many_one","0","direct_first","1","at05sm01","1","31","1","1","3","1","","0","1","0","null","","","<div style=""font-size:60px;"">+</div>","null","","","","","","","","","",""
"","html-keyboard-response","232","606996","0.0-10.0-1.23","ttfw248xer","many_one","0","direct_first","1","at05sm01","1","31","1","1","3","1","","0","1","0","null","","","<img src = 'category3/CS4.png' width = '100%;'>","null","","","","","","","","","",""
"","html-keyboard-response","233","607253","0.0-10.0-2.23","ttfw248xer","many_one","0","direct_first","1","at05sm01","1","31","1","1","3","1","","0","1","0","null","","","<img src = 'targets/35.png' width = '100%;'>","null","","","","","","","","","",""
"","html-keyboard-response","234","608089","0.0-10.0-3.23","ttfw248xer","many_one","0","direct_first","1","at05sm01","1","31","1","1","3","1","","0","1","0","834.2899999988731","","","<img src = 'targets/mask.png' width = '100%;'>","75","pos","CS","CS","3","category3/CS4.png","","targets/35.png","indirect","1","23"
"","survey-html-form","235","613036","0.0-11.0","ttfw248xer","many_one","0","direct_first","1","at05sm01","1","31","1","1","3","1","","0","1","0","4441.309999994701","","{}","","","","","","","","","","","",""
"","html-keyboard-response","236","616044","0.0-12.0-0.0","ttfw248xer","many_one","0","direct_first","1","at05sm01","1","31","1","1","3","1","","0","1","0","null","","","<div style=""font-size:60px;"">+</div>","null","","","","","","","","","",""
"","html-keyboard-response","237","616140","0.0-12.0-1.0","ttfw248xer","many_one","0","direct_first","1","at05sm01","1","31","1","1","3","1","","0","1","0","null","","","<img src = 'category3/CS7.png' width = '100%;'>","null","","","","","","","","","",""
"","html-keyboard-response","238","616397","0.0-12.0-2.0","ttfw248xer","many_one","0","direct_first","1","at05sm01","1","31","1","1","3","1","","0","1","0","null","","","<img src = 'targets/11.png' width = '100%;'>","null","","","","","","","","","",""
"","html-keyboard-response","239","618204","0.0-12.0-3.0","ttfw248xer","many_one","0","direct_first","1","at05sm01","1","31","1","1","3","1","","0","1","0","1804.8449999914737","","","<img src = 'targets/mask.png' width = '100%;'>","75","pos","GS","GSold","3","category3/CS7.png","","targets/11.png","indirect","1","24"
"","html-keyboard-response","240","619715","0.0-12.0-0.1","ttfw248xer","many_one","0","direct_first","1","at05sm01","1","31","1","1","3","1","","0","1","0","null","","","<div style=""font-size:60px;"">+</div>","null","","","","","","","","","",""
"","html-keyboard-response","241","619809","0.0-12.0-1.1","ttfw248xer","many_one","0","direct_first","1","at05sm01","1","31","1","1","3","1","","0","1","0","null","","","<img src = 'category1/GS1.png' width = '100%;'>","null","","","","","","","","","",""
"","html-keyboard-response","242","620071","0.0-12.0-2.1","ttfw248xer","many_one","0","direct_first","1","at05sm01","1","31","1","1","3","1","","0","1","0","null","","","<img src = 'targets/37.png' width = '100%;'>","null","","","","","","","","","",""
"","html-keyboard-response","243","620705","0.0-12.0-3.1","ttfw248xer","many_one","0","direct_first","1","at05sm01","1","31","1","1","3","1","","0","1","0","633.6850000079721","","","<img src = 'targets/mask.png' width = '100%;'>","75","pos","GS","GSnew","1","category1/GS1.png","","targets/37.png","indirect","1","25"
"","html-keyboard-response","244","622213","0.0-12.0-0.2","ttfw248xer","many_one","0","direct_first","1","at05sm01","1","31","1","1","3","1","","0","1","0","null","","","<div style=""font-size:60px;"">+</div>","null","","","","","","","","","",""
"","html-keyboard-response","245","622309","0.0-12.0-1.2","ttfw248xer","many_one","0","direct_first","1","at05sm01","1","31","1","1","3","1","","0","1","0","null","","","<img src = 'category2/GS2.png' width = '100%;'>","null","","","","","","","","","",""
"","html-keyboard-response","246","622567","0.0-12.0-2.2","ttfw248xer","many_one","0","direct_first","1","at05sm01","1","31","1","1","3","1","","0","1","0","null","","","<img src = 'targets/28.png' width = '100%;'>","null","","","","","","","","","",""
"","html-keyboard-response","247","623525","0.0-12.0-3.2","ttfw248xer","many_one","0","direct_first","1","at05sm01","1","31","1","1","3","1","","0","1","0","956.6849999973783","","","<img src = 'targets/mask.png' width = '100%;'>","75","neg","GS","GSnew","2","category2/GS2.png","","targets/28.png","indirect","1","26"
"","html-keyboard-response","248","625036","0.0-12.0-0.3","ttfw248xer","many_one","0","direct_first","1","at05sm01","1","31","1","1","3","1","","0","1","0","null","","","<div style=""font-size:60px;"">+</div>","null","","","","","","","","","",""
"","html-keyboard-response","249","625132","0.0-12.0-1.3","ttfw248xer","many_one","0","direct_first","1","at05sm01","1","31","1","1","3","1","","0","1","0","null","","","<img src = 'category3/GS3.png' width = '100%;'>","null","","","","","","","","","",""
"","html-keyboard-response","250","625387","0.0-12.0-2.3","ttfw248xer","many_one","0","direct_first","1","at05sm01","1","31","1","1","3","1","","0","1","0","null","","","<img src = 'targets/3.png' width = '100%;'>","null","","","","","","","","","",""
"","html-keyboard-response","251","626178","0.0-12.0-3.3","ttfw248xer","many_one","0","direct_first","1","at05sm01","1","31","1","1","3","1","","0","1","0","789.8949999944307","","","<img src = 'targets/mask.png' width = '100%;'>","75","pos","GS","GSnew","3","category3/GS3.png","","targets/3.png","indirect","1","27"
"","html-keyboard-response","252","627687","0.0-12.0-0.4","ttfw248xer","many_one","0","direct_first","1","at05sm01","1","31","1","1","3","1","","0","1","0","null","","","<div style=""font-size:60px;"">+</div>","null","","","","","","","","","",""
"","html-keyboard-response","253","627778","0.0-12.0-1.4","ttfw248xer","many_one","0","direct_first","1","at05sm01","1","31","1","1","3","1","","0","1","0","null","","","<img src = 'category3/GS2.png' width = '100%;'>","null","","","","","","","","","",""
"","html-keyboard-response","254","628039","0.0-12.0-2.4","ttfw248xer","many_one","0","direct_first","1","at05sm01","1","31","1","1","3","1","","0","1","0","null","","","<img src = 'targets/31.png' width = '100%;'>","null","","","","","","","","","",""
"","html-keyboard-response","255","628672","0.0-12.0-3.4","ttfw248xer","many_one","0","direct_first","1","at05sm01","1","31","1","1","3","1","","0","1","0","632.0400000113295","","","<img src = 'targets/mask.png' width = '100%;'>","68","pos","GS","GSnew","3","category3/GS2.png","","targets/31.png","indirect","0","28"
"","html-keyboard-response","256","630183","0.0-12.0-0.5","ttfw248xer","many_one","0","direct_first","1","at05sm01","1","31","1","1","3","1","","0","1","0","null","","","<div style=""font-size:60px;"">+</div>","null","","","","","","","","","",""
"","html-keyboard-response","257","630277","0.0-12.0-1.5","ttfw248xer","many_one","0","direct_first","1","at05sm01","1","31","1","1","3","1","","0","1","0","null","","","<img src = 'category4/CS8.png' width = '100%;'>","null","","","","","","","","","",""
"","html-keyboard-response","258","630539","0.0-12.0-2.5","ttfw248xer","many_one","0","direct_first","1","at05sm01","1","31","1","1","3","1","","0","1","0","null","","","<img src = 'targets/16.png' width = '100%;'>","null","","","","","","","","","",""
"","html-keyboard-response","259","631052","0.0-12.0-3.5","ttfw248xer","many_one","0","direct_first","1","at05sm01","1","31","1","1","3","1","","0","1","0","511.55999999900814","","","<img src = 'targets/mask.png' width = '100%;'>","75","neg","GS","GSold","4","category4/CS8.png","","targets/16.png","indirect","1","29"
"","html-keyboard-response","260","632555","0.0-12.0-0.6","ttfw248xer","many_one","0","direct_first","1","at05sm01","1","31","1","1","3","1","","0","1","0","null","","","<div style=""font-size:60px;"">+</div>","null","","","","","","","","","",""
"","html-keyboard-response","261","632651","0.0-12.0-1.6","ttfw248xer","many_one","0","direct_first","1","at05sm01","1","31","1","1","3","1","","0","1","0","null","","","<img src = 'category4/CS7.png' width = '100%;'>","null","","","","","","","","","",""
"","html-keyboard-response","262","632910","0.0-12.0-2.6","ttfw248xer","many_one","0","direct_first","1","at05sm01","1","31","1","1","3","1","","0","1","0","null","","","<img src = 'targets/27.png' width = '100%;'>","null","","","","","","","","","",""
"","html-keyboard-response","263","633601","0.0-12.0-3.6","ttfw248xer","many_one","0","direct_first","1","at05sm01","1","31","1","1","3","1","","0","1","0","690.5150000093272","","","<img src = 'targets/mask.png' width = '100%;'>","68","neg","GS","GSold","4","category4/CS7.png","","targets/27.png","indirect","0","30"
"","html-keyboard-response","264","635112","0.0-12.0-0.7","ttfw248xer","many_one","0","direct_first","1","at05sm01","1","31","1","1","3","1","","0","1","0","null","","","<div style=""font-size:60px;"">+</div>","null","","","","","","","","","",""
"","html-keyboard-response","265","635205","0.0-12.0-1.7","ttfw248xer","many_one","0","direct_first","1","at05sm01","1","31","1","1","3","1","","0","1","0","null","","","<img src = 'category2/GS3.png' width = '100%;'>","null","","","","","","","","","",""
"","html-keyboard-response","266","635467","0.0-12.0-2.7","ttfw248xer","many_one","0","direct_first","1","at05sm01","1","31","1","1","3","1","","0","1","0","null","","","<img src = 'targets/26.png' width = '100%;'>","null","","","","","","","","","",""
"","html-keyboard-response","267","636195","0.0-12.0-3.7","ttfw248xer","many_one","0","direct_first","1","at05sm01","1","31","1","1","3","1","","0","1","0","726.9499999965774","","","<img src = 'targets/mask.png' width = '100%;'>","68","neg","GS","GSnew","2","category2/GS3.png","","targets/26.png","indirect","0","31"
"","html-keyboard-response","268","637702","0.0-12.0-0.8","ttfw248xer","many_one","0","direct_first","1","at05sm01","1","31","1","1","3","1","","0","1","0","null","","","<div style=""font-size:60px;"">+</div>","null","","","","","","","","","",""
"","html-keyboard-response","269","637795","0.0-12.0-1.8","ttfw248xer","many_one","0","direct_first","1","at05sm01","1","31","1","1","3","1","","0","1","0","null","","","<img src = 'category4/GS1.png' width = '100%;'>","null","","","","","","","","","",""
"","html-keyboard-response","270","638053","0.0-12.0-2.8","ttfw248xer","many_one","0","direct_first","1","at05sm01","1","31","1","1","3","1","","0","1","0","null","","","<img src = 'targets/39.png' width = '100%;'>","null","","","","","","","","","",""
"","html-keyboard-response","271","638560","0.0-12.0-3.8","ttfw248xer","many_one","0","direct_first","1","at05sm01","1","31","1","1","3","1","","0","1","0","505.1649999950314","","","<img src = 'targets/mask.png' width = '100%;'>","75","neg","GS","GSnew","4","category4/GS1.png","","targets/39.png","indirect","1","32"
"","html-keyboard-response","272","640069","0.0-12.0-0.9","ttfw248xer","many_one","0","direct_first","1","at05sm01","1","31","1","1","3","1","","0","1","0","null","","","<div style=""font-size:60px;"">+</div>","null","","","","","","","","","",""
"","html-keyboard-response","273","640165","0.0-12.0-1.9","ttfw248xer","many_one","0","direct_first","1","at05sm01","1","31","1","1","3","1","","0","1","0","null","","","<img src = 'category1/ma.png' width = '100%;'>","null","","","","","","","","","",""
"","html-keyboard-response","274","640422","0.0-12.0-2.9","ttfw248xer","many_one","0","direct_first","1","at05sm01","1","31","1","1","3","1","","0","1","0","null","","","<img src = 'targets/4.png' width = '100%;'>","null","","","","","","","","","",""
"","html-keyboard-response","275","641106","0.0-12.0-3.9","ttfw248xer","many_one","0","direct_first","1","at05sm01","1","31","1","1","3","1","","0","1","0","683.0150000023423","","","<img src = 'targets/mask.png' width = '100%;'>","68","pos","GS","abstract","1","category1/ma.png","","targets/4.png","indirect","0","33"
"","html-keyboard-response","276","642617","0.0-12.0-0.10","ttfw248xer","many_one","0","direct_first","1","at05sm01","1","31","1","1","3","1","","0","1","0","null","","","<div style=""font-size:60px;"">+</div>","null","","","","","","","","","",""
"","html-keyboard-response","277","642711","0.0-12.0-1.10","ttfw248xer","many_one","0","direct_first","1","at05sm01","1","31","1","1","3","1","","0","1","0","null","","","<img src = 'category1/GS2.png' width = '100%;'>","null","","","","","","","","","",""
"","html-keyboard-response","278","642972","0.0-12.0-2.10","ttfw248xer","many_one","0","direct_first","1","at05sm01","1","31","1","1","3","1","","0","1","0","null","","","<img src = 'targets/32.png' width = '100%;'>","null","","","","","","","","","",""
"","html-keyboard-response","279","643578","0.0-12.0-3.10","ttfw248xer","many_one","0","direct_first","1","at05sm01","1","31","1","1","3","1","","0","1","0","604.7000000107801","","","<img src = 'targets/mask.png' width = '100%;'>","68","pos","GS","GSnew","1","category1/GS2.png","","targets/32.png","indirect","0","34"
"","html-keyboard-response","280","645089","0.0-12.0-0.11","ttfw248xer","many_one","0","direct_first","1","at05sm01","1","31","1","1","3","1","","0","1","0","null","","","<div style=""font-size:60px;"">+</div>","null","","","","","","","","","",""
"","html-keyboard-response","281","645181","0.0-12.0-1.11","ttfw248xer","many_one","0","direct_first","1","at05sm01","1","31","1","1","3","1","","0","1","0","null","","","<img src = 'category4/GS2.png' width = '100%;'>","null","","","","","","","","","",""
"","html-keyboard-response","282","645443","0.0-12.0-2.11","ttfw248xer","many_one","0","direct_first","1","at05sm01","1","31","1","1","3","1","","0","1","0","null","","","<img src = 'targets/24.png' width = '100%;'>","null","","","","","","","","","",""
"","html-keyboard-response","283","645943","0.0-12.0-3.11","ttfw248xer","many_one","0","direct_first","1","at05sm01","1","31","1","1","3","1","","0","1","0","499.59999999555293","","","<img src = 'targets/mask.png' width = '100%;'>","75","neg","GS","GSnew","4","category4/GS2.png","","targets/24.png","indirect","1","35"
"","html-keyboard-response","284","647453","0.0-12.0-0.12","ttfw248xer","many_one","0","direct_first","1","at05sm01","1","31","1","1","3","1","","0","1","0","null","","","<div style=""font-size:60px;"">+</div>","null","","","","","","","","","",""
"","html-keyboard-response","285","647549","0.0-12.0-1.12","ttfw248xer","many_one","0","direct_first","1","at05sm01","1","31","1","1","3","1","","0","1","0","null","","","<img src = 'category4/lin.png' width = '100%;'>","null","","","","","","","","","",""
"","html-keyboard-response","286","647811","0.0-12.0-2.12","ttfw248xer","many_one","0","direct_first","1","at05sm01","1","31","1","1","3","1","","0","1","0","null","","","<img src = 'targets/25.png' width = '100%;'>","null","","","","","","","","","",""
"","html-keyboard-response","287","648716","0.0-12.0-3.12","ttfw248xer","many_one","0","direct_first","1","at05sm01","1","31","1","1","3","1","","0","1","0","904.1100000031292","","","<img src = 'targets/mask.png' width = '100%;'>","75","neg","GS","abstract","4","category4/lin.png","","targets/25.png","indirect","1","36"
"","html-keyboard-response","288","650227","0.0-12.0-0.13","ttfw248xer","many_one","0","direct_first","1","at05sm01","1","31","1","1","3","1","","0","1","0","null","","","<div style=""font-size:60px;"">+</div>","null","","","","","","","","","",""
"","html-keyboard-response","289","650323","0.0-12.0-1.13","ttfw248xer","many_one","0","direct_first","1","at05sm01","1","31","1","1","3","1","","0","1","0","null","","","<img src = 'category1/CS5.png' width = '100%;'>","null","","","","","","","","","",""
"","html-keyboard-response","290","650584","0.0-12.0-2.13","ttfw248xer","many_one","0","direct_first","1","at05sm01","1","31","1","1","3","1","","0","1","0","null","","","<img src = 'targets/21.png' width = '100%;'>","null","","","","","","","","","",""
"","html-keyboard-response","291","651090","0.0-12.0-3.13","ttfw248xer","many_one","0","direct_first","1","at05sm01","1","31","1","1","3","1","","0","1","0","503.96999999065883","","","<img src = 'targets/mask.png' width = '100%;'>","75","pos","GS","GSold","1","category1/CS5.png","","targets/21.png","indirect","1","37"
"","html-keyboard-response","292","652601","0.0-12.0-0.14","ttfw248xer","many_one","0","direct_first","1","at05sm01","1","31","1","1","3","1","","0","1","0","null","","","<div style=""font-size:60px;"">+</div>","null","","","","","","","","","",""
"","html-keyboard-response","293","652697","0.0-12.0-1.14","ttfw248xer","many_one","0","direct_first","1","at05sm01","1","31","1","1","3","1","","0","1","0","null","","","<img src = 'category2/men.png' width = '100%;'>","null","","","","","","","","","",""
"","html-keyboard-response","294","652958","0.0-12.0-2.14","ttfw248xer","many_one","0","direct_first","1","at05sm01","1","31","1","1","3","1","","0","1","0","null","","","<img src = 'targets/30.png' width = '100%;'>","null","","","","","","","","","",""
"","html-keyboard-response","295","653511","0.0-12.0-3.14","ttfw248xer","many_one","0","direct_first","1","at05sm01","1","31","1","1","3","1","","0","1","0","551.7450000043027","","","<img src = 'targets/mask.png' width = '100%;'>","75","neg","GS","abstract","2","category2/men.png","","targets/30.png","indirect","1","38"
"","html-keyboard-response","296","655015","0.0-12.0-0.15","ttfw248xer","many_one","0","direct_first","1","at05sm01","1","31","1","1","3","1","","0","1","0","null","","","<div style=""font-size:60px;"">+</div>","null","","","","","","","","","",""
"","html-keyboard-response","297","655109","0.0-12.0-1.15","ttfw248xer","many_one","0","direct_first","1","at05sm01","1","31","1","1","3","1","","0","1","0","null","","","<img src = 'category3/CS3.png' width = '100%;'>","null","","","","","","","","","",""
"","html-keyboard-response","298","655370","0.0-12.0-2.15","ttfw248xer","many_one","0","direct_first","1","at05sm01","1","31","1","1","3","1","","0","1","0","null","","","<img src = 'targets/34.png' width = '100%;'>","null","","","","","","","","","",""
"","html-keyboard-response","299","655945","0.0-12.0-3.15","ttfw248xer","many_one","0","direct_first","1","at05sm01","1","31","1","1","3","1","","0","1","0","573.8700000074459","","","<img src = 'targets/mask.png' width = '100%;'>","75","pos","GS","GSold","3","category3/CS3.png","","targets/34.png","indirect","1","39"
"","html-keyboard-response","300","657456","0.0-12.0-0.16","ttfw248xer","many_one","0","direct_first","1","at05sm01","1","31","1","1","3","1","","0","1","0","null","","","<div style=""font-size:60px;"">+</div>","null","","","","","","","","","",""
"","html-keyboard-response","301","657548","0.0-12.0-1.16","ttfw248xer","many_one","0","direct_first","1","at05sm01","1","31","1","1","3","1","","0","1","0","null","","","<img src = 'category4/CS6.png' width = '100%;'>","null","","","","","","","","","",""
"","html-keyboard-response","302","657803","0.0-12.0-2.16","ttfw248xer","many_one","0","direct_first","1","at05sm01","1","31","1","1","3","1","","0","1","0","null","","","<img src = 'targets/40.png' width = '100%;'>","null","","","","","","","","","",""
"","html-keyboard-response","303","658019","0.0-12.0-3.16","ttfw248xer","many_one","0","direct_first","1","at05sm01","1","31","1","1","3","1","","0","1","0","214.99999999650754","","","<img src = 'targets/mask.png' width = '100%;'>","75","neg","GS","GSold","4","category4/CS6.png","","targets/40.png","indirect","1","40"
"","html-keyboard-response","304","659529","0.0-12.0-0.17","ttfw248xer","many_one","0","direct_first","1","at05sm01","1","31","1","1","3","1","","0","1","0","null","","","<div style=""font-size:60px;"">+</div>","null","","","","","","","","","",""
"","html-keyboard-response","305","659621","0.0-12.0-1.17","ttfw248xer","many_one","0","direct_first","1","at05sm01","1","31","1","1","3","1","","0","1","0","null","","","<img src = 'category1/GS3.png' width = '100%;'>","null","","","","","","","","","",""
"","html-keyboard-response","306","659879","0.0-12.0-2.17","ttfw248xer","many_one","0","direct_first","1","at05sm01","1","31","1","1","3","1","","0","1","0","null","","","<img src = 'targets/23.png' width = '100%;'>","null","","","","","","","","","",""
"","html-keyboard-response","307","660784","0.0-12.0-3.17","ttfw248xer","many_one","0","direct_first","1","at05sm01","1","31","1","1","3","1","","0","1","0","904.5449999975972","","","<img src = 'targets/mask.png' width = '100%;'>","68","pos","GS","GSnew","1","category1/GS3.png","","targets/23.png","indirect","0","41"
"","html-keyboard-response","308","662289","0.0-12.0-0.18","ttfw248xer","many_one","0","direct_first","1","at05sm01","1","31","1","1","3","1","","0","1","0","null","","","<div style=""font-size:60px;"">+</div>","null","","","","","","","","","",""
"","html-keyboard-response","309","662385","0.0-12.0-1.18","ttfw248xer","many_one","0","direct_first","1","at05sm01","1","31","1","1","3","1","","0","1","0","null","","","<img src = 'category3/wang.png' width = '100%;'>","null","","","","","","","","","",""
"","html-keyboard-response","310","662646","0.0-12.0-2.18","ttfw248xer","many_one","0","direct_first","1","at05sm01","1","31","1","1","3","1","","0","1","0","null","","","<img src = 'targets/48.png' width = '100%;'>","null","","","","","","","","","",""
"","html-keyboard-response","311","663809","0.0-12.0-3.18","ttfw248xer","many_one","0","direct_first","1","at05sm01","1","31","1","1","3","1","","0","1","0","1161.1100000009174","","","<img src = 'targets/mask.png' width = '100%;'>","68","pos","GS","abstract","3","category3/wang.png","","targets/48.png","indirect","0","42"
"","html-keyboard-response","312","665313","0.0-12.0-0.19","ttfw248xer","many_one","0","direct_first","1","at05sm01","1","31","1","1","3","1","","0","1","0","null","","","<div style=""font-size:60px;"">+</div>","null","","","","","","","","","",""
"","html-keyboard-response","313","665410","0.0-12.0-1.19","ttfw248xer","many_one","0","direct_first","1","at05sm01","1","31","1","1","3","1","","0","1","0","null","","","<img src = 'category3/CS2.png' width = '100%;'>","null","","","","","","","","","",""
"","html-keyboard-response","314","665669","0.0-12.0-2.19","ttfw248xer","many_one","0","direct_first","1","at05sm01","1","31","1","1","3","1","","0","1","0","null","","","<img src = 'targets/6.png' width = '100%;'>","null","","","","","","","","","",""
"","html-keyboard-response","315","666290","0.0-12.0-3.19","ttfw248xer","many_one","0","direct_first","1","at05sm01","1","31","1","1","3","1","","0","1","0","620.0899999967078","","","<img src = 'targets/mask.png' width = '100%;'>","68","pos","GS","GSold","3","category3/CS2.png","","targets/6.png","indirect","0","43"
"","html-keyboard-response","316","667801","0.0-12.0-0.20","ttfw248xer","many_one","0","direct_first","1","at05sm01","1","31","1","1","3","1","","0","1","0","null","","","<div style=""font-size:60px;"">+</div>","null","","","","","","","","","",""
"","html-keyboard-response","317","667897","0.0-12.0-1.20","ttfw248xer","many_one","0","direct_first","1","at05sm01","1","31","1","1","3","1","","0","1","0","null","","","<img src = 'category3/GS1.png' width = '100%;'>","null","","","","","","","","","",""
"","html-keyboard-response","318","668155","0.0-12.0-2.20","ttfw248xer","many_one","0","direct_first","1","at05sm01","1","31","1","1","3","1","","0","1","0","null","","","<img src = 'targets/47.png' width = '100%;'>","null","","","","","","","","","",""
"","html-keyboard-response","319","668569","0.0-12.0-3.20","ttfw248xer","many_one","0","direct_first","1","at05sm01","1","31","1","1","3","1","","0","1","0","413.4300000005169","","","<img src = 'targets/mask.png' width = '100%;'>","75","pos","GS","GSnew","3","category3/GS1.png","","targets/47.png","indirect","1","44"
"","html-keyboard-response","320","670079","0.0-12.0-0.21","ttfw248xer","many_one","0","direct_first","1","at05sm01","1","31","1","1","3","1","","0","1","0","null","","","<div style=""font-size:60px;"">+</div>","null","","","","","","","","","",""
"","html-keyboard-response","321","670175","0.0-12.0-1.21","ttfw248xer","many_one","0","direct_first","1","at05sm01","1","31","1","1","3","1","","0","1","0","null","","","<img src = 'category4/GS3.png' width = '100%;'>","null","","","","","","","","","",""
"","html-keyboard-response","322","670437","0.0-12.0-2.21","ttfw248xer","many_one","0","direct_first","1","at05sm01","1","31","1","1","3","1","","0","1","0","null","","","<img src = 'targets/14.png' width = '100%;'>","null","","","","","","","","","",""
"","html-keyboard-response","323","670939","0.0-12.0-3.21","ttfw248xer","many_one","0","direct_first","1","at05sm01","1","31","1","1","3","1","","0","1","0","501.445000001695","","","<img src = 'targets/mask.png' width = '100%;'>","75","neg","GS","GSnew","4","category4/GS3.png","","targets/14.png","indirect","1","45"
"","html-keyboard-response","324","672450","0.0-12.0-0.22","ttfw248xer","many_one","0","direct_first","1","at05sm01","1","31","1","1","3","1","","0","1","0","null","","","<div style=""font-size:60px;"">+</div>","null","","","","","","","","","",""
"","html-keyboard-response","325","672546","0.0-12.0-1.22","ttfw248xer","many_one","0","direct_first","1","at05sm01","1","31","1","1","3","1","","0","1","0","null","","","<img src = 'category1/CS10.png' width = '100%;'>","null","","","","","","","","","",""
"","html-keyboard-response","326","672803","0.0-12.0-2.22","ttfw248xer","many_one","0","direct_first","1","at05sm01","1","31","1","1","3","1","","0","1","0","null","","","<img src = 'targets/33.png' width = '100%;'>","null","","","","","","","","","",""
"","html-keyboard-response","327","673166","0.0-12.0-3.22","ttfw248xer","many_one","0","direct_first","1","at05sm01","1","31","1","1","3","1","","0","1","0","361.91999999573454","","","<img src = 'targets/mask.png' width = '100%;'>","75","pos","GS","GSold","1","category1/CS10.png","","targets/33.png","indirect","1","46"
