"success","trial_type","trial_index","time_elapsed","internal_node_id","subject","condition","condition_code","measure","measure_code","codeword","gender","age","education","chinese","fach","handedness","comment","hinschauen","ablenkung","gewissenhaft","rt","url","responses","stimulus","key_press","val","type","type_specific","category","cs_selected","target","indirect","task","nr_pres","response"
"true","fullscreen","0","3951","0.0-0.0","12gexjlo94","many_one","0","indirect_first","0","ub05io13","1","25","1","1","3","1","","0","1","0","","","","","","","","","","","","","","",""
"","external-html","1","7573","0.0-1.0","12gexjlo94","many_one","0","indirect_first","0","ub05io13","1","25","1","1","3","1","","0","1","0","3560.4600000660866","text/information.html","","","","","","","","","","","","",""
"","external-html","2","24362","0.0-2.0","12gexjlo94","many_one","0","indirect_first","0","ub05io13","1","25","1","1","3","1","","0","1","0","16730.615000007674","text/consent.html","","","","","","","","","","","","",""
"","survey-html-form","3","69899","0.0-3.0","12gexjlo94","many_one","0","indirect_first","0","ub05io13","1","25","1","1","3","1","","0","1","0","45534.80500006117","","{""codeword_enter"":""ub05io13""}","","","","","","","","","","","",""
"","survey-html-form","4","109035","0.0-4.0","12gexjlo94","many_one","0","indirect_first","0","ub05io13","1","25","1","1","3","1","","0","1","0","39132.694999920204","","{""age"":""25"",""education"":""1"",""subject"":""3"",""gender"":""1"",""handedness"":""1"",""chinese"":""1""}","","","","","","","","","","","",""
"","survey-html-form","5","111823","0.0-5.0","12gexjlo94","many_one","0","indirect_first","0","ub05io13","1","25","1","1","3","1","","0","1","0","2785.6799999717623","","{}","","","","","","","","","","","",""
"","html-keyboard-response","6","115827","0.0-6.0-0.0-0.0","12gexjlo94","many_one","0","indirect_first","0","ub05io13","1","25","1","1","3","1","","0","1","0","null","","","<div class = 'row'><div class = 'column'><img src = 'uspos/2150.bmp' width = '100%;'></div><div class = 'column'><img src = 'category3/CS9.png' width = '70%;'></div></div>","null","pos","CS","CS","3","category3/CS9.png","","","","",""
"","html-keyboard-response","7","118331","0.0-6.0-0.0-0.1","12gexjlo94","many_one","0","indirect_first","0","ub05io13","1","25","1","1","3","1","","0","1","0","null","","","<div class = 'row'><div class = 'column'><img src = 'category1/CS5.png' width = '70%;'></div><div class = 'column'><img src = 'uspos/8461.bmp' width = '100%;'></div></div>","null","pos","CS","CS","1","category1/CS5.png","","","","",""
"","html-keyboard-response","8","120836","0.0-6.0-0.0-0.2","12gexjlo94","many_one","0","indirect_first","0","ub05io13","1","25","1","1","3","1","","0","1","0","null","","","<div class = 'row'><div class = 'column'><img src = 'usneg/9000.bmp' width = '100%;'></div><div class = 'column'><img src = 'category4/CS5.png' width = '70%;'></div></div>","null","neg","CS","CS","4","category4/CS5.png","","","","",""
"","html-keyboard-response","9","123338","0.0-6.0-0.0-0.3","12gexjlo94","many_one","0","indirect_first","0","ub05io13","1","25","1","1","3","1","","0","1","0","null","","","<div class = 'row'><div class = 'column'><img src = 'category4/CS10.png' width = '70%;'></div><div class = 'column'><img src = 'usneg/2141.bmp' width = '100%;'></div></div>","null","neg","CS","CS","4","category4/CS10.png","","","","",""
"","html-keyboard-response","10","125840","0.0-6.0-0.0-0.4","12gexjlo94","many_one","0","indirect_first","0","ub05io13","1","25","1","1","3","1","","0","1","0","null","","","<div class = 'row'><div class = 'column'><img src = 'category3/CS6.png' width = '70%;'></div><div class = 'column'><img src = 'uspos/5830.bmp' width = '100%;'></div></div>","null","pos","CS","CS","3","category3/CS6.png","","","","",""
"","html-keyboard-response","11","128342","0.0-6.0-0.0-0.5","12gexjlo94","many_one","0","indirect_first","0","ub05io13","1","25","1","1","3","1","","0","1","0","null","","","<div class = 'row'><div class = 'column'><img src = 'category3/CS2.png' width = '70%;'></div><div class = 'column'><img src = 'uspos/5470.bmp' width = '100%;'></div></div>","null","pos","CS","CS","3","category3/CS2.png","","","","",""
"","html-keyboard-response","12","130845","0.0-6.0-0.0-0.6","12gexjlo94","many_one","0","indirect_first","0","ub05io13","1","25","1","1","3","1","","0","1","0","null","","","<div class = 'row'><div class = 'column'><img src = 'category2/CS7.png' width = '70%;'></div><div class = 'column'><img src = 'usneg/9342.bmp' width = '100%;'></div></div>","null","neg","CS","CS","2","category2/CS7.png","","","","",""
"","html-keyboard-response","13","133349","0.0-6.0-0.0-0.7","12gexjlo94","many_one","0","indirect_first","0","ub05io13","1","25","1","1","3","1","","0","1","0","null","","","<div class = 'row'><div class = 'column'><img src = 'uspos/8080.bmp' width = '100%;'></div><div class = 'column'><img src = 'category1/CS7.png' width = '70%;'></div></div>","null","pos","CS","CS","1","category1/CS7.png","","","","",""
"","html-keyboard-response","14","135853","0.0-6.0-0.0-0.8","12gexjlo94","many_one","0","indirect_first","0","ub05io13","1","25","1","1","3","1","","0","1","0","null","","","<div class = 'row'><div class = 'column'><img src = 'usneg/3160.bmp' width = '100%;'></div><div class = 'column'><img src = 'category2/CS6.png' width = '70%;'></div></div>","null","neg","CS","CS","2","category2/CS6.png","","","","",""
"","html-keyboard-response","15","138356","0.0-6.0-0.0-0.9","12gexjlo94","many_one","0","indirect_first","0","ub05io13","1","25","1","1","3","1","","0","1","0","null","","","<div class = 'row'><div class = 'column'><img src = 'usneg/9920.bmp' width = '100%;'></div><div class = 'column'><img src = 'category2/CS1.png' width = '70%;'></div></div>","null","neg","CS","CS","2","category2/CS1.png","","","","",""
"","html-keyboard-response","16","140860","0.0-6.0-0.0-0.10","12gexjlo94","many_one","0","indirect_first","0","ub05io13","1","25","1","1","3","1","","0","1","0","null","","","<div class = 'row'><div class = 'column'><img src = 'category2/CS2.png' width = '70%;'></div><div class = 'column'><img src = 'usneg/9520.bmp' width = '100%;'></div></div>","null","neg","CS","CS","2","category2/CS2.png","","","","",""
"","html-keyboard-response","17","143364","0.0-6.0-0.0-0.11","12gexjlo94","many_one","0","indirect_first","0","ub05io13","1","25","1","1","3","1","","0","1","0","null","","","<div class = 'row'><div class = 'column'><img src = 'uspos/8490.bmp' width = '100%;'></div><div class = 'column'><img src = 'category1/CS3.png' width = '70%;'></div></div>","null","pos","CS","CS","1","category1/CS3.png","","","","",""
"","html-keyboard-response","18","145868","0.0-6.0-0.0-0.12","12gexjlo94","many_one","0","indirect_first","0","ub05io13","1","25","1","1","3","1","","0","1","0","null","","","<div class = 'row'><div class = 'column'><img src = 'uspos/2057.bmp' width = '100%;'></div><div class = 'column'><img src = 'category1/CS1.png' width = '70%;'></div></div>","null","pos","CS","CS","1","category1/CS1.png","","","","",""
"","html-keyboard-response","19","148371","0.0-6.0-0.0-0.13","12gexjlo94","many_one","0","indirect_first","0","ub05io13","1","25","1","1","3","1","","0","1","0","null","","","<div class = 'row'><div class = 'column'><img src = 'usneg/9404.bmp' width = '100%;'></div><div class = 'column'><img src = 'category2/CS3.png' width = '70%;'></div></div>","null","neg","CS","CS","2","category2/CS3.png","","","","",""
"","html-keyboard-response","20","150875","0.0-6.0-0.0-0.14","12gexjlo94","many_one","0","indirect_first","0","ub05io13","1","25","1","1","3","1","","0","1","0","null","","","<div class = 'row'><div class = 'column'><img src = 'category4/CS8.png' width = '70%;'></div><div class = 'column'><img src = 'usneg/9561.bmp' width = '100%;'></div></div>","null","neg","CS","CS","4","category4/CS8.png","","","","",""
"","html-keyboard-response","21","153379","0.0-6.0-0.0-0.15","12gexjlo94","many_one","0","indirect_first","0","ub05io13","1","25","1","1","3","1","","0","1","0","null","","","<div class = 'row'><div class = 'column'><img src = 'category3/CS5.png' width = '70%;'></div><div class = 'column'><img src = 'uspos/2208.bmp' width = '100%;'></div></div>","null","pos","CS","CS","3","category3/CS5.png","","","","",""
"","html-keyboard-response","22","155882","0.0-6.0-0.0-0.16","12gexjlo94","many_one","0","indirect_first","0","ub05io13","1","25","1","1","3","1","","0","1","0","null","","","<div class = 'row'><div class = 'column'><img src = 'uspos/8350.bmp' width = '100%;'></div><div class = 'column'><img src = 'category3/CS10.png' width = '70%;'></div></div>","null","pos","CS","CS","3","category3/CS10.png","","","","",""
"","html-keyboard-response","23","158385","0.0-6.0-0.0-0.17","12gexjlo94","many_one","0","indirect_first","0","ub05io13","1","25","1","1","3","1","","0","1","0","null","","","<div class = 'row'><div class = 'column'><img src = 'category1/CS6.png' width = '70%;'></div><div class = 'column'><img src = 'uspos/2165.bmp' width = '100%;'></div></div>","null","pos","CS","CS","1","category1/CS6.png","","","","",""
"","html-keyboard-response","24","160888","0.0-6.0-0.0-0.18","12gexjlo94","many_one","0","indirect_first","0","ub05io13","1","25","1","1","3","1","","0","1","0","null","","","<div class = 'row'><div class = 'column'><img src = 'category4/CS3.png' width = '70%;'></div><div class = 'column'><img src = 'usneg/7380.bmp' width = '100%;'></div></div>","null","neg","CS","CS","4","category4/CS3.png","","","","",""
"","html-keyboard-response","25","163392","0.0-6.0-0.0-0.19","12gexjlo94","many_one","0","indirect_first","0","ub05io13","1","25","1","1","3","1","","0","1","0","null","","","<div class = 'row'><div class = 'column'><img src = 'usneg/9415.bmp' width = '100%;'></div><div class = 'column'><img src = 'category4/CS9.png' width = '70%;'></div></div>","null","neg","CS","CS","4","category4/CS9.png","","","","",""
"","survey-html-form","26","168602","0.0-6.0-1.0","12gexjlo94","many_one","0","indirect_first","0","ub05io13","1","25","1","1","3","1","","0","1","0","4709.294999949634","","{}","","","","","","","","","","","",""
"","html-keyboard-response","27","172607","0.0-6.0-2.0-0.0","12gexjlo94","many_one","0","indirect_first","0","ub05io13","1","25","1","1","3","1","","0","1","0","null","","","<div class = 'row'><div class = 'column'><img src = 'category3/CS5.png' width = '70%;'></div><div class = 'column'><img src = 'uspos/2208.bmp' width = '100%;'></div></div>","null","pos","CS","CS","3","category3/CS5.png","","","","",""
"","html-keyboard-response","28","175109","0.0-6.0-2.0-0.1","12gexjlo94","many_one","0","indirect_first","0","ub05io13","1","25","1","1","3","1","","0","1","0","null","","","<div class = 'row'><div class = 'column'><img src = 'category3/CS10.png' width = '70%;'></div><div class = 'column'><img src = 'uspos/8350.bmp' width = '100%;'></div></div>","null","pos","CS","CS","3","category3/CS10.png","","","","",""
"","html-keyboard-response","29","177612","0.0-6.0-2.0-0.2","12gexjlo94","many_one","0","indirect_first","0","ub05io13","1","25","1","1","3","1","","0","1","0","null","","","<div class = 'row'><div class = 'column'><img src = 'usneg/9561.bmp' width = '100%;'></div><div class = 'column'><img src = 'category4/CS8.png' width = '70%;'></div></div>","null","neg","CS","CS","4","category4/CS8.png","","","","",""
"","html-keyboard-response","30","180116","0.0-6.0-2.0-0.3","12gexjlo94","many_one","0","indirect_first","0","ub05io13","1","25","1","1","3","1","","0","1","0","null","","","<div class = 'row'><div class = 'column'><img src = 'usneg/2141.bmp' width = '100%;'></div><div class = 'column'><img src = 'category4/CS10.png' width = '70%;'></div></div>","null","neg","CS","CS","4","category4/CS10.png","","","","",""
"","html-keyboard-response","31","182620","0.0-6.0-2.0-0.4","12gexjlo94","many_one","0","indirect_first","0","ub05io13","1","25","1","1","3","1","","0","1","0","null","","","<div class = 'row'><div class = 'column'><img src = 'uspos/8490.bmp' width = '100%;'></div><div class = 'column'><img src = 'category1/CS3.png' width = '70%;'></div></div>","null","pos","CS","CS","1","category1/CS3.png","","","","",""
"","html-keyboard-response","32","185124","0.0-6.0-2.0-0.5","12gexjlo94","many_one","0","indirect_first","0","ub05io13","1","25","1","1","3","1","","0","1","0","null","","","<div class = 'row'><div class = 'column'><img src = 'uspos/8461.bmp' width = '100%;'></div><div class = 'column'><img src = 'category1/CS5.png' width = '70%;'></div></div>","null","pos","CS","CS","1","category1/CS5.png","","","","",""
"","html-keyboard-response","33","187627","0.0-6.0-2.0-0.6","12gexjlo94","many_one","0","indirect_first","0","ub05io13","1","25","1","1","3","1","","0","1","0","null","","","<div class = 'row'><div class = 'column'><img src = 'category2/CS6.png' width = '70%;'></div><div class = 'column'><img src = 'usneg/3160.bmp' width = '100%;'></div></div>","null","neg","CS","CS","2","category2/CS6.png","","","","",""
"","html-keyboard-response","34","190131","0.0-6.0-2.0-0.7","12gexjlo94","many_one","0","indirect_first","0","ub05io13","1","25","1","1","3","1","","0","1","0","null","","","<div class = 'row'><div class = 'column'><img src = 'usneg/9342.bmp' width = '100%;'></div><div class = 'column'><img src = 'category2/CS7.png' width = '70%;'></div></div>","null","neg","CS","CS","2","category2/CS7.png","","","","",""
"","html-keyboard-response","35","192637","0.0-6.0-2.0-0.8","12gexjlo94","many_one","0","indirect_first","0","ub05io13","1","25","1","1","3","1","","0","1","0","null","","","<div class = 'row'><div class = 'column'><img src = 'category2/CS2.png' width = '70%;'></div><div class = 'column'><img src = 'usneg/9520.bmp' width = '100%;'></div></div>","null","neg","CS","CS","2","category2/CS2.png","","","","",""
"","html-keyboard-response","36","195140","0.0-6.0-2.0-0.9","12gexjlo94","many_one","0","indirect_first","0","ub05io13","1","25","1","1","3","1","","0","1","0","null","","","<div class = 'row'><div class = 'column'><img src = 'usneg/9404.bmp' width = '100%;'></div><div class = 'column'><img src = 'category2/CS3.png' width = '70%;'></div></div>","null","neg","CS","CS","2","category2/CS3.png","","","","",""
"","html-keyboard-response","37","197643","0.0-6.0-2.0-0.10","12gexjlo94","many_one","0","indirect_first","0","ub05io13","1","25","1","1","3","1","","0","1","0","null","","","<div class = 'row'><div class = 'column'><img src = 'category1/CS7.png' width = '70%;'></div><div class = 'column'><img src = 'uspos/8080.bmp' width = '100%;'></div></div>","null","pos","CS","CS","1","category1/CS7.png","","","","",""
"","html-keyboard-response","38","200146","0.0-6.0-2.0-0.11","12gexjlo94","many_one","0","indirect_first","0","ub05io13","1","25","1","1","3","1","","0","1","0","null","","","<div class = 'row'><div class = 'column'><img src = 'uspos/2150.bmp' width = '100%;'></div><div class = 'column'><img src = 'category3/CS9.png' width = '70%;'></div></div>","null","pos","CS","CS","3","category3/CS9.png","","","","",""
"","html-keyboard-response","39","202649","0.0-6.0-2.0-0.12","12gexjlo94","many_one","0","indirect_first","0","ub05io13","1","25","1","1","3","1","","0","1","0","null","","","<div class = 'row'><div class = 'column'><img src = 'uspos/5830.bmp' width = '100%;'></div><div class = 'column'><img src = 'category3/CS6.png' width = '70%;'></div></div>","null","pos","CS","CS","3","category3/CS6.png","","","","",""
"","html-keyboard-response","40","205153","0.0-6.0-2.0-0.13","12gexjlo94","many_one","0","indirect_first","0","ub05io13","1","25","1","1","3","1","","0","1","0","null","","","<div class = 'row'><div class = 'column'><img src = 'usneg/9000.bmp' width = '100%;'></div><div class = 'column'><img src = 'category4/CS5.png' width = '70%;'></div></div>","null","neg","CS","CS","4","category4/CS5.png","","","","",""
"","html-keyboard-response","41","207657","0.0-6.0-2.0-0.14","12gexjlo94","many_one","0","indirect_first","0","ub05io13","1","25","1","1","3","1","","0","1","0","null","","","<div class = 'row'><div class = 'column'><img src = 'category3/CS2.png' width = '70%;'></div><div class = 'column'><img src = 'uspos/5470.bmp' width = '100%;'></div></div>","null","pos","CS","CS","3","category3/CS2.png","","","","",""
"","html-keyboard-response","42","210161","0.0-6.0-2.0-0.15","12gexjlo94","many_one","0","indirect_first","0","ub05io13","1","25","1","1","3","1","","0","1","0","null","","","<div class = 'row'><div class = 'column'><img src = 'usneg/7380.bmp' width = '100%;'></div><div class = 'column'><img src = 'category4/CS3.png' width = '70%;'></div></div>","null","neg","CS","CS","4","category4/CS3.png","","","","",""
"","html-keyboard-response","43","212663","0.0-6.0-2.0-0.16","12gexjlo94","many_one","0","indirect_first","0","ub05io13","1","25","1","1","3","1","","0","1","0","null","","","<div class = 'row'><div class = 'column'><img src = 'category4/CS9.png' width = '70%;'></div><div class = 'column'><img src = 'usneg/9415.bmp' width = '100%;'></div></div>","null","neg","CS","CS","4","category4/CS9.png","","","","",""
"","html-keyboard-response","44","215166","0.0-6.0-2.0-0.17","12gexjlo94","many_one","0","indirect_first","0","ub05io13","1","25","1","1","3","1","","0","1","0","null","","","<div class = 'row'><div class = 'column'><img src = 'category1/CS1.png' width = '70%;'></div><div class = 'column'><img src = 'uspos/2057.bmp' width = '100%;'></div></div>","null","pos","CS","CS","1","category1/CS1.png","","","","",""
"","html-keyboard-response","45","217669","0.0-6.0-2.0-0.18","12gexjlo94","many_one","0","indirect_first","0","ub05io13","1","25","1","1","3","1","","0","1","0","null","","","<div class = 'row'><div class = 'column'><img src = 'category1/CS6.png' width = '70%;'></div><div class = 'column'><img src = 'uspos/2165.bmp' width = '100%;'></div></div>","null","pos","CS","CS","1","category1/CS6.png","","","","",""
"","html-keyboard-response","46","220173","0.0-6.0-2.0-0.19","12gexjlo94","many_one","0","indirect_first","0","ub05io13","1","25","1","1","3","1","","0","1","0","null","","","<div class = 'row'><div class = 'column'><img src = 'usneg/9920.bmp' width = '100%;'></div><div class = 'column'><img src = 'category2/CS1.png' width = '70%;'></div></div>","null","neg","CS","CS","2","category2/CS1.png","","","","",""
"","survey-html-form","47","225019","0.0-6.0-3.0","12gexjlo94","many_one","0","indirect_first","0","ub05io13","1","25","1","1","3","1","","0","1","0","4344.985000090674","","{}","","","","","","","","","","","",""
"","html-keyboard-response","48","229022","0.0-6.0-4.0-0.0","12gexjlo94","many_one","0","indirect_first","0","ub05io13","1","25","1","1","3","1","","0","1","0","null","","","<div class = 'row'><div class = 'column'><img src = 'category4/CS8.png' width = '70%;'></div><div class = 'column'><img src = 'usneg/9561.bmp' width = '100%;'></div></div>","null","neg","CS","CS","4","category4/CS8.png","","","","",""
"","html-keyboard-response","49","231525","0.0-6.0-4.0-0.1","12gexjlo94","many_one","0","indirect_first","0","ub05io13","1","25","1","1","3","1","","0","1","0","null","","","<div class = 'row'><div class = 'column'><img src = 'uspos/5470.bmp' width = '100%;'></div><div class = 'column'><img src = 'category3/CS2.png' width = '70%;'></div></div>","null","pos","CS","CS","3","category3/CS2.png","","","","",""
"","html-keyboard-response","50","234028","0.0-6.0-4.0-0.2","12gexjlo94","many_one","0","indirect_first","0","ub05io13","1","25","1","1","3","1","","0","1","0","null","","","<div class = 'row'><div class = 'column'><img src = 'category1/CS6.png' width = '70%;'></div><div class = 'column'><img src = 'uspos/2165.bmp' width = '100%;'></div></div>","null","pos","CS","CS","1","category1/CS6.png","","","","",""
"","html-keyboard-response","51","236532","0.0-6.0-4.0-0.3","12gexjlo94","many_one","0","indirect_first","0","ub05io13","1","25","1","1","3","1","","0","1","0","null","","","<div class = 'row'><div class = 'column'><img src = 'category2/CS7.png' width = '70%;'></div><div class = 'column'><img src = 'usneg/9342.bmp' width = '100%;'></div></div>","null","neg","CS","CS","2","category2/CS7.png","","","","",""
"","html-keyboard-response","52","239037","0.0-6.0-4.0-0.4","12gexjlo94","many_one","0","indirect_first","0","ub05io13","1","25","1","1","3","1","","0","1","0","null","","","<div class = 'row'><div class = 'column'><img src = 'usneg/9404.bmp' width = '100%;'></div><div class = 'column'><img src = 'category2/CS3.png' width = '70%;'></div></div>","null","neg","CS","CS","2","category2/CS3.png","","","","",""
"","html-keyboard-response","53","241541","0.0-6.0-4.0-0.5","12gexjlo94","many_one","0","indirect_first","0","ub05io13","1","25","1","1","3","1","","0","1","0","null","","","<div class = 'row'><div class = 'column'><img src = 'category2/CS1.png' width = '70%;'></div><div class = 'column'><img src = 'usneg/9920.bmp' width = '100%;'></div></div>","null","neg","CS","CS","2","category2/CS1.png","","","","",""
"","html-keyboard-response","54","244044","0.0-6.0-4.0-0.6","12gexjlo94","many_one","0","indirect_first","0","ub05io13","1","25","1","1","3","1","","0","1","0","null","","","<div class = 'row'><div class = 'column'><img src = 'category4/CS10.png' width = '70%;'></div><div class = 'column'><img src = 'usneg/2141.bmp' width = '100%;'></div></div>","null","neg","CS","CS","4","category4/CS10.png","","","","",""
"","html-keyboard-response","55","246548","0.0-6.0-4.0-0.7","12gexjlo94","many_one","0","indirect_first","0","ub05io13","1","25","1","1","3","1","","0","1","0","null","","","<div class = 'row'><div class = 'column'><img src = 'usneg/9520.bmp' width = '100%;'></div><div class = 'column'><img src = 'category2/CS2.png' width = '70%;'></div></div>","null","neg","CS","CS","2","category2/CS2.png","","","","",""
"","html-keyboard-response","56","249053","0.0-6.0-4.0-0.8","12gexjlo94","many_one","0","indirect_first","0","ub05io13","1","25","1","1","3","1","","0","1","0","null","","","<div class = 'row'><div class = 'column'><img src = 'category4/CS3.png' width = '70%;'></div><div class = 'column'><img src = 'usneg/7380.bmp' width = '100%;'></div></div>","null","neg","CS","CS","4","category4/CS3.png","","","","",""
"","html-keyboard-response","57","251559","0.0-6.0-4.0-0.9","12gexjlo94","many_one","0","indirect_first","0","ub05io13","1","25","1","1","3","1","","0","1","0","null","","","<div class = 'row'><div class = 'column'><img src = 'usneg/3160.bmp' width = '100%;'></div><div class = 'column'><img src = 'category2/CS6.png' width = '70%;'></div></div>","null","neg","CS","CS","2","category2/CS6.png","","","","",""
"","html-keyboard-response","58","254062","0.0-6.0-4.0-0.10","12gexjlo94","many_one","0","indirect_first","0","ub05io13","1","25","1","1","3","1","","0","1","0","null","","","<div class = 'row'><div class = 'column'><img src = 'category1/CS5.png' width = '70%;'></div><div class = 'column'><img src = 'uspos/8461.bmp' width = '100%;'></div></div>","null","pos","CS","CS","1","category1/CS5.png","","","","",""
"","html-keyboard-response","59","256566","0.0-6.0-4.0-0.11","12gexjlo94","many_one","0","indirect_first","0","ub05io13","1","25","1","1","3","1","","0","1","0","null","","","<div class = 'row'><div class = 'column'><img src = 'category3/CS10.png' width = '70%;'></div><div class = 'column'><img src = 'uspos/8350.bmp' width = '100%;'></div></div>","null","pos","CS","CS","3","category3/CS10.png","","","","",""
"","html-keyboard-response","60","259071","0.0-6.0-4.0-0.12","12gexjlo94","many_one","0","indirect_first","0","ub05io13","1","25","1","1","3","1","","0","1","0","null","","","<div class = 'row'><div class = 'column'><img src = 'uspos/2208.bmp' width = '100%;'></div><div class = 'column'><img src = 'category3/CS5.png' width = '70%;'></div></div>","null","pos","CS","CS","3","category3/CS5.png","","","","",""
"","html-keyboard-response","61","261575","0.0-6.0-4.0-0.13","12gexjlo94","many_one","0","indirect_first","0","ub05io13","1","25","1","1","3","1","","0","1","0","null","","","<div class = 'row'><div class = 'column'><img src = 'uspos/5830.bmp' width = '100%;'></div><div class = 'column'><img src = 'category3/CS6.png' width = '70%;'></div></div>","null","pos","CS","CS","3","category3/CS6.png","","","","",""
"","html-keyboard-response","62","264079","0.0-6.0-4.0-0.14","12gexjlo94","many_one","0","indirect_first","0","ub05io13","1","25","1","1","3","1","","0","1","0","null","","","<div class = 'row'><div class = 'column'><img src = 'usneg/9415.bmp' width = '100%;'></div><div class = 'column'><img src = 'category4/CS9.png' width = '70%;'></div></div>","null","neg","CS","CS","4","category4/CS9.png","","","","",""
"","html-keyboard-response","63","266582","0.0-6.0-4.0-0.15","12gexjlo94","many_one","0","indirect_first","0","ub05io13","1","25","1","1","3","1","","0","1","0","null","","","<div class = 'row'><div class = 'column'><img src = 'uspos/2057.bmp' width = '100%;'></div><div class = 'column'><img src = 'category1/CS1.png' width = '70%;'></div></div>","null","pos","CS","CS","1","category1/CS1.png","","","","",""
"","html-keyboard-response","64","269130","0.0-6.0-4.0-0.16","12gexjlo94","many_one","0","indirect_first","0","ub05io13","1","25","1","1","3","1","","0","1","0","null","","","<div class = 'row'><div class = 'column'><img src = 'usneg/9000.bmp' width = '100%;'></div><div class = 'column'><img src = 'category4/CS5.png' width = '70%;'></div></div>","null","neg","CS","CS","4","category4/CS5.png","","","","",""
"","html-keyboard-response","65","271634","0.0-6.0-4.0-0.17","12gexjlo94","many_one","0","indirect_first","0","ub05io13","1","25","1","1","3","1","","0","1","0","null","","","<div class = 'row'><div class = 'column'><img src = 'uspos/8490.bmp' width = '100%;'></div><div class = 'column'><img src = 'category1/CS3.png' width = '70%;'></div></div>","null","pos","CS","CS","1","category1/CS3.png","","","","",""
"","html-keyboard-response","66","274138","0.0-6.0-4.0-0.18","12gexjlo94","many_one","0","indirect_first","0","ub05io13","1","25","1","1","3","1","","0","1","0","null","","","<div class = 'row'><div class = 'column'><img src = 'category3/CS9.png' width = '70%;'></div><div class = 'column'><img src = 'uspos/2150.bmp' width = '100%;'></div></div>","null","pos","CS","CS","3","category3/CS9.png","","","","",""
"","html-keyboard-response","67","276641","0.0-6.0-4.0-0.19","12gexjlo94","many_one","0","indirect_first","0","ub05io13","1","25","1","1","3","1","","0","1","0","null","","","<div class = 'row'><div class = 'column'><img src = 'uspos/8080.bmp' width = '100%;'></div><div class = 'column'><img src = 'category1/CS7.png' width = '70%;'></div></div>","null","pos","CS","CS","1","category1/CS7.png","","","","",""
"","survey-html-form","68","288039","0.0-6.0-5.0","12gexjlo94","many_one","0","indirect_first","0","ub05io13","1","25","1","1","3","1","","0","1","0","10896.015000063926","","{}","","","","","","","","","","","",""
"","html-keyboard-response","69","292045","0.0-6.0-6.0-0.0","12gexjlo94","many_one","0","indirect_first","0","ub05io13","1","25","1","1","3","1","","0","1","0","null","","","<div class = 'row'><div class = 'column'><img src = 'uspos/2057.bmp' width = '100%;'></div><div class = 'column'><img src = 'category1/CS1.png' width = '70%;'></div></div>","null","pos","CS","CS","1","category1/CS1.png","","","","",""
"","html-keyboard-response","70","294549","0.0-6.0-6.0-0.1","12gexjlo94","many_one","0","indirect_first","0","ub05io13","1","25","1","1","3","1","","0","1","0","null","","","<div class = 'row'><div class = 'column'><img src = 'category2/CS1.png' width = '70%;'></div><div class = 'column'><img src = 'usneg/9920.bmp' width = '100%;'></div></div>","null","neg","CS","CS","2","category2/CS1.png","","","","",""
"","html-keyboard-response","71","297053","0.0-6.0-6.0-0.2","12gexjlo94","many_one","0","indirect_first","0","ub05io13","1","25","1","1","3","1","","0","1","0","null","","","<div class = 'row'><div class = 'column'><img src = 'category4/CS3.png' width = '70%;'></div><div class = 'column'><img src = 'usneg/7380.bmp' width = '100%;'></div></div>","null","neg","CS","CS","4","category4/CS3.png","","","","",""
"","html-keyboard-response","72","299556","0.0-6.0-6.0-0.3","12gexjlo94","many_one","0","indirect_first","0","ub05io13","1","25","1","1","3","1","","0","1","0","null","","","<div class = 'row'><div class = 'column'><img src = 'usneg/9000.bmp' width = '100%;'></div><div class = 'column'><img src = 'category4/CS5.png' width = '70%;'></div></div>","null","neg","CS","CS","4","category4/CS5.png","","","","",""
"","html-keyboard-response","73","303048","0.0-6.0-6.0-0.4","12gexjlo94","many_one","0","indirect_first","0","ub05io13","1","25","1","1","3","1","","0","1","0","null","","","<div class = 'row'><div class = 'column'><img src = 'category2/CS3.png' width = '70%;'></div><div class = 'column'><img src = 'usneg/9404.bmp' width = '100%;'></div></div>","null","neg","CS","CS","2","category2/CS3.png","","","","",""
"","html-keyboard-response","74","307048","0.0-6.0-6.0-0.5","12gexjlo94","many_one","0","indirect_first","0","ub05io13","1","25","1","1","3","1","","0","1","0","null","","","<div class = 'row'><div class = 'column'><img src = 'uspos/2150.bmp' width = '100%;'></div><div class = 'column'><img src = 'category3/CS9.png' width = '70%;'></div></div>","null","pos","CS","CS","3","category3/CS9.png","","","","",""
"","html-keyboard-response","75","311048","0.0-6.0-6.0-0.6","12gexjlo94","many_one","0","indirect_first","0","ub05io13","1","25","1","1","3","1","","0","1","0","null","","","<div class = 'row'><div class = 'column'><img src = 'uspos/5470.bmp' width = '100%;'></div><div class = 'column'><img src = 'category3/CS2.png' width = '70%;'></div></div>","null","pos","CS","CS","3","category3/CS2.png","","","","",""
"","html-keyboard-response","76","314997","0.0-6.0-6.0-0.7","12gexjlo94","many_one","0","indirect_first","0","ub05io13","1","25","1","1","3","1","","0","1","0","null","","","<div class = 'row'><div class = 'column'><img src = 'uspos/2165.bmp' width = '100%;'></div><div class = 'column'><img src = 'category1/CS6.png' width = '70%;'></div></div>","null","pos","CS","CS","1","category1/CS6.png","","","","",""
"","html-keyboard-response","77","317501","0.0-6.0-6.0-0.8","12gexjlo94","many_one","0","indirect_first","0","ub05io13","1","25","1","1","3","1","","0","1","0","null","","","<div class = 'row'><div class = 'column'><img src = 'uspos/8490.bmp' width = '100%;'></div><div class = 'column'><img src = 'category1/CS3.png' width = '70%;'></div></div>","null","pos","CS","CS","1","category1/CS3.png","","","","",""
"","html-keyboard-response","78","320006","0.0-6.0-6.0-0.9","12gexjlo94","many_one","0","indirect_first","0","ub05io13","1","25","1","1","3","1","","0","1","0","null","","","<div class = 'row'><div class = 'column'><img src = 'usneg/3160.bmp' width = '100%;'></div><div class = 'column'><img src = 'category2/CS6.png' width = '70%;'></div></div>","null","neg","CS","CS","2","category2/CS6.png","","","","",""
"","html-keyboard-response","79","322509","0.0-6.0-6.0-0.10","12gexjlo94","many_one","0","indirect_first","0","ub05io13","1","25","1","1","3","1","","0","1","0","null","","","<div class = 'row'><div class = 'column'><img src = 'category2/CS2.png' width = '70%;'></div><div class = 'column'><img src = 'usneg/9520.bmp' width = '100%;'></div></div>","null","neg","CS","CS","2","category2/CS2.png","","","","",""
"","html-keyboard-response","80","325012","0.0-6.0-6.0-0.11","12gexjlo94","many_one","0","indirect_first","0","ub05io13","1","25","1","1","3","1","","0","1","0","null","","","<div class = 'row'><div class = 'column'><img src = 'usneg/2141.bmp' width = '100%;'></div><div class = 'column'><img src = 'category4/CS10.png' width = '70%;'></div></div>","null","neg","CS","CS","4","category4/CS10.png","","","","",""
"","html-keyboard-response","81","327516","0.0-6.0-6.0-0.12","12gexjlo94","many_one","0","indirect_first","0","ub05io13","1","25","1","1","3","1","","0","1","0","null","","","<div class = 'row'><div class = 'column'><img src = 'uspos/8350.bmp' width = '100%;'></div><div class = 'column'><img src = 'category3/CS10.png' width = '70%;'></div></div>","null","pos","CS","CS","3","category3/CS10.png","","","","",""
"","html-keyboard-response","82","330019","0.0-6.0-6.0-0.13","12gexjlo94","many_one","0","indirect_first","0","ub05io13","1","25","1","1","3","1","","0","1","0","null","","","<div class = 'row'><div class = 'column'><img src = 'uspos/2208.bmp' width = '100%;'></div><div class = 'column'><img src = 'category3/CS5.png' width = '70%;'></div></div>","null","pos","CS","CS","3","category3/CS5.png","","","","",""
"","html-keyboard-response","83","332523","0.0-6.0-6.0-0.14","12gexjlo94","many_one","0","indirect_first","0","ub05io13","1","25","1","1","3","1","","0","1","0","null","","","<div class = 'row'><div class = 'column'><img src = 'usneg/9561.bmp' width = '100%;'></div><div class = 'column'><img src = 'category4/CS8.png' width = '70%;'></div></div>","null","neg","CS","CS","4","category4/CS8.png","","","","",""
"","html-keyboard-response","84","335026","0.0-6.0-6.0-0.15","12gexjlo94","many_one","0","indirect_first","0","ub05io13","1","25","1","1","3","1","","0","1","0","null","","","<div class = 'row'><div class = 'column'><img src = 'category4/CS9.png' width = '70%;'></div><div class = 'column'><img src = 'usneg/9415.bmp' width = '100%;'></div></div>","null","neg","CS","CS","4","category4/CS9.png","","","","",""
"","html-keyboard-response","85","337530","0.0-6.0-6.0-0.16","12gexjlo94","many_one","0","indirect_first","0","ub05io13","1","25","1","1","3","1","","0","1","0","null","","","<div class = 'row'><div class = 'column'><img src = 'uspos/5830.bmp' width = '100%;'></div><div class = 'column'><img src = 'category3/CS6.png' width = '70%;'></div></div>","null","pos","CS","CS","3","category3/CS6.png","","","","",""
"","html-keyboard-response","86","340033","0.0-6.0-6.0-0.17","12gexjlo94","many_one","0","indirect_first","0","ub05io13","1","25","1","1","3","1","","0","1","0","null","","","<div class = 'row'><div class = 'column'><img src = 'uspos/8461.bmp' width = '100%;'></div><div class = 'column'><img src = 'category1/CS5.png' width = '70%;'></div></div>","null","pos","CS","CS","1","category1/CS5.png","","","","",""
"","html-keyboard-response","87","342537","0.0-6.0-6.0-0.18","12gexjlo94","many_one","0","indirect_first","0","ub05io13","1","25","1","1","3","1","","0","1","0","null","","","<div class = 'row'><div class = 'column'><img src = 'usneg/9342.bmp' width = '100%;'></div><div class = 'column'><img src = 'category2/CS7.png' width = '70%;'></div></div>","null","neg","CS","CS","2","category2/CS7.png","","","","",""
"","html-keyboard-response","88","345041","0.0-6.0-6.0-0.19","12gexjlo94","many_one","0","indirect_first","0","ub05io13","1","25","1","1","3","1","","0","1","0","null","","","<div class = 'row'><div class = 'column'><img src = 'category1/CS7.png' width = '70%;'></div><div class = 'column'><img src = 'uspos/8080.bmp' width = '100%;'></div></div>","null","pos","CS","CS","1","category1/CS7.png","","","","",""
"","html-keyboard-response","89","375656","0.0-7.0","12gexjlo94","many_one","0","indirect_first","0","ub05io13","1","25","1","1","3","1","","0","1","0","30113.1400000304","","","<p>Sie sehen nun die chinesischen Zeichen nur ganz kurz. Danach sehen Sie die jeweilige Aussprache der Zeichen als Silbe auf dem Bildschrim. Ihre Aufgabe ist es, für jede Silbe anzugeben, ob diese etwas angenehmes, oder unangenehmes bedeuten könnte. Verlassen Sie sich hier vor allem auf Ihre Intuition.<br><br>Die Zeichen werden nur zur Orientierung dargestellt, beachten Sie sie deshalb nicht. Konzentrieren Sie sich vor allem auf die Silben. <br>Reagieren Sie mit folgenden zwei Tasten: <br><br><b>'D' </b> wenn die Silbe etwas <b>unangenehmes</b> bedeuten könnte. <br><b>'K'</b> wenn die Silbe etwas <b>angenehmes</b> bedeuten könnte. <br><br>Bitte legen Sie nun den Zeigefinger der linken Hand auf die Taste 'D' und den Zeigefinger der rechten Hand auf die Taste 'K'. <br>Reagieren Sie auf jede Silbe so schnell wie möglich. Uns interessiert Ihre spontane Reaktion. <br> <br> <br>Drücken Sie 'D' oder 'K', um die nächste Aufgabe zu starten. </p>","68","","","","","","","","","",""
"","html-keyboard-response","90","378657","0.0-8.0-0.0","12gexjlo94","many_one","0","indirect_first","0","ub05io13","1","25","1","1","3","1","","0","1","0","null","","","<div style=""font-size:60px;"">+</div>","null","","","","","","","","","",""
"","html-keyboard-response","91","378748","0.0-8.0-1.0","12gexjlo94","many_one","0","indirect_first","0","ub05io13","1","25","1","1","3","1","","0","1","0","null","","","<img src = 'category4/CS4.png' width = '100%;'>","null","","","","","","","","","",""
"","html-keyboard-response","92","379001","0.0-8.0-2.0","12gexjlo94","many_one","0","indirect_first","0","ub05io13","1","25","1","1","3","1","","0","1","0","null","","","<img src = 'targets/8.png' width = '100%;'>","null","","","","","","","","","",""
"","html-keyboard-response","93","379252","0.0-8.0-3.0","12gexjlo94","many_one","0","indirect_first","0","ub05io13","1","25","1","1","3","1","","0","1","0","250.6450000219047","","","<img src = 'targets/mask.png' width = '100%;'>","68","neg","GS","GSold","4","category4/CS4.png","targets/8.png","0","indirect","0",""
"","html-keyboard-response","94","380756","0.0-8.0-0.1","12gexjlo94","many_one","0","indirect_first","0","ub05io13","1","25","1","1","3","1","","0","1","0","null","","","<div style=""font-size:60px;"">+</div>","null","","","","","","","","","",""
"","html-keyboard-response","95","380847","0.0-8.0-1.1","12gexjlo94","many_one","0","indirect_first","0","ub05io13","1","25","1","1","3","1","","0","1","0","null","","","<img src = 'category2/CS2.png' width = '100%;'>","null","","","","","","","","","",""
"","html-keyboard-response","96","381099","0.0-8.0-2.1","12gexjlo94","many_one","0","indirect_first","0","ub05io13","1","25","1","1","3","1","","0","1","0","null","","","<img src = 'targets/16.png' width = '100%;'>","null","","","","","","","","","",""
"","html-keyboard-response","97","383978","0.0-8.0-3.1","12gexjlo94","many_one","0","indirect_first","0","ub05io13","1","25","1","1","3","1","","0","1","0","2877.925000153482","","","<img src = 'targets/mask.png' width = '100%;'>","75","neg","CS","CS","2","category2/CS2.png","targets/16.png","1","indirect","1",""
"","html-keyboard-response","98","385479","0.0-8.0-0.2","12gexjlo94","many_one","0","indirect_first","0","ub05io13","1","25","1","1","3","1","","0","1","0","null","","","<div style=""font-size:60px;"">+</div>","null","","","","","","","","","",""
"","html-keyboard-response","99","385570","0.0-8.0-1.2","12gexjlo94","many_one","0","indirect_first","0","ub05io13","1","25","1","1","3","1","","0","1","0","null","","","<img src = 'category1/CS6.png' width = '100%;'>","null","","","","","","","","","",""
"","html-keyboard-response","100","385823","0.0-8.0-2.2","12gexjlo94","many_one","0","indirect_first","0","ub05io13","1","25","1","1","3","1","","0","1","0","null","","","<img src = 'targets/41.png' width = '100%;'>","null","","","","","","","","","",""
"","html-keyboard-response","101","387055","0.0-8.0-3.2","12gexjlo94","many_one","0","indirect_first","0","ub05io13","1","25","1","1","3","1","","0","1","0","1231.720000039786","","","<img src = 'targets/mask.png' width = '100%;'>","68","pos","CS","CS","1","category1/CS6.png","targets/41.png","0","indirect","2",""
"","html-keyboard-response","102","388557","0.0-8.0-0.3","12gexjlo94","many_one","0","indirect_first","0","ub05io13","1","25","1","1","3","1","","0","1","0","null","","","<div style=""font-size:60px;"">+</div>","null","","","","","","","","","",""
"","html-keyboard-response","103","388649","0.0-8.0-1.3","12gexjlo94","many_one","0","indirect_first","0","ub05io13","1","25","1","1","3","1","","0","1","0","null","","","<img src = 'category2/CS1.png' width = '100%;'>","null","","","","","","","","","",""
"","html-keyboard-response","104","388901","0.0-8.0-2.3","12gexjlo94","many_one","0","indirect_first","0","ub05io13","1","25","1","1","3","1","","0","1","0","null","","","<img src = 'targets/15.png' width = '100%;'>","null","","","","","","","","","",""
"","html-keyboard-response","105","389485","0.0-8.0-3.3","12gexjlo94","many_one","0","indirect_first","0","ub05io13","1","25","1","1","3","1","","0","1","0","583.915000082925","","","<img src = 'targets/mask.png' width = '100%;'>","75","neg","CS","CS","2","category2/CS1.png","targets/15.png","1","indirect","3",""
"","html-keyboard-response","106","390987","0.0-8.0-0.4","12gexjlo94","many_one","0","indirect_first","0","ub05io13","1","25","1","1","3","1","","0","1","0","null","","","<div style=""font-size:60px;"">+</div>","null","","","","","","","","","",""
"","html-keyboard-response","107","391078","0.0-8.0-1.4","12gexjlo94","many_one","0","indirect_first","0","ub05io13","1","25","1","1","3","1","","0","1","0","null","","","<img src = 'category4/CS10.png' width = '100%;'>","null","","","","","","","","","",""
"","html-keyboard-response","108","391330","0.0-8.0-2.4","12gexjlo94","many_one","0","indirect_first","0","ub05io13","1","25","1","1","3","1","","0","1","0","null","","","<img src = 'targets/37.png' width = '100%;'>","null","","","","","","","","","",""
"","html-keyboard-response","109","392367","0.0-8.0-3.4","12gexjlo94","many_one","0","indirect_first","0","ub05io13","1","25","1","1","3","1","","0","1","0","1035.6000000610948","","","<img src = 'targets/mask.png' width = '100%;'>","75","neg","CS","CS","4","category4/CS10.png","targets/37.png","1","indirect","4",""
"","html-keyboard-response","110","393868","0.0-8.0-0.5","12gexjlo94","many_one","0","indirect_first","0","ub05io13","1","25","1","1","3","1","","0","1","0","null","","","<div style=""font-size:60px;"">+</div>","null","","","","","","","","","",""
"","html-keyboard-response","111","393959","0.0-8.0-1.5","12gexjlo94","many_one","0","indirect_first","0","ub05io13","1","25","1","1","3","1","","0","1","0","null","","","<img src = 'category4/CS3.png' width = '100%;'>","null","","","","","","","","","",""
"","html-keyboard-response","112","394211","0.0-8.0-2.5","12gexjlo94","many_one","0","indirect_first","0","ub05io13","1","25","1","1","3","1","","0","1","0","null","","","<img src = 'targets/35.png' width = '100%;'>","null","","","","","","","","","",""
"","html-keyboard-response","113","394725","0.0-8.0-3.5","12gexjlo94","many_one","0","indirect_first","0","ub05io13","1","25","1","1","3","1","","0","1","0","512.360000051558","","","<img src = 'targets/mask.png' width = '100%;'>","68","neg","CS","CS","4","category4/CS3.png","targets/35.png","0","indirect","5",""
"","html-keyboard-response","114","396226","0.0-8.0-0.6","12gexjlo94","many_one","0","indirect_first","0","ub05io13","1","25","1","1","3","1","","0","1","0","null","","","<div style=""font-size:60px;"">+</div>","null","","","","","","","","","",""
"","html-keyboard-response","115","396317","0.0-8.0-1.6","12gexjlo94","many_one","0","indirect_first","0","ub05io13","1","25","1","1","3","1","","0","1","0","null","","","<img src = 'category3/CS2.png' width = '100%;'>","null","","","","","","","","","",""
"","html-keyboard-response","116","396570","0.0-8.0-2.6","12gexjlo94","many_one","0","indirect_first","0","ub05io13","1","25","1","1","3","1","","0","1","0","null","","","<img src = 'targets/23.png' width = '100%;'>","null","","","","","","","","","",""
"","html-keyboard-response","117","397309","0.0-8.0-3.6","12gexjlo94","many_one","0","indirect_first","0","ub05io13","1","25","1","1","3","1","","0","1","0","737.9900000523776","","","<img src = 'targets/mask.png' width = '100%;'>","68","pos","CS","CS","3","category3/CS2.png","targets/23.png","0","indirect","6",""
"","html-keyboard-response","118","398813","0.0-8.0-0.7","12gexjlo94","many_one","0","indirect_first","0","ub05io13","1","25","1","1","3","1","","0","1","0","null","","","<div style=""font-size:60px;"">+</div>","null","","","","","","","","","",""
"","html-keyboard-response","119","398904","0.0-8.0-1.7","12gexjlo94","many_one","0","indirect_first","0","ub05io13","1","25","1","1","3","1","","0","1","0","null","","","<img src = 'category4/CS5.png' width = '100%;'>","null","","","","","","","","","",""
"","html-keyboard-response","120","399156","0.0-8.0-2.7","12gexjlo94","many_one","0","indirect_first","0","ub05io13","1","25","1","1","3","1","","0","1","0","null","","","<img src = 'targets/25.png' width = '100%;'>","null","","","","","","","","","",""
"","html-keyboard-response","121","399730","0.0-8.0-3.7","12gexjlo94","many_one","0","indirect_first","0","ub05io13","1","25","1","1","3","1","","0","1","0","573.0950001161546","","","<img src = 'targets/mask.png' width = '100%;'>","75","neg","CS","CS","4","category4/CS5.png","targets/25.png","1","indirect","7",""
"","html-keyboard-response","122","401231","0.0-8.0-0.8","12gexjlo94","many_one","0","indirect_first","0","ub05io13","1","25","1","1","3","1","","0","1","0","null","","","<div style=""font-size:60px;"">+</div>","null","","","","","","","","","",""
"","html-keyboard-response","123","401323","0.0-8.0-1.8","12gexjlo94","many_one","0","indirect_first","0","ub05io13","1","25","1","1","3","1","","0","1","0","null","","","<img src = 'category3/CS10.png' width = '100%;'>","null","","","","","","","","","",""
"","html-keyboard-response","124","401575","0.0-8.0-2.8","12gexjlo94","many_one","0","indirect_first","0","ub05io13","1","25","1","1","3","1","","0","1","0","null","","","<img src = 'targets/38.png' width = '100%;'>","null","","","","","","","","","",""
"","html-keyboard-response","125","401995","0.0-8.0-3.8","12gexjlo94","many_one","0","indirect_first","0","ub05io13","1","25","1","1","3","1","","0","1","0","419.7849999181926","","","<img src = 'targets/mask.png' width = '100%;'>","68","pos","CS","CS","3","category3/CS10.png","targets/38.png","0","indirect","8",""
"","html-keyboard-response","126","403497","0.0-8.0-0.9","12gexjlo94","many_one","0","indirect_first","0","ub05io13","1","25","1","1","3","1","","0","1","0","null","","","<div style=""font-size:60px;"">+</div>","null","","","","","","","","","",""
"","html-keyboard-response","127","403588","0.0-8.0-1.9","12gexjlo94","many_one","0","indirect_first","0","ub05io13","1","25","1","1","3","1","","0","1","0","null","","","<img src = 'category4/CS6.png' width = '100%;'>","null","","","","","","","","","",""
"","html-keyboard-response","128","403840","0.0-8.0-2.9","12gexjlo94","many_one","0","indirect_first","0","ub05io13","1","25","1","1","3","1","","0","1","0","null","","","<img src = 'targets/30.png' width = '100%;'>","null","","","","","","","","","",""
"","html-keyboard-response","129","404307","0.0-8.0-3.9","12gexjlo94","many_one","0","indirect_first","0","ub05io13","1","25","1","1","3","1","","0","1","0","465.1449997909367","","","<img src = 'targets/mask.png' width = '100%;'>","75","neg","GS","GSold","4","category4/CS6.png","targets/30.png","1","indirect","9",""
"","html-keyboard-response","130","405809","0.0-8.0-0.10","12gexjlo94","many_one","0","indirect_first","0","ub05io13","1","25","1","1","3","1","","0","1","0","null","","","<div style=""font-size:60px;"">+</div>","null","","","","","","","","","",""
"","html-keyboard-response","131","405901","0.0-8.0-1.10","12gexjlo94","many_one","0","indirect_first","0","ub05io13","1","25","1","1","3","1","","0","1","0","null","","","<img src = 'category3/CS8.png' width = '100%;'>","null","","","","","","","","","",""
"","html-keyboard-response","132","406153","0.0-8.0-2.10","12gexjlo94","many_one","0","indirect_first","0","ub05io13","1","25","1","1","3","1","","0","1","0","null","","","<img src = 'targets/18.png' width = '100%;'>","null","","","","","","","","","",""
"","html-keyboard-response","133","406677","0.0-8.0-3.10","12gexjlo94","many_one","0","indirect_first","0","ub05io13","1","25","1","1","3","1","","0","1","0","523.1600000988692","","","<img src = 'targets/mask.png' width = '100%;'>","68","pos","GS","GSold","3","category3/CS8.png","targets/18.png","0","indirect","10",""
"","html-keyboard-response","134","408178","0.0-8.0-0.11","12gexjlo94","many_one","0","indirect_first","0","ub05io13","1","25","1","1","3","1","","0","1","0","null","","","<div style=""font-size:60px;"">+</div>","null","","","","","","","","","",""
"","html-keyboard-response","135","408269","0.0-8.0-1.11","12gexjlo94","many_one","0","indirect_first","0","ub05io13","1","25","1","1","3","1","","0","1","0","null","","","<img src = 'category1/CS3.png' width = '100%;'>","null","","","","","","","","","",""
"","html-keyboard-response","136","408523","0.0-8.0-2.11","12gexjlo94","many_one","0","indirect_first","0","ub05io13","1","25","1","1","3","1","","0","1","0","null","","","<img src = 'targets/3.png' width = '100%;'>","null","","","","","","","","","",""
"","html-keyboard-response","137","408798","0.0-8.0-3.11","12gexjlo94","many_one","0","indirect_first","0","ub05io13","1","25","1","1","3","1","","0","1","0","274.52000021003187","","","<img src = 'targets/mask.png' width = '100%;'>","75","pos","CS","CS","1","category1/CS3.png","targets/3.png","1","indirect","11",""
"","html-keyboard-response","138","410300","0.0-8.0-0.12","12gexjlo94","many_one","0","indirect_first","0","ub05io13","1","25","1","1","3","1","","0","1","0","null","","","<div style=""font-size:60px;"">+</div>","null","","","","","","","","","",""
"","html-keyboard-response","139","410391","0.0-8.0-1.12","12gexjlo94","many_one","0","indirect_first","0","ub05io13","1","25","1","1","3","1","","0","1","0","null","","","<img src = 'category2/CS3.png' width = '100%;'>","null","","","","","","","","","",""
"","html-keyboard-response","140","410643","0.0-8.0-2.12","12gexjlo94","many_one","0","indirect_first","0","ub05io13","1","25","1","1","3","1","","0","1","0","null","","","<img src = 'targets/29.png' width = '100%;'>","null","","","","","","","","","",""
"","html-keyboard-response","141","411090","0.0-8.0-3.12","12gexjlo94","many_one","0","indirect_first","0","ub05io13","1","25","1","1","3","1","","0","1","0","445.8800000138581","","","<img src = 'targets/mask.png' width = '100%;'>","75","neg","CS","CS","2","category2/CS3.png","targets/29.png","1","indirect","12",""
"","html-keyboard-response","142","412593","0.0-8.0-0.13","12gexjlo94","many_one","0","indirect_first","0","ub05io13","1","25","1","1","3","1","","0","1","0","null","","","<div style=""font-size:60px;"">+</div>","null","","","","","","","","","",""
"","html-keyboard-response","143","412684","0.0-8.0-1.13","12gexjlo94","many_one","0","indirect_first","0","ub05io13","1","25","1","1","3","1","","0","1","0","null","","","<img src = 'category2/CS7.png' width = '100%;'>","null","","","","","","","","","",""
"","html-keyboard-response","144","412936","0.0-8.0-2.13","12gexjlo94","many_one","0","indirect_first","0","ub05io13","1","25","1","1","3","1","","0","1","0","null","","","<img src = 'targets/36.png' width = '100%;'>","null","","","","","","","","","",""
"","html-keyboard-response","145","413351","0.0-8.0-3.13","12gexjlo94","many_one","0","indirect_first","0","ub05io13","1","25","1","1","3","1","","0","1","0","413.94999995827675","","","<img src = 'targets/mask.png' width = '100%;'>","75","neg","CS","CS","2","category2/CS7.png","targets/36.png","1","indirect","13",""
"","html-keyboard-response","146","414853","0.0-8.0-0.14","12gexjlo94","many_one","0","indirect_first","0","ub05io13","1","25","1","1","3","1","","0","1","0","null","","","<div style=""font-size:60px;"">+</div>","null","","","","","","","","","",""
"","html-keyboard-response","147","414944","0.0-8.0-1.14","12gexjlo94","many_one","0","indirect_first","0","ub05io13","1","25","1","1","3","1","","0","1","0","null","","","<img src = 'category3/CS9.png' width = '100%;'>","null","","","","","","","","","",""
"","html-keyboard-response","148","415196","0.0-8.0-2.14","12gexjlo94","many_one","0","indirect_first","0","ub05io13","1","25","1","1","3","1","","0","1","0","null","","","<img src = 'targets/27.png' width = '100%;'>","null","","","","","","","","","",""
"","html-keyboard-response","149","415504","0.0-8.0-3.14","12gexjlo94","many_one","0","indirect_first","0","ub05io13","1","25","1","1","3","1","","0","1","0","306.8649999331683","","","<img src = 'targets/mask.png' width = '100%;'>","68","pos","CS","CS","3","category3/CS9.png","targets/27.png","0","indirect","14",""
"","html-keyboard-response","150","417007","0.0-8.0-0.15","12gexjlo94","many_one","0","indirect_first","0","ub05io13","1","25","1","1","3","1","","0","1","0","null","","","<div style=""font-size:60px;"">+</div>","null","","","","","","","","","",""
"","html-keyboard-response","151","417099","0.0-8.0-1.15","12gexjlo94","many_one","0","indirect_first","0","ub05io13","1","25","1","1","3","1","","0","1","0","null","","","<img src = 'category2/CS6.png' width = '100%;'>","null","","","","","","","","","",""
"","html-keyboard-response","152","417351","0.0-8.0-2.15","12gexjlo94","many_one","0","indirect_first","0","ub05io13","1","25","1","1","3","1","","0","1","0","null","","","<img src = 'targets/12.png' width = '100%;'>","null","","","","","","","","","",""
"","html-keyboard-response","153","417749","0.0-8.0-3.15","12gexjlo94","many_one","0","indirect_first","0","ub05io13","1","25","1","1","3","1","","0","1","0","396.92500000819564","","","<img src = 'targets/mask.png' width = '100%;'>","75","neg","CS","CS","2","category2/CS6.png","targets/12.png","1","indirect","15",""
"","html-keyboard-response","154","419250","0.0-8.0-0.16","12gexjlo94","many_one","0","indirect_first","0","ub05io13","1","25","1","1","3","1","","0","1","0","null","","","<div style=""font-size:60px;"">+</div>","null","","","","","","","","","",""
"","html-keyboard-response","155","419341","0.0-8.0-1.16","12gexjlo94","many_one","0","indirect_first","0","ub05io13","1","25","1","1","3","1","","0","1","0","null","","","<img src = 'category4/CS9.png' width = '100%;'>","null","","","","","","","","","",""
"","html-keyboard-response","156","419594","0.0-8.0-2.16","12gexjlo94","many_one","0","indirect_first","0","ub05io13","1","25","1","1","3","1","","0","1","0","null","","","<img src = 'targets/26.png' width = '100%;'>","null","","","","","","","","","",""
"","html-keyboard-response","157","420060","0.0-8.0-3.16","12gexjlo94","many_one","0","indirect_first","0","ub05io13","1","25","1","1","3","1","","0","1","0","465.75500001199543","","","<img src = 'targets/mask.png' width = '100%;'>","75","neg","CS","CS","4","category4/CS9.png","targets/26.png","1","indirect","16",""
"","html-keyboard-response","158","421563","0.0-8.0-0.17","12gexjlo94","many_one","0","indirect_first","0","ub05io13","1","25","1","1","3","1","","0","1","0","null","","","<div style=""font-size:60px;"">+</div>","null","","","","","","","","","",""
"","html-keyboard-response","159","421654","0.0-8.0-1.17","12gexjlo94","many_one","0","indirect_first","0","ub05io13","1","25","1","1","3","1","","0","1","0","null","","","<img src = 'category4/CS2.png' width = '100%;'>","null","","","","","","","","","",""
"","html-keyboard-response","160","421907","0.0-8.0-2.17","12gexjlo94","many_one","0","indirect_first","0","ub05io13","1","25","1","1","3","1","","0","1","0","null","","","<img src = 'targets/14.png' width = '100%;'>","null","","","","","","","","","",""
"","html-keyboard-response","161","422321","0.0-8.0-3.17","12gexjlo94","many_one","0","indirect_first","0","ub05io13","1","25","1","1","3","1","","0","1","0","412.9500000271946","","","<img src = 'targets/mask.png' width = '100%;'>","68","neg","GS","GSold","4","category4/CS2.png","targets/14.png","0","indirect","17",""
"","html-keyboard-response","162","423823","0.0-8.0-0.18","12gexjlo94","many_one","0","indirect_first","0","ub05io13","1","25","1","1","3","1","","0","1","0","null","","","<div style=""font-size:60px;"">+</div>","null","","","","","","","","","",""
"","html-keyboard-response","163","423914","0.0-8.0-1.18","12gexjlo94","many_one","0","indirect_first","0","ub05io13","1","25","1","1","3","1","","0","1","0","null","","","<img src = 'category4/CS8.png' width = '100%;'>","null","","","","","","","","","",""
"","html-keyboard-response","164","424166","0.0-8.0-2.18","12gexjlo94","many_one","0","indirect_first","0","ub05io13","1","25","1","1","3","1","","0","1","0","null","","","<img src = 'targets/46.png' width = '100%;'>","null","","","","","","","","","",""
"","html-keyboard-response","165","424535","0.0-8.0-3.18","12gexjlo94","many_one","0","indirect_first","0","ub05io13","1","25","1","1","3","1","","0","1","0","368.57000016607344","","","<img src = 'targets/mask.png' width = '100%;'>","68","neg","CS","CS","4","category4/CS8.png","targets/46.png","0","indirect","18",""
"","html-keyboard-response","166","426036","0.0-8.0-0.19","12gexjlo94","many_one","0","indirect_first","0","ub05io13","1","25","1","1","3","1","","0","1","0","null","","","<div style=""font-size:60px;"">+</div>","null","","","","","","","","","",""
"","html-keyboard-response","167","426127","0.0-8.0-1.19","12gexjlo94","many_one","0","indirect_first","0","ub05io13","1","25","1","1","3","1","","0","1","0","null","","","<img src = 'category3/CS5.png' width = '100%;'>","null","","","","","","","","","",""
"","html-keyboard-response","168","426380","0.0-8.0-2.19","12gexjlo94","many_one","0","indirect_first","0","ub05io13","1","25","1","1","3","1","","0","1","0","null","","","<img src = 'targets/19.png' width = '100%;'>","null","","","","","","","","","",""
"","html-keyboard-response","169","426773","0.0-8.0-3.19","12gexjlo94","many_one","0","indirect_first","0","ub05io13","1","25","1","1","3","1","","0","1","0","392.99000008031726","","","<img src = 'targets/mask.png' width = '100%;'>","68","pos","CS","CS","3","category3/CS5.png","targets/19.png","0","indirect","19",""
"","html-keyboard-response","170","428275","0.0-8.0-0.20","12gexjlo94","many_one","0","indirect_first","0","ub05io13","1","25","1","1","3","1","","0","1","0","null","","","<div style=""font-size:60px;"">+</div>","null","","","","","","","","","",""
"","html-keyboard-response","171","428367","0.0-8.0-1.20","12gexjlo94","many_one","0","indirect_first","0","ub05io13","1","25","1","1","3","1","","0","1","0","null","","","<img src = 'category3/CS6.png' width = '100%;'>","null","","","","","","","","","",""
"","html-keyboard-response","172","428619","0.0-8.0-2.20","12gexjlo94","many_one","0","indirect_first","0","ub05io13","1","25","1","1","3","1","","0","1","0","null","","","<img src = 'targets/5.png' width = '100%;'>","null","","","","","","","","","",""
"","html-keyboard-response","173","428913","0.0-8.0-3.20","12gexjlo94","many_one","0","indirect_first","0","ub05io13","1","25","1","1","3","1","","0","1","0","292.90499980561435","","","<img src = 'targets/mask.png' width = '100%;'>","75","pos","CS","CS","3","category3/CS6.png","targets/5.png","1","indirect","20",""
"","html-keyboard-response","174","430416","0.0-8.0-0.21","12gexjlo94","many_one","0","indirect_first","0","ub05io13","1","25","1","1","3","1","","0","1","0","null","","","<div style=""font-size:60px;"">+</div>","null","","","","","","","","","",""
"","html-keyboard-response","175","430508","0.0-8.0-1.21","12gexjlo94","many_one","0","indirect_first","0","ub05io13","1","25","1","1","3","1","","0","1","0","null","","","<img src = 'category1/CS7.png' width = '100%;'>","null","","","","","","","","","",""
"","html-keyboard-response","176","430760","0.0-8.0-2.21","12gexjlo94","many_one","0","indirect_first","0","ub05io13","1","25","1","1","3","1","","0","1","0","null","","","<img src = 'targets/47.png' width = '100%;'>","null","","","","","","","","","",""
"","html-keyboard-response","177","431303","0.0-8.0-3.21","12gexjlo94","many_one","0","indirect_first","0","ub05io13","1","25","1","1","3","1","","0","1","0","542.430000146851","","","<img src = 'targets/mask.png' width = '100%;'>","75","pos","CS","CS","1","category1/CS7.png","targets/47.png","1","indirect","21",""
"","html-keyboard-response","178","432804","0.0-8.0-0.22","12gexjlo94","many_one","0","indirect_first","0","ub05io13","1","25","1","1","3","1","","0","1","0","null","","","<div style=""font-size:60px;"">+</div>","null","","","","","","","","","",""
"","html-keyboard-response","179","432895","0.0-8.0-1.22","12gexjlo94","many_one","0","indirect_first","0","ub05io13","1","25","1","1","3","1","","0","1","0","null","","","<img src = 'category1/CS1.png' width = '100%;'>","null","","","","","","","","","",""
"","html-keyboard-response","180","433147","0.0-8.0-2.22","12gexjlo94","many_one","0","indirect_first","0","ub05io13","1","25","1","1","3","1","","0","1","0","null","","","<img src = 'targets/32.png' width = '100%;'>","null","","","","","","","","","",""
"","html-keyboard-response","181","433419","0.0-8.0-3.22","12gexjlo94","many_one","0","indirect_first","0","ub05io13","1","25","1","1","3","1","","0","1","0","270.3700000420213","","","<img src = 'targets/mask.png' width = '100%;'>","68","pos","CS","CS","1","category1/CS1.png","targets/32.png","0","indirect","22",""
"","html-keyboard-response","182","434922","0.0-8.0-0.23","12gexjlo94","many_one","0","indirect_first","0","ub05io13","1","25","1","1","3","1","","0","1","0","null","","","<div style=""font-size:60px;"">+</div>","null","","","","","","","","","",""
"","html-keyboard-response","183","435013","0.0-8.0-1.23","12gexjlo94","many_one","0","indirect_first","0","ub05io13","1","25","1","1","3","1","","0","1","0","null","","","<img src = 'category1/CS5.png' width = '100%;'>","null","","","","","","","","","",""
"","html-keyboard-response","184","435265","0.0-8.0-2.23","12gexjlo94","many_one","0","indirect_first","0","ub05io13","1","25","1","1","3","1","","0","1","0","null","","","<img src = 'targets/24.png' width = '100%;'>","null","","","","","","","","","",""
"","html-keyboard-response","185","435371","0.0-8.0-3.23","12gexjlo94","many_one","0","indirect_first","0","ub05io13","1","25","1","1","3","1","","0","1","0","105.57500016875565","","","<img src = 'targets/mask.png' width = '100%;'>","68","pos","CS","CS","1","category1/CS5.png","targets/24.png","0","indirect","23",""
"","survey-html-form","186","445201","0.0-9.0","12gexjlo94","many_one","0","indirect_first","0","ub05io13","1","25","1","1","3","1","","0","1","0","9328.509999904782","","{}","","","","","","","","","","","",""
"","html-keyboard-response","187","448204","0.0-10.0-0.0","12gexjlo94","many_one","0","indirect_first","0","ub05io13","1","25","1","1","3","1","","0","1","0","null","","","<div style=""font-size:60px;"">+</div>","null","","","","","","","","","",""
"","html-keyboard-response","188","448295","0.0-10.0-1.0","12gexjlo94","many_one","0","indirect_first","0","ub05io13","1","25","1","1","3","1","","0","1","0","null","","","<img src = 'category1/GS2.png' width = '100%;'>","null","","","","","","","","","",""
"","html-keyboard-response","189","448547","0.0-10.0-2.0","12gexjlo94","many_one","0","indirect_first","0","ub05io13","1","25","1","1","3","1","","0","1","0","null","","","<img src = 'targets/4.png' width = '100%;'>","null","","","","","","","","","",""
"","html-keyboard-response","190","448614","0.0-10.0-3.0","12gexjlo94","many_one","0","indirect_first","0","ub05io13","1","25","1","1","3","1","","0","1","0","65.13500004075468","","","<img src = 'targets/mask.png' width = '100%;'>","68","pos","GS","GSnew","1","category1/GS2.png","targets/4.png","0","indirect","24",""
"","html-keyboard-response","191","450116","0.0-10.0-0.1","12gexjlo94","many_one","0","indirect_first","0","ub05io13","1","25","1","1","3","1","","0","1","0","null","","","<div style=""font-size:60px;"">+</div>","null","","","","","","","","","",""
"","html-keyboard-response","192","450208","0.0-10.0-1.1","12gexjlo94","many_one","0","indirect_first","0","ub05io13","1","25","1","1","3","1","","0","1","0","null","","","<img src = 'category4/GS1.png' width = '100%;'>","null","","","","","","","","","",""
"","html-keyboard-response","193","450461","0.0-10.0-2.1","12gexjlo94","many_one","0","indirect_first","0","ub05io13","1","25","1","1","3","1","","0","1","0","null","","","<img src = 'targets/28.png' width = '100%;'>","null","","","","","","","","","",""
"","html-keyboard-response","194","451135","0.0-10.0-3.1","12gexjlo94","many_one","0","indirect_first","0","ub05io13","1","25","1","1","3","1","","0","1","0","673.8550001755357","","","<img src = 'targets/mask.png' width = '100%;'>","75","neg","GS","GSnew","4","category4/GS1.png","targets/28.png","1","indirect","25",""
"","html-keyboard-response","195","452638","0.0-10.0-0.2","12gexjlo94","many_one","0","indirect_first","0","ub05io13","1","25","1","1","3","1","","0","1","0","null","","","<div style=""font-size:60px;"">+</div>","null","","","","","","","","","",""
"","html-keyboard-response","196","452729","0.0-10.0-1.2","12gexjlo94","many_one","0","indirect_first","0","ub05io13","1","25","1","1","3","1","","0","1","0","null","","","<img src = 'category2/CS10.png' width = '100%;'>","null","","","","","","","","","",""
"","html-keyboard-response","197","452984","0.0-10.0-2.2","12gexjlo94","many_one","0","indirect_first","0","ub05io13","1","25","1","1","3","1","","0","1","0","null","","","<img src = 'targets/48.png' width = '100%;'>","null","","","","","","","","","",""
"","html-keyboard-response","198","453915","0.0-10.0-3.2","12gexjlo94","many_one","0","indirect_first","0","ub05io13","1","25","1","1","3","1","","0","1","0","930.699999909848","","","<img src = 'targets/mask.png' width = '100%;'>","68","neg","GS","GSold","2","category2/CS10.png","targets/48.png","0","indirect","26",""
"","html-keyboard-response","199","455419","0.0-10.0-0.3","12gexjlo94","many_one","0","indirect_first","0","ub05io13","1","25","1","1","3","1","","0","1","0","null","","","<div style=""font-size:60px;"">+</div>","null","","","","","","","","","",""
"","html-keyboard-response","200","455510","0.0-10.0-1.3","12gexjlo94","many_one","0","indirect_first","0","ub05io13","1","25","1","1","3","1","","0","1","0","null","","","<img src = 'category3/wang.png' width = '100%;'>","null","","","","","","","","","",""
"","html-keyboard-response","201","455763","0.0-10.0-2.3","12gexjlo94","many_one","0","indirect_first","0","ub05io13","1","25","1","1","3","1","","0","1","0","null","","","<img src = 'targets/33.png' width = '100%;'>","null","","","","","","","","","",""
"","html-keyboard-response","202","457945","0.0-10.0-3.3","12gexjlo94","many_one","0","indirect_first","0","ub05io13","1","25","1","1","3","1","","0","1","0","2180.875000078231","","","<img src = 'targets/mask.png' width = '100%;'>","75","pos","GS","abstract","3","category3/wang.png","targets/33.png","1","indirect","27",""
"","html-keyboard-response","203","459448","0.0-10.0-0.4","12gexjlo94","many_one","0","indirect_first","0","ub05io13","1","25","1","1","3","1","","0","1","0","null","","","<div style=""font-size:60px;"">+</div>","null","","","","","","","","","",""
"","html-keyboard-response","204","459539","0.0-10.0-1.4","12gexjlo94","many_one","0","indirect_first","0","ub05io13","1","25","1","1","3","1","","0","1","0","null","","","<img src = 'category1/CS9.png' width = '100%;'>","null","","","","","","","","","",""
"","html-keyboard-response","205","459791","0.0-10.0-2.4","12gexjlo94","many_one","0","indirect_first","0","ub05io13","1","25","1","1","3","1","","0","1","0","null","","","<img src = 'targets/17.png' width = '100%;'>","null","","","","","","","","","",""
"","html-keyboard-response","206","460643","0.0-10.0-3.4","12gexjlo94","many_one","0","indirect_first","0","ub05io13","1","25","1","1","3","1","","0","1","0","850.6950000301003","","","<img src = 'targets/mask.png' width = '100%;'>","68","pos","GS","GSold","1","category1/CS9.png","targets/17.png","0","indirect","28",""
"","html-keyboard-response","207","462145","0.0-10.0-0.5","12gexjlo94","many_one","0","indirect_first","0","ub05io13","1","25","1","1","3","1","","0","1","0","null","","","<div style=""font-size:60px;"">+</div>","null","","","","","","","","","",""
"","html-keyboard-response","208","462236","0.0-10.0-1.5","12gexjlo94","many_one","0","indirect_first","0","ub05io13","1","25","1","1","3","1","","0","1","0","null","","","<img src = 'category3/CS1.png' width = '100%;'>","null","","","","","","","","","",""
"","html-keyboard-response","209","462488","0.0-10.0-2.5","12gexjlo94","many_one","0","indirect_first","0","ub05io13","1","25","1","1","3","1","","0","1","0","null","","","<img src = 'targets/31.png' width = '100%;'>","null","","","","","","","","","",""
"","html-keyboard-response","210","463440","0.0-10.0-3.5","12gexjlo94","many_one","0","indirect_first","0","ub05io13","1","25","1","1","3","1","","0","1","0","950.9700001217425","","","<img src = 'targets/mask.png' width = '100%;'>","68","pos","GS","GSold","3","category3/CS1.png","targets/31.png","0","indirect","29",""
"","html-keyboard-response","211","464944","0.0-10.0-0.6","12gexjlo94","many_one","0","indirect_first","0","ub05io13","1","25","1","1","3","1","","0","1","0","null","","","<div style=""font-size:60px;"">+</div>","null","","","","","","","","","",""
"","html-keyboard-response","212","465035","0.0-10.0-1.6","12gexjlo94","many_one","0","indirect_first","0","ub05io13","1","25","1","1","3","1","","0","1","0","null","","","<img src = 'category4/lin.png' width = '100%;'>","null","","","","","","","","","",""
"","html-keyboard-response","213","465287","0.0-10.0-2.6","12gexjlo94","many_one","0","indirect_first","0","ub05io13","1","25","1","1","3","1","","0","1","0","null","","","<img src = 'targets/7.png' width = '100%;'>","null","","","","","","","","","",""
"","html-keyboard-response","214","469663","0.0-10.0-3.6","12gexjlo94","many_one","0","indirect_first","0","ub05io13","1","25","1","1","3","1","","0","1","0","4375.0050000380725","","","<img src = 'targets/mask.png' width = '100%;'>","75","neg","GS","abstract","4","category4/lin.png","targets/7.png","1","indirect","30",""
"","html-keyboard-response","215","471165","0.0-10.0-0.7","12gexjlo94","many_one","0","indirect_first","0","ub05io13","1","25","1","1","3","1","","0","1","0","null","","","<div style=""font-size:60px;"">+</div>","null","","","","","","","","","",""
"","html-keyboard-response","216","471257","0.0-10.0-1.7","12gexjlo94","many_one","0","indirect_first","0","ub05io13","1","25","1","1","3","1","","0","1","0","null","","","<img src = 'category2/men.png' width = '100%;'>","null","","","","","","","","","",""
"","html-keyboard-response","217","471510","0.0-10.0-2.7","12gexjlo94","many_one","0","indirect_first","0","ub05io13","1","25","1","1","3","1","","0","1","0","null","","","<img src = 'targets/40.png' width = '100%;'>","null","","","","","","","","","",""
"","html-keyboard-response","218","472593","0.0-10.0-3.7","12gexjlo94","many_one","0","indirect_first","0","ub05io13","1","25","1","1","3","1","","0","1","0","1082.4150000698864","","","<img src = 'targets/mask.png' width = '100%;'>","68","neg","GS","abstract","2","category2/men.png","targets/40.png","0","indirect","31",""
"","html-keyboard-response","219","474094","0.0-10.0-0.8","12gexjlo94","many_one","0","indirect_first","0","ub05io13","1","25","1","1","3","1","","0","1","0","null","","","<div style=""font-size:60px;"">+</div>","null","","","","","","","","","",""
"","html-keyboard-response","220","474186","0.0-10.0-1.8","12gexjlo94","many_one","0","indirect_first","0","ub05io13","1","25","1","1","3","1","","0","1","0","null","","","<img src = 'category1/CS4.png' width = '100%;'>","null","","","","","","","","","",""
"","html-keyboard-response","221","474438","0.0-10.0-2.8","12gexjlo94","many_one","0","indirect_first","0","ub05io13","1","25","1","1","3","1","","0","1","0","null","","","<img src = 'targets/34.png' width = '100%;'>","null","","","","","","","","","",""
"","html-keyboard-response","222","475026","0.0-10.0-3.8","12gexjlo94","many_one","0","indirect_first","0","ub05io13","1","25","1","1","3","1","","0","1","0","587.3249999713153","","","<img src = 'targets/mask.png' width = '100%;'>","68","pos","GS","GSold","1","category1/CS4.png","targets/34.png","0","indirect","32",""
"","html-keyboard-response","223","476527","0.0-10.0-0.9","12gexjlo94","many_one","0","indirect_first","0","ub05io13","1","25","1","1","3","1","","0","1","0","null","","","<div style=""font-size:60px;"">+</div>","null","","","","","","","","","",""
"","html-keyboard-response","224","476618","0.0-10.0-1.9","12gexjlo94","many_one","0","indirect_first","0","ub05io13","1","25","1","1","3","1","","0","1","0","null","","","<img src = 'category1/ma.png' width = '100%;'>","null","","","","","","","","","",""
"","html-keyboard-response","225","476870","0.0-10.0-2.9","12gexjlo94","many_one","0","indirect_first","0","ub05io13","1","25","1","1","3","1","","0","1","0","null","","","<img src = 'targets/6.png' width = '100%;'>","null","","","","","","","","","",""
"","html-keyboard-response","226","477465","0.0-10.0-3.9","12gexjlo94","many_one","0","indirect_first","0","ub05io13","1","25","1","1","3","1","","0","1","0","593.885000096634","","","<img src = 'targets/mask.png' width = '100%;'>","75","pos","GS","abstract","1","category1/ma.png","targets/6.png","1","indirect","33",""
"","html-keyboard-response","227","478968","0.0-10.0-0.10","12gexjlo94","many_one","0","indirect_first","0","ub05io13","1","25","1","1","3","1","","0","1","0","null","","","<div style=""font-size:60px;"">+</div>","null","","","","","","","","","",""
"","html-keyboard-response","228","479059","0.0-10.0-1.10","12gexjlo94","many_one","0","indirect_first","0","ub05io13","1","25","1","1","3","1","","0","1","0","null","","","<img src = 'category2/CS5.png' width = '100%;'>","null","","","","","","","","","",""
"","html-keyboard-response","229","479312","0.0-10.0-2.10","12gexjlo94","many_one","0","indirect_first","0","ub05io13","1","25","1","1","3","1","","0","1","0","null","","","<img src = 'targets/2.png' width = '100%;'>","null","","","","","","","","","",""
"","html-keyboard-response","230","479872","0.0-10.0-3.10","12gexjlo94","many_one","0","indirect_first","0","ub05io13","1","25","1","1","3","1","","0","1","0","558.8500001467764","","","<img src = 'targets/mask.png' width = '100%;'>","75","neg","GS","GSold","2","category2/CS5.png","targets/2.png","1","indirect","34",""
"","html-keyboard-response","231","481375","0.0-10.0-0.11","12gexjlo94","many_one","0","indirect_first","0","ub05io13","1","25","1","1","3","1","","0","1","0","null","","","<div style=""font-size:60px;"">+</div>","null","","","","","","","","","",""
"","html-keyboard-response","232","481466","0.0-10.0-1.11","12gexjlo94","many_one","0","indirect_first","0","ub05io13","1","25","1","1","3","1","","0","1","0","null","","","<img src = 'category2/GS1.png' width = '100%;'>","null","","","","","","","","","",""
"","html-keyboard-response","233","481718","0.0-10.0-2.11","12gexjlo94","many_one","0","indirect_first","0","ub05io13","1","25","1","1","3","1","","0","1","0","null","","","<img src = 'targets/1.png' width = '100%;'>","null","","","","","","","","","",""
"","html-keyboard-response","234","482326","0.0-10.0-3.11","12gexjlo94","many_one","0","indirect_first","0","ub05io13","1","25","1","1","3","1","","0","1","0","607.1200000587851","","","<img src = 'targets/mask.png' width = '100%;'>","68","neg","GS","GSnew","2","category2/GS1.png","targets/1.png","0","indirect","35",""
"","html-keyboard-response","235","483828","0.0-10.0-0.12","12gexjlo94","many_one","0","indirect_first","0","ub05io13","1","25","1","1","3","1","","0","1","0","null","","","<div style=""font-size:60px;"">+</div>","null","","","","","","","","","",""
"","html-keyboard-response","236","483920","0.0-10.0-1.12","12gexjlo94","many_one","0","indirect_first","0","ub05io13","1","25","1","1","3","1","","0","1","0","null","","","<img src = 'category3/CS7.png' width = '100%;'>","null","","","","","","","","","",""
"","html-keyboard-response","237","484172","0.0-10.0-2.12","12gexjlo94","many_one","0","indirect_first","0","ub05io13","1","25","1","1","3","1","","0","1","0","null","","","<img src = 'targets/43.png' width = '100%;'>","null","","","","","","","","","",""
"","html-keyboard-response","238","485109","0.0-10.0-3.12","12gexjlo94","many_one","0","indirect_first","0","ub05io13","1","25","1","1","3","1","","0","1","0","936.6650001611561","","","<img src = 'targets/mask.png' width = '100%;'>","75","pos","GS","GSold","3","category3/CS7.png","targets/43.png","1","indirect","36",""
"","html-keyboard-response","239","486611","0.0-10.0-0.13","12gexjlo94","many_one","0","indirect_first","0","ub05io13","1","25","1","1","3","1","","0","1","0","null","","","<div style=""font-size:60px;"">+</div>","null","","","","","","","","","",""
"","html-keyboard-response","240","486702","0.0-10.0-1.13","12gexjlo94","many_one","0","indirect_first","0","ub05io13","1","25","1","1","3","1","","0","1","0","null","","","<img src = 'category3/GS3.png' width = '100%;'>","null","","","","","","","","","",""
"","html-keyboard-response","241","486955","0.0-10.0-2.13","12gexjlo94","many_one","0","indirect_first","0","ub05io13","1","25","1","1","3","1","","0","1","0","null","","","<img src = 'targets/11.png' width = '100%;'>","null","","","","","","","","","",""
"","html-keyboard-response","242","487560","0.0-10.0-3.13","12gexjlo94","many_one","0","indirect_first","0","ub05io13","1","25","1","1","3","1","","0","1","0","603.8399999961257","","","<img src = 'targets/mask.png' width = '100%;'>","75","pos","GS","GSnew","3","category3/GS3.png","targets/11.png","1","indirect","37",""
"","html-keyboard-response","243","489061","0.0-10.0-0.14","12gexjlo94","many_one","0","indirect_first","0","ub05io13","1","25","1","1","3","1","","0","1","0","null","","","<div style=""font-size:60px;"">+</div>","null","","","","","","","","","",""
"","html-keyboard-response","244","489152","0.0-10.0-1.14","12gexjlo94","many_one","0","indirect_first","0","ub05io13","1","25","1","1","3","1","","0","1","0","null","","","<img src = 'category1/GS3.png' width = '100%;'>","null","","","","","","","","","",""
"","html-keyboard-response","245","489404","0.0-10.0-2.14","12gexjlo94","many_one","0","indirect_first","0","ub05io13","1","25","1","1","3","1","","0","1","0","null","","","<img src = 'targets/13.png' width = '100%;'>","null","","","","","","","","","",""
"","html-keyboard-response","246","490457","0.0-10.0-3.14","12gexjlo94","many_one","0","indirect_first","0","ub05io13","1","25","1","1","3","1","","0","1","0","1051.380000077188","","","<img src = 'targets/mask.png' width = '100%;'>","75","pos","GS","GSnew","1","category1/GS3.png","targets/13.png","1","indirect","38",""
"","html-keyboard-response","247","491958","0.0-10.0-0.15","12gexjlo94","many_one","0","indirect_first","0","ub05io13","1","25","1","1","3","1","","0","1","0","null","","","<div style=""font-size:60px;"">+</div>","null","","","","","","","","","",""
"","html-keyboard-response","248","492049","0.0-10.0-1.15","12gexjlo94","many_one","0","indirect_first","0","ub05io13","1","25","1","1","3","1","","0","1","0","null","","","<img src = 'category1/GS1.png' width = '100%;'>","null","","","","","","","","","",""
"","html-keyboard-response","249","492303","0.0-10.0-2.15","12gexjlo94","many_one","0","indirect_first","0","ub05io13","1","25","1","1","3","1","","0","1","0","null","","","<img src = 'targets/39.png' width = '100%;'>","null","","","","","","","","","",""
"","html-keyboard-response","250","492761","0.0-10.0-3.15","12gexjlo94","many_one","0","indirect_first","0","ub05io13","1","25","1","1","3","1","","0","1","0","457.7200000640005","","","<img src = 'targets/mask.png' width = '100%;'>","68","pos","GS","GSnew","1","category1/GS1.png","targets/39.png","0","indirect","39",""
"","html-keyboard-response","251","494263","0.0-10.0-0.16","12gexjlo94","many_one","0","indirect_first","0","ub05io13","1","25","1","1","3","1","","0","1","0","null","","","<div style=""font-size:60px;"">+</div>","null","","","","","","","","","",""
"","html-keyboard-response","252","494354","0.0-10.0-1.16","12gexjlo94","many_one","0","indirect_first","0","ub05io13","1","25","1","1","3","1","","0","1","0","null","","","<img src = 'category2/CS9.png' width = '100%;'>","null","","","","","","","","","",""
"","html-keyboard-response","253","494607","0.0-10.0-2.16","12gexjlo94","many_one","0","indirect_first","0","ub05io13","1","25","1","1","3","1","","0","1","0","null","","","<img src = 'targets/44.png' width = '100%;'>","null","","","","","","","","","",""
"","html-keyboard-response","254","495029","0.0-10.0-3.16","12gexjlo94","many_one","0","indirect_first","0","ub05io13","1","25","1","1","3","1","","0","1","0","420.7850000821054","","","<img src = 'targets/mask.png' width = '100%;'>","75","neg","GS","GSold","2","category2/CS9.png","targets/44.png","1","indirect","40",""
"","html-keyboard-response","255","496531","0.0-10.0-0.17","12gexjlo94","many_one","0","indirect_first","0","ub05io13","1","25","1","1","3","1","","0","1","0","null","","","<div style=""font-size:60px;"">+</div>","null","","","","","","","","","",""
"","html-keyboard-response","256","496622","0.0-10.0-1.17","12gexjlo94","many_one","0","indirect_first","0","ub05io13","1","25","1","1","3","1","","0","1","0","null","","","<img src = 'category4/GS3.png' width = '100%;'>","null","","","","","","","","","",""
"","html-keyboard-response","257","496874","0.0-10.0-2.17","12gexjlo94","many_one","0","indirect_first","0","ub05io13","1","25","1","1","3","1","","0","1","0","null","","","<img src = 'targets/42.png' width = '100%;'>","null","","","","","","","","","",""
"","html-keyboard-response","258","497375","0.0-10.0-3.17","12gexjlo94","many_one","0","indirect_first","0","ub05io13","1","25","1","1","3","1","","0","1","0","500.54999999701977","","","<img src = 'targets/mask.png' width = '100%;'>","75","neg","GS","GSnew","4","category4/GS3.png","targets/42.png","1","indirect","41",""
"","html-keyboard-response","259","498878","0.0-10.0-0.18","12gexjlo94","many_one","0","indirect_first","0","ub05io13","1","25","1","1","3","1","","0","1","0","null","","","<div style=""font-size:60px;"">+</div>","null","","","","","","","","","",""
"","html-keyboard-response","260","498969","0.0-10.0-1.18","12gexjlo94","many_one","0","indirect_first","0","ub05io13","1","25","1","1","3","1","","0","1","0","null","","","<img src = 'category3/GS1.png' width = '100%;'>","null","","","","","","","","","",""
"","html-keyboard-response","261","499221","0.0-10.0-2.18","12gexjlo94","many_one","0","indirect_first","0","ub05io13","1","25","1","1","3","1","","0","1","0","null","","","<img src = 'targets/10.png' width = '100%;'>","null","","","","","","","","","",""
"","html-keyboard-response","262","499654","0.0-10.0-3.18","12gexjlo94","many_one","0","indirect_first","0","ub05io13","1","25","1","1","3","1","","0","1","0","431.7300000693649","","","<img src = 'targets/mask.png' width = '100%;'>","68","pos","GS","GSnew","3","category3/GS1.png","targets/10.png","0","indirect","42",""
"","html-keyboard-response","263","501156","0.0-10.0-0.19","12gexjlo94","many_one","0","indirect_first","0","ub05io13","1","25","1","1","3","1","","0","1","0","null","","","<div style=""font-size:60px;"">+</div>","null","","","","","","","","","",""
"","html-keyboard-response","264","501247","0.0-10.0-1.19","12gexjlo94","many_one","0","indirect_first","0","ub05io13","1","25","1","1","3","1","","0","1","0","null","","","<img src = 'category2/GS3.png' width = '100%;'>","null","","","","","","","","","",""
"","html-keyboard-response","265","501499","0.0-10.0-2.19","12gexjlo94","many_one","0","indirect_first","0","ub05io13","1","25","1","1","3","1","","0","1","0","null","","","<img src = 'targets/22.png' width = '100%;'>","null","","","","","","","","","",""
"","html-keyboard-response","266","501971","0.0-10.0-3.19","12gexjlo94","many_one","0","indirect_first","0","ub05io13","1","25","1","1","3","1","","0","1","0","470.8199999295175","","","<img src = 'targets/mask.png' width = '100%;'>","68","neg","GS","GSnew","2","category2/GS3.png","targets/22.png","0","indirect","43",""
"","html-keyboard-response","267","503472","0.0-10.0-0.20","12gexjlo94","many_one","0","indirect_first","0","ub05io13","1","25","1","1","3","1","","0","1","0","null","","","<div style=""font-size:60px;"">+</div>","null","","","","","","","","","",""
"","html-keyboard-response","268","503563","0.0-10.0-1.20","12gexjlo94","many_one","0","indirect_first","0","ub05io13","1","25","1","1","3","1","","0","1","0","null","","","<img src = 'category3/GS2.png' width = '100%;'>","null","","","","","","","","","",""
"","html-keyboard-response","269","503816","0.0-10.0-2.20","12gexjlo94","many_one","0","indirect_first","0","ub05io13","1","25","1","1","3","1","","0","1","0","null","","","<img src = 'targets/9.png' width = '100%;'>","null","","","","","","","","","",""
"","html-keyboard-response","270","504292","0.0-10.0-3.20","12gexjlo94","many_one","0","indirect_first","0","ub05io13","1","25","1","1","3","1","","0","1","0","474.9799999408424","","","<img src = 'targets/mask.png' width = '100%;'>","75","pos","GS","GSnew","3","category3/GS2.png","targets/9.png","1","indirect","44",""
"","html-keyboard-response","271","505796","0.0-10.0-0.21","12gexjlo94","many_one","0","indirect_first","0","ub05io13","1","25","1","1","3","1","","0","1","0","null","","","<div style=""font-size:60px;"">+</div>","null","","","","","","","","","",""
"","html-keyboard-response","272","505887","0.0-10.0-1.21","12gexjlo94","many_one","0","indirect_first","0","ub05io13","1","25","1","1","3","1","","0","1","0","null","","","<img src = 'category1/CS10.png' width = '100%;'>","null","","","","","","","","","",""
"","html-keyboard-response","273","506139","0.0-10.0-2.21","12gexjlo94","many_one","0","indirect_first","0","ub05io13","1","25","1","1","3","1","","0","1","0","null","","","<img src = 'targets/21.png' width = '100%;'>","null","","","","","","","","","",""
"","html-keyboard-response","274","506667","0.0-10.0-3.21","12gexjlo94","many_one","0","indirect_first","0","ub05io13","1","25","1","1","3","1","","0","1","0","526.975000044331","","","<img src = 'targets/mask.png' width = '100%;'>","75","pos","GS","GSold","1","category1/CS10.png","targets/21.png","1","indirect","45",""
"","html-keyboard-response","275","508169","0.0-10.0-0.22","12gexjlo94","many_one","0","indirect_first","0","ub05io13","1","25","1","1","3","1","","0","1","0","null","","","<div style=""font-size:60px;"">+</div>","null","","","","","","","","","",""
"","html-keyboard-response","276","508260","0.0-10.0-1.22","12gexjlo94","many_one","0","indirect_first","0","ub05io13","1","25","1","1","3","1","","0","1","0","null","","","<img src = 'category4/GS2.png' width = '100%;'>","null","","","","","","","","","",""
"","html-keyboard-response","277","508513","0.0-10.0-2.22","12gexjlo94","many_one","0","indirect_first","0","ub05io13","1","25","1","1","3","1","","0","1","0","null","","","<img src = 'targets/20.png' width = '100%;'>","null","","","","","","","","","",""
"","html-keyboard-response","278","509028","0.0-10.0-3.22","12gexjlo94","many_one","0","indirect_first","0","ub05io13","1","25","1","1","3","1","","0","1","0","514.000000199303","","","<img src = 'targets/mask.png' width = '100%;'>","68","neg","GS","GSnew","4","category4/GS2.png","targets/20.png","0","indirect","46",""
"","html-keyboard-response","279","510529","0.0-10.0-0.23","12gexjlo94","many_one","0","indirect_first","0","ub05io13","1","25","1","1","3","1","","0","1","0","null","","","<div style=""font-size:60px;"">+</div>","null","","","","","","","","","",""
"","html-keyboard-response","280","510620","0.0-10.0-1.23","12gexjlo94","many_one","0","indirect_first","0","ub05io13","1","25","1","1","3","1","","0","1","0","null","","","<img src = 'category2/GS2.png' width = '100%;'>","null","","","","","","","","","",""
"","html-keyboard-response","281","510873","0.0-10.0-2.23","12gexjlo94","many_one","0","indirect_first","0","ub05io13","1","25","1","1","3","1","","0","1","0","null","","","<img src = 'targets/45.png' width = '100%;'>","null","","","","","","","","","",""
"","html-keyboard-response","282","511356","0.0-10.0-3.23","12gexjlo94","many_one","0","indirect_first","0","ub05io13","1","25","1","1","3","1","","0","1","0","482.50499996356666","","","<img src = 'targets/mask.png' width = '100%;'>","68","neg","GS","GSnew","2","category2/GS2.png","targets/45.png","0","indirect","47",""
"","survey-html-form","283","518207","0.0-11.0","12gexjlo94","many_one","0","indirect_first","0","ub05io13","1","25","1","1","3","1","","0","1","0","6348.849999951199","","{}","","","","","","","","","","","",""
"","image-slider-response","284","530346","0.0-12.0-0.0","12gexjlo94","many_one","0","indirect_first","0","ub05io13","1","25","1","1","3","1","","0","1","0","10136.09499996528","","","","","neg","CS","CS","4","category4/CS3.png","targets/35.png","","direct","","-46"
"","image-slider-response","285","536373","0.0-12.0-0.1","12gexjlo94","many_one","0","indirect_first","0","ub05io13","1","25","1","1","3","1","","0","1","0","6025.514999870211","","","","","pos","GS","GSold","3","category3/CS1.png","targets/31.png","","direct","","68"
"","image-slider-response","286","539305","0.0-12.0-0.2","12gexjlo94","many_one","0","indirect_first","0","ub05io13","1","25","1","1","3","1","","0","1","0","2929.8600000329316","","","","","neg","CS","CS","2","category2/CS3.png","targets/29.png","","direct","","-81"
"","image-slider-response","287","542365","0.0-12.0-0.3","12gexjlo94","many_one","0","indirect_first","0","ub05io13","1","25","1","1","3","1","","0","1","0","3058.500000042841","","","","","pos","CS","CS","3","category3/CS2.png","targets/23.png","","direct","","77"
"","image-slider-response","288","545256","0.0-12.0-0.4","12gexjlo94","many_one","0","indirect_first","0","ub05io13","1","25","1","1","3","1","","0","1","0","2889.3149998039007","","","","","pos","CS","CS","3","category3/CS6.png","targets/5.png","","direct","","72"
"","image-slider-response","289","548513","0.0-12.0-0.5","12gexjlo94","many_one","0","indirect_first","0","ub05io13","1","25","1","1","3","1","","0","1","0","3255.580000113696","","","","","pos","GS","GSold","1","category1/CS10.png","targets/21.png","","direct","","-18"
"","image-slider-response","290","553204","0.0-12.0-0.6","12gexjlo94","many_one","0","indirect_first","0","ub05io13","1","25","1","1","3","1","","0","1","0","4689.709999831393","","","","","pos","GS","abstract","3","category3/wang.png","targets/33.png","","direct","","-43"
"","image-slider-response","291","555885","0.0-12.0-0.7","12gexjlo94","many_one","0","indirect_first","0","ub05io13","1","25","1","1","3","1","","0","1","0","2678.970000008121","","","","","neg","GS","GSnew","2","category2/GS2.png","targets/45.png","","direct","","-66"
"","image-slider-response","292","558820","0.0-12.0-0.8","12gexjlo94","many_one","0","indirect_first","0","ub05io13","1","25","1","1","3","1","","0","1","0","2933.675000211224","","","","","pos","GS","GSold","3","category3/CS7.png","targets/43.png","","direct","","83"
"","image-slider-response","293","561486","0.0-12.0-0.9","12gexjlo94","many_one","0","indirect_first","0","ub05io13","1","25","1","1","3","1","","0","1","0","2663.090000161901","","","","","pos","GS","GSnew","1","category1/GS1.png","targets/39.png","","direct","","54"
"","image-slider-response","294","564678","0.0-12.0-0.10","12gexjlo94","many_one","0","indirect_first","0","ub05io13","1","25","1","1","3","1","","0","1","0","3190.93000004068","","","","","neg","GS","GSnew","4","category4/GS2.png","targets/20.png","","direct","","83"
"","image-slider-response","295","567997","0.0-12.0-0.11","12gexjlo94","many_one","0","indirect_first","0","ub05io13","1","25","1","1","3","1","","0","1","0","3316.720000002533","","","","","neg","CS","CS","2","category2/CS1.png","targets/15.png","","direct","","-48"
"","image-slider-response","296","571135","0.0-12.0-0.12","12gexjlo94","many_one","0","indirect_first","0","ub05io13","1","25","1","1","3","1","","0","1","0","3136.424999916926","","","","","neg","GS","GSold","4","category4/CS6.png","targets/30.png","","direct","","51"
"","image-slider-response","297","576210","0.0-12.0-0.13","12gexjlo94","many_one","0","indirect_first","0","ub05io13","1","25","1","1","3","1","","0","1","0","5073.774999938905","","","","","pos","GS","GSold","3","category3/CS8.png","targets/18.png","","direct","","12"
"","image-slider-response","298","579766","0.0-12.0-0.14","12gexjlo94","many_one","0","indirect_first","0","ub05io13","1","25","1","1","3","1","","0","1","0","3555.00499997288","","","","","pos","GS","abstract","1","category1/ma.png","targets/6.png","","direct","","25"
"","image-slider-response","299","582301","0.0-12.0-0.15","12gexjlo94","many_one","0","indirect_first","0","ub05io13","1","25","1","1","3","1","","0","1","0","2532.4599999003112","","","","","neg","CS","CS","2","category2/CS7.png","targets/36.png","","direct","","-56"
"","image-slider-response","300","584844","0.0-12.0-0.16","12gexjlo94","many_one","0","indirect_first","0","ub05io13","1","25","1","1","3","1","","0","1","0","2542.414999799803","","","","","pos","GS","GSnew","1","category1/GS3.png","targets/13.png","","direct","","38"
"","image-slider-response","301","587247","0.0-12.0-0.17","12gexjlo94","many_one","0","indirect_first","0","ub05io13","1","25","1","1","3","1","","0","1","0","2400.3800000064075","","","","","neg","CS","CS","4","category4/CS9.png","targets/26.png","","direct","","65"
"","image-slider-response","302","628777","0.0-12.0-0.18","12gexjlo94","many_one","0","indirect_first","0","ub05io13","1","25","1","1","3","1","","0","1","0","41528.66500010714","","","","","neg","GS","GSnew","2","category2/GS1.png","targets/1.png","","direct","","35"
"","image-slider-response","303","631264","0.0-12.0-0.19","12gexjlo94","many_one","0","indirect_first","0","ub05io13","1","25","1","1","3","1","","0","1","0","2484.775000018999","","","","","pos","CS","CS","3","category3/CS10.png","targets/38.png","","direct","","40"
"","image-slider-response","304","639291","0.0-12.0-0.20","12gexjlo94","many_one","0","indirect_first","0","ub05io13","1","25","1","1","3","1","","0","1","0","8026.175000006333","","","","","neg","CS","CS","4","category4/CS8.png","targets/46.png","","direct","","-30"
"","image-slider-response","305","641938","0.0-12.0-0.21","12gexjlo94","many_one","0","indirect_first","0","ub05io13","1","25","1","1","3","1","","0","1","0","2644.5150000508875","","","","","pos","CS","CS","1","category1/CS7.png","targets/47.png","","direct","","20"
"","image-slider-response","306","644331","0.0-12.0-0.22","12gexjlo94","many_one","0","indirect_first","0","ub05io13","1","25","1","1","3","1","","0","1","0","2391.5349999442697","","","","","neg","GS","GSnew","2","category2/GS3.png","targets/22.png","","direct","","-35"
"","image-slider-response","307","647853","0.0-12.0-0.23","12gexjlo94","many_one","0","indirect_first","0","ub05io13","1","25","1","1","3","1","","0","1","0","3520.835000090301","","","","","pos","CS","CS","3","category3/CS9.png","targets/27.png","","direct","","90"
"","image-slider-response","308","650483","0.0-12.0-0.24","12gexjlo94","many_one","0","indirect_first","0","ub05io13","1","25","1","1","3","1","","0","1","0","2627.610000083223","","","","","neg","GS","GSold","2","category2/CS9.png","targets/44.png","","direct","","-48"
"","image-slider-response","309","653387","0.0-12.0-0.25","12gexjlo94","many_one","0","indirect_first","0","ub05io13","1","25","1","1","3","1","","0","1","0","2902.649999829009","","","","","pos","CS","CS","1","category1/CS6.png","targets/41.png","","direct","","-43"
"","image-slider-response","310","655847","0.0-12.0-0.26","12gexjlo94","many_one","0","indirect_first","0","ub05io13","1","25","1","1","3","1","","0","1","0","2458.1849998794496","","","","","neg","GS","GSold","2","category2/CS5.png","targets/2.png","","direct","","-49"
"","image-slider-response","311","658647","0.0-12.0-0.27","12gexjlo94","many_one","0","indirect_first","0","ub05io13","1","25","1","1","3","1","","0","1","0","2797.9300001170486","","","","","pos","CS","CS","1","category1/CS1.png","targets/32.png","","direct","","-53"
"","image-slider-response","312","661099","0.0-12.0-0.28","12gexjlo94","many_one","0","indirect_first","0","ub05io13","1","25","1","1","3","1","","0","1","0","2450.9099998977035","","","","","pos","CS","CS","1","category1/CS5.png","targets/24.png","","direct","","66"
"","image-slider-response","313","663764","0.0-12.0-0.29","12gexjlo94","many_one","0","indirect_first","0","ub05io13","1","25","1","1","3","1","","0","1","0","2662.6199998427182","","","","","pos","GS","GSnew","3","category3/GS2.png","targets/9.png","","direct","","60"
"","image-slider-response","314","666135","0.0-12.0-0.30","12gexjlo94","many_one","0","indirect_first","0","ub05io13","1","25","1","1","3","1","","0","1","0","2370.454999851063","","","","","neg","GS","abstract","2","category2/men.png","targets/40.png","","direct","","-53"
"","image-slider-response","315","668343","0.0-12.0-0.31","12gexjlo94","many_one","0","indirect_first","0","ub05io13","1","25","1","1","3","1","","0","1","0","2205.8100001886487","","","","","neg","GS","GSold","4","category4/CS2.png","targets/14.png","","direct","","76"
"","image-slider-response","316","670834","0.0-12.0-0.32","12gexjlo94","many_one","0","indirect_first","0","ub05io13","1","25","1","1","3","1","","0","1","0","2489.3199999351054","","","","","pos","CS","CS","3","category3/CS5.png","targets/19.png","","direct","","66"
"","image-slider-response","317","673933","0.0-12.0-0.33","12gexjlo94","many_one","0","indirect_first","0","ub05io13","1","25","1","1","3","1","","0","1","0","3097.8099999483675","","","","","neg","CS","CS","4","category4/CS10.png","targets/37.png","","direct","","70"
"","image-slider-response","318","676579","0.0-12.0-0.34","12gexjlo94","many_one","0","indirect_first","0","ub05io13","1","25","1","1","3","1","","0","1","0","2644.7499999776483","","","","","neg","GS","GSold","4","category4/CS4.png","targets/8.png","","direct","","52"
"","image-slider-response","319","679467","0.0-12.0-0.35","12gexjlo94","many_one","0","indirect_first","0","ub05io13","1","25","1","1","3","1","","0","1","0","2886.720000067726","","","","","pos","GS","GSnew","3","category3/GS1.png","targets/10.png","","direct","","63"
"","image-slider-response","320","681846","0.0-12.0-0.36","12gexjlo94","many_one","0","indirect_first","0","ub05io13","1","25","1","1","3","1","","0","1","0","2376.704999944195","","","","","neg","GS","GSnew","4","category4/GS1.png","targets/28.png","","direct","","39"
"","image-slider-response","321","684881","0.0-12.0-0.37","12gexjlo94","many_one","0","indirect_first","0","ub05io13","1","25","1","1","3","1","","0","1","0","3034.1949998401105","","","","","neg","GS","GSold","2","category2/CS10.png","targets/48.png","","direct","","-71"
"","image-slider-response","322","687587","0.0-12.0-0.38","12gexjlo94","many_one","0","indirect_first","0","ub05io13","1","25","1","1","3","1","","0","1","0","2703.5400001332164","","","","","pos","CS","CS","1","category1/CS3.png","targets/3.png","","direct","","57"
"","image-slider-response","323","690479","0.0-12.0-0.39","12gexjlo94","many_one","0","indirect_first","0","ub05io13","1","25","1","1","3","1","","0","1","0","2890.825000125915","","","","","neg","GS","GSnew","4","category4/GS3.png","targets/42.png","","direct","","-1"
"","image-slider-response","324","693755","0.0-12.0-0.40","12gexjlo94","many_one","0","indirect_first","0","ub05io13","1","25","1","1","3","1","","0","1","0","3274.7749998234212","","","","","pos","GS","GSnew","1","category1/GS2.png","targets/4.png","","direct","","47"
