"success","trial_type","trial_index","time_elapsed","internal_node_id","subject","condition","condition_code","measure","measure_code","codeword","gender","age","education","chinese","fach","handedness","rt","url","responses","stimulus","key_press","val","type","type_specific","category","cs_selected","target","indirect","task","nr_pres","response"
"true","fullscreen","0","1739","0.0-0.0","zzq9fap066","many_one","0","indirect_first","0","nn05er25","0","22","1","1","2","1","","","","","","","","","","","","","","",""
"","external-html","1","90627","0.0-1.0","zzq9fap066","many_one","0","indirect_first","0","nn05er25","0","22","1","1","2","1","88879","text/information.html","","","","","","","","","","","","",""
"","external-html","2","100466","0.0-2.0","zzq9fap066","many_one","0","indirect_first","0","nn05er25","0","22","1","1","2","1","9822","text/consent.html","","","","","","","","","","","","",""
"","survey-html-form","3","144282","0.0-3.0","zzq9fap066","many_one","0","indirect_first","0","nn05er25","0","22","1","1","2","1","43813","","{""codeword_enter"":""nn05er25""}","","","","","","","","","","","",""
"","survey-html-form","4","160579","0.0-4.0","zzq9fap066","many_one","0","indirect_first","0","nn05er25","0","22","1","1","2","1","16297","","{""age"":""22"",""education"":""1"",""subject"":""2"",""gender"":""0"",""handedness"":""1"",""chinese"":""1""}","","","","","","","","","","","",""
"","survey-html-form","5","192683","0.0-5.0","zzq9fap066","many_one","0","indirect_first","0","nn05er25","0","22","1","1","2","1","32103","","{}","","","","","","","","","","","",""
"","html-keyboard-response","6","196713","0.0-6.0-0.0-0.0","zzq9fap066","many_one","0","indirect_first","0","nn05er25","0","22","1","1","2","1","null","","","<div class = 'row'><div class = 'column'><img src = 'category4/CS5.png' width = '70%;'></div><div class = 'column'><img src = 'uspos/2058.bmp' width = '100%;'></div></div>","null","pos","CS","CS","4","category4/CS5.png","","","","",""
"","html-keyboard-response","7","199252","0.0-6.0-0.0-0.1","zzq9fap066","many_one","0","indirect_first","0","nn05er25","0","22","1","1","2","1","null","","","<div class = 'row'><div class = 'column'><img src = 'category2/CS8.png' width = '70%;'></div><div class = 'column'><img src = 'usneg/9404.bmp' width = '100%;'></div></div>","null","neg","CS","CS","2","category2/CS8.png","","","","",""
"","html-keyboard-response","8","201791","0.0-6.0-0.0-0.2","zzq9fap066","many_one","0","indirect_first","0","nn05er25","0","22","1","1","2","1","null","","","<div class = 'row'><div class = 'column'><img src = 'uspos/1340.bmp' width = '100%;'></div><div class = 'column'><img src = 'category4/CS4.png' width = '70%;'></div></div>","null","pos","CS","CS","4","category4/CS4.png","","","","",""
"","html-keyboard-response","9","204332","0.0-6.0-0.0-0.3","zzq9fap066","many_one","0","indirect_first","0","nn05er25","0","22","1","1","2","1","null","","","<div class = 'row'><div class = 'column'><img src = 'usneg/3300.bmp' width = '100%;'></div><div class = 'column'><img src = 'category1/CS1.png' width = '70%;'></div></div>","null","neg","CS","CS","1","category1/CS1.png","","","","",""
"","html-keyboard-response","10","206862","0.0-6.0-0.0-0.4","zzq9fap066","many_one","0","indirect_first","0","nn05er25","0","22","1","1","2","1","null","","","<div class = 'row'><div class = 'column'><img src = 'uspos/5831.bmp' width = '100%;'></div><div class = 'column'><img src = 'category4/CS7.png' width = '70%;'></div></div>","null","pos","CS","CS","4","category4/CS7.png","","","","",""
"","html-keyboard-response","11","209401","0.0-6.0-0.0-0.5","zzq9fap066","many_one","0","indirect_first","0","nn05er25","0","22","1","1","2","1","null","","","<div class = 'row'><div class = 'column'><img src = 'usneg/9182.bmp' width = '100%;'></div><div class = 'column'><img src = 'category1/CS7.png' width = '70%;'></div></div>","null","neg","CS","CS","1","category1/CS7.png","","","","",""
"","html-keyboard-response","12","211941","0.0-6.0-0.0-0.6","zzq9fap066","many_one","0","indirect_first","0","nn05er25","0","22","1","1","2","1","null","","","<div class = 'row'><div class = 'column'><img src = 'category3/CS5.png' width = '70%;'></div><div class = 'column'><img src = 'uspos/2311.bmp' width = '100%;'></div></div>","null","pos","CS","CS","3","category3/CS5.png","","","","",""
"","html-keyboard-response","13","214482","0.0-6.0-0.0-0.7","zzq9fap066","many_one","0","indirect_first","0","nn05er25","0","22","1","1","2","1","null","","","<div class = 'row'><div class = 'column'><img src = 'usneg/9415.bmp' width = '100%;'></div><div class = 'column'><img src = 'category1/CS3.png' width = '70%;'></div></div>","null","neg","CS","CS","1","category1/CS3.png","","","","",""
"","html-keyboard-response","14","217022","0.0-6.0-0.0-0.8","zzq9fap066","many_one","0","indirect_first","0","nn05er25","0","22","1","1","2","1","null","","","<div class = 'row'><div class = 'column'><img src = 'category3/CS2.png' width = '70%;'></div><div class = 'column'><img src = 'uspos/1463.bmp' width = '100%;'></div></div>","null","pos","CS","CS","3","category3/CS2.png","","","","",""
"","html-keyboard-response","15","219559","0.0-6.0-0.0-0.9","zzq9fap066","many_one","0","indirect_first","0","nn05er25","0","22","1","1","2","1","null","","","<div class = 'row'><div class = 'column'><img src = 'uspos/7325.bmp' width = '100%;'></div><div class = 'column'><img src = 'category4/CS9.png' width = '70%;'></div></div>","null","pos","CS","CS","4","category4/CS9.png","","","","",""
"","html-keyboard-response","16","222082","0.0-6.0-0.0-0.10","zzq9fap066","many_one","0","indirect_first","0","nn05er25","0","22","1","1","2","1","null","","","<div class = 'row'><div class = 'column'><img src = 'category1/CS2.png' width = '70%;'></div><div class = 'column'><img src = 'usneg/2141.bmp' width = '100%;'></div></div>","null","neg","CS","CS","1","category1/CS2.png","","","","",""
"","html-keyboard-response","17","224621","0.0-6.0-0.0-0.11","zzq9fap066","many_one","0","indirect_first","0","nn05er25","0","22","1","1","2","1","null","","","<div class = 'row'><div class = 'column'><img src = 'usneg/6212.bmp' width = '100%;'></div><div class = 'column'><img src = 'category2/CS7.png' width = '70%;'></div></div>","null","neg","CS","CS","2","category2/CS7.png","","","","",""
"","html-keyboard-response","18","227162","0.0-6.0-0.0-0.12","zzq9fap066","many_one","0","indirect_first","0","nn05er25","0","22","1","1","2","1","null","","","<div class = 'row'><div class = 'column'><img src = 'usneg/7380.bmp' width = '100%;'></div><div class = 'column'><img src = 'category1/CS5.png' width = '70%;'></div></div>","null","neg","CS","CS","1","category1/CS5.png","","","","",""
"","html-keyboard-response","19","229682","0.0-6.0-0.0-0.13","zzq9fap066","many_one","0","indirect_first","0","nn05er25","0","22","1","1","2","1","null","","","<div class = 'row'><div class = 'column'><img src = 'category2/CS9.png' width = '70%;'></div><div class = 'column'><img src = 'usneg/8485.bmp' width = '100%;'></div></div>","null","neg","CS","CS","2","category2/CS9.png","","","","",""
"","html-keyboard-response","20","232222","0.0-6.0-0.0-0.14","zzq9fap066","many_one","0","indirect_first","0","nn05er25","0","22","1","1","2","1","null","","","<div class = 'row'><div class = 'column'><img src = 'uspos/5830.bmp' width = '100%;'></div><div class = 'column'><img src = 'category4/CS6.png' width = '70%;'></div></div>","null","pos","CS","CS","4","category4/CS6.png","","","","",""
"","html-keyboard-response","21","234743","0.0-6.0-0.0-0.15","zzq9fap066","many_one","0","indirect_first","0","nn05er25","0","22","1","1","2","1","null","","","<div class = 'row'><div class = 'column'><img src = 'usneg/2205.bmp' width = '100%;'></div><div class = 'column'><img src = 'category2/CS5.png' width = '70%;'></div></div>","null","neg","CS","CS","2","category2/CS5.png","","","","",""
"","html-keyboard-response","22","237282","0.0-6.0-0.0-0.16","zzq9fap066","many_one","0","indirect_first","0","nn05er25","0","22","1","1","2","1","null","","","<div class = 'row'><div class = 'column'><img src = 'usneg/9635.2.bmp' width = '100%;'></div><div class = 'column'><img src = 'category2/CS1.png' width = '70%;'></div></div>","null","neg","CS","CS","2","category2/CS1.png","","","","",""
"","html-keyboard-response","23","239821","0.0-6.0-0.0-0.17","zzq9fap066","many_one","0","indirect_first","0","nn05er25","0","22","1","1","2","1","null","","","<div class = 'row'><div class = 'column'><img src = 'category3/CS9.png' width = '70%;'></div><div class = 'column'><img src = 'uspos/2160.bmp' width = '100%;'></div></div>","null","pos","CS","CS","3","category3/CS9.png","","","","",""
"","html-keyboard-response","24","242362","0.0-6.0-0.0-0.18","zzq9fap066","many_one","0","indirect_first","0","nn05er25","0","22","1","1","2","1","null","","","<div class = 'row'><div class = 'column'><img src = 'uspos/2341.bmp' width = '100%;'></div><div class = 'column'><img src = 'category3/CS1.png' width = '70%;'></div></div>","null","pos","CS","CS","3","category3/CS1.png","","","","",""
"","html-keyboard-response","25","244902","0.0-6.0-0.0-0.19","zzq9fap066","many_one","0","indirect_first","0","nn05er25","0","22","1","1","2","1","null","","","<div class = 'row'><div class = 'column'><img src = 'category3/CS8.png' width = '70%;'></div><div class = 'column'><img src = 'uspos/7580.bmp' width = '100%;'></div></div>","null","pos","CS","CS","3","category3/CS8.png","","","","",""
"","survey-html-form","26","250739","0.0-6.0-1.0","zzq9fap066","many_one","0","indirect_first","0","nn05er25","0","22","1","1","2","1","5317","","{}","","","","","","","","","","","",""
"","html-keyboard-response","27","254762","0.0-6.0-2.0-0.0","zzq9fap066","many_one","0","indirect_first","0","nn05er25","0","22","1","1","2","1","null","","","<div class = 'row'><div class = 'column'><img src = 'uspos/1340.bmp' width = '100%;'></div><div class = 'column'><img src = 'category4/CS4.png' width = '70%;'></div></div>","null","pos","CS","CS","4","category4/CS4.png","","","","",""
"","html-keyboard-response","28","257291","0.0-6.0-2.0-0.1","zzq9fap066","many_one","0","indirect_first","0","nn05er25","0","22","1","1","2","1","null","","","<div class = 'row'><div class = 'column'><img src = 'usneg/3300.bmp' width = '100%;'></div><div class = 'column'><img src = 'category1/CS1.png' width = '70%;'></div></div>","null","neg","CS","CS","1","category1/CS1.png","","","","",""
"","html-keyboard-response","29","259821","0.0-6.0-2.0-0.2","zzq9fap066","many_one","0","indirect_first","0","nn05er25","0","22","1","1","2","1","null","","","<div class = 'row'><div class = 'column'><img src = 'usneg/2205.bmp' width = '100%;'></div><div class = 'column'><img src = 'category2/CS5.png' width = '70%;'></div></div>","null","neg","CS","CS","2","category2/CS5.png","","","","",""
"","html-keyboard-response","30","262361","0.0-6.0-2.0-0.3","zzq9fap066","many_one","0","indirect_first","0","nn05er25","0","22","1","1","2","1","null","","","<div class = 'row'><div class = 'column'><img src = 'uspos/7580.bmp' width = '100%;'></div><div class = 'column'><img src = 'category3/CS8.png' width = '70%;'></div></div>","null","pos","CS","CS","3","category3/CS8.png","","","","",""
"","html-keyboard-response","31","264891","0.0-6.0-2.0-0.4","zzq9fap066","many_one","0","indirect_first","0","nn05er25","0","22","1","1","2","1","null","","","<div class = 'row'><div class = 'column'><img src = 'uspos/2341.bmp' width = '100%;'></div><div class = 'column'><img src = 'category3/CS1.png' width = '70%;'></div></div>","null","pos","CS","CS","3","category3/CS1.png","","","","",""
"","html-keyboard-response","32","267426","0.0-6.0-2.0-0.5","zzq9fap066","many_one","0","indirect_first","0","nn05er25","0","22","1","1","2","1","null","","","<div class = 'row'><div class = 'column'><img src = 'usneg/9182.bmp' width = '100%;'></div><div class = 'column'><img src = 'category1/CS7.png' width = '70%;'></div></div>","null","neg","CS","CS","1","category1/CS7.png","","","","",""
"","html-keyboard-response","33","269962","0.0-6.0-2.0-0.6","zzq9fap066","many_one","0","indirect_first","0","nn05er25","0","22","1","1","2","1","null","","","<div class = 'row'><div class = 'column'><img src = 'category2/CS1.png' width = '70%;'></div><div class = 'column'><img src = 'usneg/9635.2.bmp' width = '100%;'></div></div>","null","neg","CS","CS","2","category2/CS1.png","","","","",""
"","html-keyboard-response","34","272501","0.0-6.0-2.0-0.7","zzq9fap066","many_one","0","indirect_first","0","nn05er25","0","22","1","1","2","1","null","","","<div class = 'row'><div class = 'column'><img src = 'category3/CS9.png' width = '70%;'></div><div class = 'column'><img src = 'uspos/2160.bmp' width = '100%;'></div></div>","null","pos","CS","CS","3","category3/CS9.png","","","","",""
"","html-keyboard-response","35","275021","0.0-6.0-2.0-0.8","zzq9fap066","many_one","0","indirect_first","0","nn05er25","0","22","1","1","2","1","null","","","<div class = 'row'><div class = 'column'><img src = 'uspos/5830.bmp' width = '100%;'></div><div class = 'column'><img src = 'category4/CS6.png' width = '70%;'></div></div>","null","pos","CS","CS","4","category4/CS6.png","","","","",""
"","html-keyboard-response","36","277561","0.0-6.0-2.0-0.9","zzq9fap066","many_one","0","indirect_first","0","nn05er25","0","22","1","1","2","1","null","","","<div class = 'row'><div class = 'column'><img src = 'category4/CS5.png' width = '70%;'></div><div class = 'column'><img src = 'uspos/2058.bmp' width = '100%;'></div></div>","null","pos","CS","CS","4","category4/CS5.png","","","","",""
"","html-keyboard-response","37","280102","0.0-6.0-2.0-0.10","zzq9fap066","many_one","0","indirect_first","0","nn05er25","0","22","1","1","2","1","null","","","<div class = 'row'><div class = 'column'><img src = 'uspos/2311.bmp' width = '100%;'></div><div class = 'column'><img src = 'category3/CS5.png' width = '70%;'></div></div>","null","pos","CS","CS","3","category3/CS5.png","","","","",""
"","html-keyboard-response","38","282641","0.0-6.0-2.0-0.11","zzq9fap066","many_one","0","indirect_first","0","nn05er25","0","22","1","1","2","1","null","","","<div class = 'row'><div class = 'column'><img src = 'category2/CS7.png' width = '70%;'></div><div class = 'column'><img src = 'usneg/6212.bmp' width = '100%;'></div></div>","null","neg","CS","CS","2","category2/CS7.png","","","","",""
"","html-keyboard-response","39","285181","0.0-6.0-2.0-0.12","zzq9fap066","many_one","0","indirect_first","0","nn05er25","0","22","1","1","2","1","null","","","<div class = 'row'><div class = 'column'><img src = 'usneg/2141.bmp' width = '100%;'></div><div class = 'column'><img src = 'category1/CS2.png' width = '70%;'></div></div>","null","neg","CS","CS","1","category1/CS2.png","","","","",""
"","html-keyboard-response","40","287722","0.0-6.0-2.0-0.13","zzq9fap066","many_one","0","indirect_first","0","nn05er25","0","22","1","1","2","1","null","","","<div class = 'row'><div class = 'column'><img src = 'usneg/9404.bmp' width = '100%;'></div><div class = 'column'><img src = 'category2/CS8.png' width = '70%;'></div></div>","null","neg","CS","CS","2","category2/CS8.png","","","","",""
"","html-keyboard-response","41","290261","0.0-6.0-2.0-0.14","zzq9fap066","many_one","0","indirect_first","0","nn05er25","0","22","1","1","2","1","null","","","<div class = 'row'><div class = 'column'><img src = 'uspos/7325.bmp' width = '100%;'></div><div class = 'column'><img src = 'category4/CS9.png' width = '70%;'></div></div>","null","pos","CS","CS","4","category4/CS9.png","","","","",""
"","html-keyboard-response","42","292798","0.0-6.0-2.0-0.15","zzq9fap066","many_one","0","indirect_first","0","nn05er25","0","22","1","1","2","1","null","","","<div class = 'row'><div class = 'column'><img src = 'usneg/8485.bmp' width = '100%;'></div><div class = 'column'><img src = 'category2/CS9.png' width = '70%;'></div></div>","null","neg","CS","CS","2","category2/CS9.png","","","","",""
"","html-keyboard-response","43","295301","0.0-6.0-2.0-0.16","zzq9fap066","many_one","0","indirect_first","0","nn05er25","0","22","1","1","2","1","null","","","<div class = 'row'><div class = 'column'><img src = 'category3/CS2.png' width = '70%;'></div><div class = 'column'><img src = 'uspos/1463.bmp' width = '100%;'></div></div>","null","pos","CS","CS","3","category3/CS2.png","","","","",""
"","html-keyboard-response","44","297817","0.0-6.0-2.0-0.17","zzq9fap066","many_one","0","indirect_first","0","nn05er25","0","22","1","1","2","1","null","","","<div class = 'row'><div class = 'column'><img src = 'category1/CS5.png' width = '70%;'></div><div class = 'column'><img src = 'usneg/7380.bmp' width = '100%;'></div></div>","null","neg","CS","CS","1","category1/CS5.png","","","","",""
"","html-keyboard-response","45","300330","0.0-6.0-2.0-0.18","zzq9fap066","many_one","0","indirect_first","0","nn05er25","0","22","1","1","2","1","null","","","<div class = 'row'><div class = 'column'><img src = 'usneg/9415.bmp' width = '100%;'></div><div class = 'column'><img src = 'category1/CS3.png' width = '70%;'></div></div>","null","neg","CS","CS","1","category1/CS3.png","","","","",""
"","html-keyboard-response","46","302851","0.0-6.0-2.0-0.19","zzq9fap066","many_one","0","indirect_first","0","nn05er25","0","22","1","1","2","1","null","","","<div class = 'row'><div class = 'column'><img src = 'category4/CS7.png' width = '70%;'></div><div class = 'column'><img src = 'uspos/5831.bmp' width = '100%;'></div></div>","null","pos","CS","CS","4","category4/CS7.png","","","","",""
"","survey-html-form","47","308643","0.0-6.0-3.0","zzq9fap066","many_one","0","indirect_first","0","nn05er25","0","22","1","1","2","1","5281","","{}","","","","","","","","","","","",""
"","html-keyboard-response","48","312661","0.0-6.0-4.0-0.0","zzq9fap066","many_one","0","indirect_first","0","nn05er25","0","22","1","1","2","1","null","","","<div class = 'row'><div class = 'column'><img src = 'category3/CS2.png' width = '70%;'></div><div class = 'column'><img src = 'uspos/1463.bmp' width = '100%;'></div></div>","null","pos","CS","CS","3","category3/CS2.png","","","","",""
"","html-keyboard-response","49","315202","0.0-6.0-4.0-0.1","zzq9fap066","many_one","0","indirect_first","0","nn05er25","0","22","1","1","2","1","null","","","<div class = 'row'><div class = 'column'><img src = 'uspos/2311.bmp' width = '100%;'></div><div class = 'column'><img src = 'category3/CS5.png' width = '70%;'></div></div>","null","pos","CS","CS","3","category3/CS5.png","","","","",""
"","html-keyboard-response","50","317741","0.0-6.0-4.0-0.2","zzq9fap066","many_one","0","indirect_first","0","nn05er25","0","22","1","1","2","1","null","","","<div class = 'row'><div class = 'column'><img src = 'uspos/7325.bmp' width = '100%;'></div><div class = 'column'><img src = 'category4/CS9.png' width = '70%;'></div></div>","null","pos","CS","CS","4","category4/CS9.png","","","","",""
"","html-keyboard-response","51","320277","0.0-6.0-4.0-0.3","zzq9fap066","many_one","0","indirect_first","0","nn05er25","0","22","1","1","2","1","null","","","<div class = 'row'><div class = 'column'><img src = 'usneg/9404.bmp' width = '100%;'></div><div class = 'column'><img src = 'category2/CS8.png' width = '70%;'></div></div>","null","neg","CS","CS","2","category2/CS8.png","","","","",""
"","html-keyboard-response","52","322782","0.0-6.0-4.0-0.4","zzq9fap066","many_one","0","indirect_first","0","nn05er25","0","22","1","1","2","1","null","","","<div class = 'row'><div class = 'column'><img src = 'category3/CS9.png' width = '70%;'></div><div class = 'column'><img src = 'uspos/2160.bmp' width = '100%;'></div></div>","null","pos","CS","CS","3","category3/CS9.png","","","","",""
"","html-keyboard-response","53","325321","0.0-6.0-4.0-0.5","zzq9fap066","many_one","0","indirect_first","0","nn05er25","0","22","1","1","2","1","null","","","<div class = 'row'><div class = 'column'><img src = 'category3/CS8.png' width = '70%;'></div><div class = 'column'><img src = 'uspos/7580.bmp' width = '100%;'></div></div>","null","pos","CS","CS","3","category3/CS8.png","","","","",""
"","html-keyboard-response","54","327841","0.0-6.0-4.0-0.6","zzq9fap066","many_one","0","indirect_first","0","nn05er25","0","22","1","1","2","1","null","","","<div class = 'row'><div class = 'column'><img src = 'category4/CS4.png' width = '70%;'></div><div class = 'column'><img src = 'uspos/1340.bmp' width = '100%;'></div></div>","null","pos","CS","CS","4","category4/CS4.png","","","","",""
"","html-keyboard-response","55","330371","0.0-6.0-4.0-0.7","zzq9fap066","many_one","0","indirect_first","0","nn05er25","0","22","1","1","2","1","null","","","<div class = 'row'><div class = 'column'><img src = 'usneg/3300.bmp' width = '100%;'></div><div class = 'column'><img src = 'category1/CS1.png' width = '70%;'></div></div>","null","neg","CS","CS","1","category1/CS1.png","","","","",""
"","html-keyboard-response","56","332908","0.0-6.0-4.0-0.8","zzq9fap066","many_one","0","indirect_first","0","nn05er25","0","22","1","1","2","1","null","","","<div class = 'row'><div class = 'column'><img src = 'category3/CS1.png' width = '70%;'></div><div class = 'column'><img src = 'uspos/2341.bmp' width = '100%;'></div></div>","null","pos","CS","CS","3","category3/CS1.png","","","","",""
"","html-keyboard-response","57","335411","0.0-6.0-4.0-0.9","zzq9fap066","many_one","0","indirect_first","0","nn05er25","0","22","1","1","2","1","null","","","<div class = 'row'><div class = 'column'><img src = 'usneg/6212.bmp' width = '100%;'></div><div class = 'column'><img src = 'category2/CS7.png' width = '70%;'></div></div>","null","neg","CS","CS","2","category2/CS7.png","","","","",""
"","html-keyboard-response","58","337952","0.0-6.0-4.0-0.10","zzq9fap066","many_one","0","indirect_first","0","nn05er25","0","22","1","1","2","1","null","","","<div class = 'row'><div class = 'column'><img src = 'category1/CS7.png' width = '70%;'></div><div class = 'column'><img src = 'usneg/9182.bmp' width = '100%;'></div></div>","null","neg","CS","CS","1","category1/CS7.png","","","","",""
"","html-keyboard-response","59","340481","0.0-6.0-4.0-0.11","zzq9fap066","many_one","0","indirect_first","0","nn05er25","0","22","1","1","2","1","null","","","<div class = 'row'><div class = 'column'><img src = 'category2/CS5.png' width = '70%;'></div><div class = 'column'><img src = 'usneg/2205.bmp' width = '100%;'></div></div>","null","neg","CS","CS","2","category2/CS5.png","","","","",""
"","html-keyboard-response","60","343021","0.0-6.0-4.0-0.12","zzq9fap066","many_one","0","indirect_first","0","nn05er25","0","22","1","1","2","1","null","","","<div class = 'row'><div class = 'column'><img src = 'category2/CS1.png' width = '70%;'></div><div class = 'column'><img src = 'usneg/9635.2.bmp' width = '100%;'></div></div>","null","neg","CS","CS","2","category2/CS1.png","","","","",""
"","html-keyboard-response","61","345562","0.0-6.0-4.0-0.13","zzq9fap066","many_one","0","indirect_first","0","nn05er25","0","22","1","1","2","1","null","","","<div class = 'row'><div class = 'column'><img src = 'category4/CS5.png' width = '70%;'></div><div class = 'column'><img src = 'uspos/2058.bmp' width = '100%;'></div></div>","null","pos","CS","CS","4","category4/CS5.png","","","","",""
"","html-keyboard-response","62","348101","0.0-6.0-4.0-0.14","zzq9fap066","many_one","0","indirect_first","0","nn05er25","0","22","1","1","2","1","null","","","<div class = 'row'><div class = 'column'><img src = 'category4/CS7.png' width = '70%;'></div><div class = 'column'><img src = 'uspos/5831.bmp' width = '100%;'></div></div>","null","pos","CS","CS","4","category4/CS7.png","","","","",""
"","html-keyboard-response","63","350621","0.0-6.0-4.0-0.15","zzq9fap066","many_one","0","indirect_first","0","nn05er25","0","22","1","1","2","1","null","","","<div class = 'row'><div class = 'column'><img src = 'usneg/9415.bmp' width = '100%;'></div><div class = 'column'><img src = 'category1/CS3.png' width = '70%;'></div></div>","null","neg","CS","CS","1","category1/CS3.png","","","","",""
"","html-keyboard-response","64","353157","0.0-6.0-4.0-0.16","zzq9fap066","many_one","0","indirect_first","0","nn05er25","0","22","1","1","2","1","null","","","<div class = 'row'><div class = 'column'><img src = 'usneg/7380.bmp' width = '100%;'></div><div class = 'column'><img src = 'category1/CS5.png' width = '70%;'></div></div>","null","neg","CS","CS","1","category1/CS5.png","","","","",""
"","html-keyboard-response","65","355661","0.0-6.0-4.0-0.17","zzq9fap066","many_one","0","indirect_first","0","nn05er25","0","22","1","1","2","1","null","","","<div class = 'row'><div class = 'column'><img src = 'uspos/5830.bmp' width = '100%;'></div><div class = 'column'><img src = 'category4/CS6.png' width = '70%;'></div></div>","null","pos","CS","CS","4","category4/CS6.png","","","","",""
"","html-keyboard-response","66","358201","0.0-6.0-4.0-0.18","zzq9fap066","many_one","0","indirect_first","0","nn05er25","0","22","1","1","2","1","null","","","<div class = 'row'><div class = 'column'><img src = 'usneg/8485.bmp' width = '100%;'></div><div class = 'column'><img src = 'category2/CS9.png' width = '70%;'></div></div>","null","neg","CS","CS","2","category2/CS9.png","","","","",""
"","html-keyboard-response","67","360731","0.0-6.0-4.0-0.19","zzq9fap066","many_one","0","indirect_first","0","nn05er25","0","22","1","1","2","1","null","","","<div class = 'row'><div class = 'column'><img src = 'category1/CS2.png' width = '70%;'></div><div class = 'column'><img src = 'usneg/2141.bmp' width = '100%;'></div></div>","null","neg","CS","CS","1","category1/CS2.png","","","","",""
"","survey-html-form","68","368027","0.0-6.0-5.0","zzq9fap066","many_one","0","indirect_first","0","nn05er25","0","22","1","1","2","1","6776","","{}","","","","","","","","","","","",""
"","html-keyboard-response","69","372042","0.0-6.0-6.0-0.0","zzq9fap066","many_one","0","indirect_first","0","nn05er25","0","22","1","1","2","1","null","","","<div class = 'row'><div class = 'column'><img src = 'category4/CS6.png' width = '70%;'></div><div class = 'column'><img src = 'uspos/5830.bmp' width = '100%;'></div></div>","null","pos","CS","CS","4","category4/CS6.png","","","","",""
"","html-keyboard-response","70","374581","0.0-6.0-6.0-0.1","zzq9fap066","many_one","0","indirect_first","0","nn05er25","0","22","1","1","2","1","null","","","<div class = 'row'><div class = 'column'><img src = 'category4/CS5.png' width = '70%;'></div><div class = 'column'><img src = 'uspos/2058.bmp' width = '100%;'></div></div>","null","pos","CS","CS","4","category4/CS5.png","","","","",""
"","html-keyboard-response","71","377121","0.0-6.0-6.0-0.2","zzq9fap066","many_one","0","indirect_first","0","nn05er25","0","22","1","1","2","1","null","","","<div class = 'row'><div class = 'column'><img src = 'category4/CS7.png' width = '70%;'></div><div class = 'column'><img src = 'uspos/5831.bmp' width = '100%;'></div></div>","null","pos","CS","CS","4","category4/CS7.png","","","","",""
"","html-keyboard-response","72","379641","0.0-6.0-6.0-0.3","zzq9fap066","many_one","0","indirect_first","0","nn05er25","0","22","1","1","2","1","null","","","<div class = 'row'><div class = 'column'><img src = 'uspos/2341.bmp' width = '100%;'></div><div class = 'column'><img src = 'category3/CS1.png' width = '70%;'></div></div>","null","pos","CS","CS","3","category3/CS1.png","","","","",""
"","html-keyboard-response","73","382182","0.0-6.0-6.0-0.4","zzq9fap066","many_one","0","indirect_first","0","nn05er25","0","22","1","1","2","1","null","","","<div class = 'row'><div class = 'column'><img src = 'category3/CS5.png' width = '70%;'></div><div class = 'column'><img src = 'uspos/2311.bmp' width = '100%;'></div></div>","null","pos","CS","CS","3","category3/CS5.png","","","","",""
"","html-keyboard-response","74","384711","0.0-6.0-6.0-0.5","zzq9fap066","many_one","0","indirect_first","0","nn05er25","0","22","1","1","2","1","null","","","<div class = 'row'><div class = 'column'><img src = 'category3/CS2.png' width = '70%;'></div><div class = 'column'><img src = 'uspos/1463.bmp' width = '100%;'></div></div>","null","pos","CS","CS","3","category3/CS2.png","","","","",""
"","html-keyboard-response","75","387250","0.0-6.0-6.0-0.6","zzq9fap066","many_one","0","indirect_first","0","nn05er25","0","22","1","1","2","1","null","","","<div class = 'row'><div class = 'column'><img src = 'usneg/8485.bmp' width = '100%;'></div><div class = 'column'><img src = 'category2/CS9.png' width = '70%;'></div></div>","null","neg","CS","CS","2","category2/CS9.png","","","","",""
"","html-keyboard-response","76","389771","0.0-6.0-6.0-0.7","zzq9fap066","many_one","0","indirect_first","0","nn05er25","0","22","1","1","2","1","null","","","<div class = 'row'><div class = 'column'><img src = 'category2/CS1.png' width = '70%;'></div><div class = 'column'><img src = 'usneg/9635.2.bmp' width = '100%;'></div></div>","null","neg","CS","CS","2","category2/CS1.png","","","","",""
"","html-keyboard-response","77","392311","0.0-6.0-6.0-0.8","zzq9fap066","many_one","0","indirect_first","0","nn05er25","0","22","1","1","2","1","null","","","<div class = 'row'><div class = 'column'><img src = 'uspos/7580.bmp' width = '100%;'></div><div class = 'column'><img src = 'category3/CS8.png' width = '70%;'></div></div>","null","pos","CS","CS","3","category3/CS8.png","","","","",""
"","html-keyboard-response","78","394851","0.0-6.0-6.0-0.9","zzq9fap066","many_one","0","indirect_first","0","nn05er25","0","22","1","1","2","1","null","","","<div class = 'row'><div class = 'column'><img src = 'usneg/6212.bmp' width = '100%;'></div><div class = 'column'><img src = 'category2/CS7.png' width = '70%;'></div></div>","null","neg","CS","CS","2","category2/CS7.png","","","","",""
"","html-keyboard-response","79","397371","0.0-6.0-6.0-0.10","zzq9fap066","many_one","0","indirect_first","0","nn05er25","0","22","1","1","2","1","null","","","<div class = 'row'><div class = 'column'><img src = 'category1/CS1.png' width = '70%;'></div><div class = 'column'><img src = 'usneg/3300.bmp' width = '100%;'></div></div>","null","neg","CS","CS","1","category1/CS1.png","","","","",""
"","html-keyboard-response","80","399911","0.0-6.0-6.0-0.11","zzq9fap066","many_one","0","indirect_first","0","nn05er25","0","22","1","1","2","1","null","","","<div class = 'row'><div class = 'column'><img src = 'category1/CS2.png' width = '70%;'></div><div class = 'column'><img src = 'usneg/2141.bmp' width = '100%;'></div></div>","null","neg","CS","CS","1","category1/CS2.png","","","","",""
"","html-keyboard-response","81","402441","0.0-6.0-6.0-0.12","zzq9fap066","many_one","0","indirect_first","0","nn05er25","0","22","1","1","2","1","null","","","<div class = 'row'><div class = 'column'><img src = 'usneg/7380.bmp' width = '100%;'></div><div class = 'column'><img src = 'category1/CS5.png' width = '70%;'></div></div>","null","neg","CS","CS","1","category1/CS5.png","","","","",""
"","html-keyboard-response","82","404982","0.0-6.0-6.0-0.13","zzq9fap066","many_one","0","indirect_first","0","nn05er25","0","22","1","1","2","1","null","","","<div class = 'row'><div class = 'column'><img src = 'category1/CS3.png' width = '70%;'></div><div class = 'column'><img src = 'usneg/9415.bmp' width = '100%;'></div></div>","null","neg","CS","CS","1","category1/CS3.png","","","","",""
"","html-keyboard-response","83","407521","0.0-6.0-6.0-0.14","zzq9fap066","many_one","0","indirect_first","0","nn05er25","0","22","1","1","2","1","null","","","<div class = 'row'><div class = 'column'><img src = 'category2/CS8.png' width = '70%;'></div><div class = 'column'><img src = 'usneg/9404.bmp' width = '100%;'></div></div>","null","neg","CS","CS","2","category2/CS8.png","","","","",""
"","html-keyboard-response","84","410061","0.0-6.0-6.0-0.15","zzq9fap066","many_one","0","indirect_first","0","nn05er25","0","22","1","1","2","1","null","","","<div class = 'row'><div class = 'column'><img src = 'category1/CS7.png' width = '70%;'></div><div class = 'column'><img src = 'usneg/9182.bmp' width = '100%;'></div></div>","null","neg","CS","CS","1","category1/CS7.png","","","","",""
"","html-keyboard-response","85","412601","0.0-6.0-6.0-0.16","zzq9fap066","many_one","0","indirect_first","0","nn05er25","0","22","1","1","2","1","null","","","<div class = 'row'><div class = 'column'><img src = 'uspos/2160.bmp' width = '100%;'></div><div class = 'column'><img src = 'category3/CS9.png' width = '70%;'></div></div>","null","pos","CS","CS","3","category3/CS9.png","","","","",""
"","html-keyboard-response","86","415141","0.0-6.0-6.0-0.17","zzq9fap066","many_one","0","indirect_first","0","nn05er25","0","22","1","1","2","1","null","","","<div class = 'row'><div class = 'column'><img src = 'category4/CS9.png' width = '70%;'></div><div class = 'column'><img src = 'uspos/7325.bmp' width = '100%;'></div></div>","null","pos","CS","CS","4","category4/CS9.png","","","","",""
"","html-keyboard-response","87","417662","0.0-6.0-6.0-0.18","zzq9fap066","many_one","0","indirect_first","0","nn05er25","0","22","1","1","2","1","null","","","<div class = 'row'><div class = 'column'><img src = 'category4/CS4.png' width = '70%;'></div><div class = 'column'><img src = 'uspos/1340.bmp' width = '100%;'></div></div>","null","pos","CS","CS","4","category4/CS4.png","","","","",""
"","html-keyboard-response","88","420181","0.0-6.0-6.0-0.19","zzq9fap066","many_one","0","indirect_first","0","nn05er25","0","22","1","1","2","1","null","","","<div class = 'row'><div class = 'column'><img src = 'usneg/2205.bmp' width = '100%;'></div><div class = 'column'><img src = 'category2/CS5.png' width = '70%;'></div></div>","null","neg","CS","CS","2","category2/CS5.png","","","","",""
"","html-keyboard-response","89","465003","0.0-7.0","zzq9fap066","many_one","0","indirect_first","0","nn05er25","0","22","1","1","2","1","44302","","","<p>Sie sehen nun die chinesischen Zeichen nur ganz kurz. Danach sehen Sie die jeweilige Aussprache der Zeichen als Silbe auf dem Bildschrim. Ihre Aufgabe ist es, für jede Silbe anzugeben, ob diese etwas angenehmes, oder unangenehmes bedeuten könnte. Verlassen Sie sich hier vor allem auf Ihre Intuition.<br><br>Die Zeichen werden nur zur Orientierung dargestellt, beachten Sie sie deshalb nicht. Konzentrieren Sie sich vor allem auf die Silben. <br>Reagieren Sie mit folgenden zwei Tasten: <br><br><b>'D' </b> wenn die Silbe etwas <b>unangenehmes</b> bedeuten könnte. <br><b>'K'</b> wenn die Silbe etwas <b>angenehmes</b> bedeuten könnte. <br><br>Bitte legen Sie nun den Zeigefinger der linken Hand auf die Taste 'D' und den Zeigefinger der rechten Hand auf die Taste 'K'. <br>Reagieren Sie auf jede Silbe so schnell wie möglich. Uns interessiert Ihre spontane Reaktion. <br> <br> <br>Drücken Sie 'D' oder 'K', um die nächste Aufgabe zu starten. </p>","75","","","","","","","","","",""
"","html-keyboard-response","90","468009","0.0-8.0-0.0","zzq9fap066","many_one","0","indirect_first","0","nn05er25","0","22","1","1","2","1","null","","","<div style=""font-size:60px;"">+</div>","null","","","","","","","","","",""
"","html-keyboard-response","91","468109","0.0-8.0-1.0","zzq9fap066","many_one","0","indirect_first","0","nn05er25","0","22","1","1","2","1","null","","","<img src = 'category1/CS1.png' width = '100%;'>","null","","","","","","","","","",""
"","html-keyboard-response","92","468390","0.0-8.0-2.0","zzq9fap066","many_one","0","indirect_first","0","nn05er25","0","22","1","1","2","1","null","","","<img src = 'targets/37.png' width = '100%;'>","null","","","","","","","","","",""
"","html-keyboard-response","93","474074","0.0-8.0-3.0","zzq9fap066","many_one","0","indirect_first","0","nn05er25","0","22","1","1","2","1","5682","","","<img src = 'targets/mask.png' width = '100%;'>","68","neg","CS","CS","1","category1/CS1.png","targets/37.png","0","indirect","0",""
"","html-keyboard-response","94","475609","0.0-8.0-0.1","zzq9fap066","many_one","0","indirect_first","0","nn05er25","0","22","1","1","2","1","null","","","<div style=""font-size:60px;"">+</div>","null","","","","","","","","","",""
"","html-keyboard-response","95","475709","0.0-8.0-1.1","zzq9fap066","many_one","0","indirect_first","0","nn05er25","0","22","1","1","2","1","null","","","<img src = 'category2/CS8.png' width = '100%;'>","null","","","","","","","","","",""
"","html-keyboard-response","96","475989","0.0-8.0-2.1","zzq9fap066","many_one","0","indirect_first","0","nn05er25","0","22","1","1","2","1","null","","","<img src = 'targets/35.png' width = '100%;'>","null","","","","","","","","","",""
"","html-keyboard-response","97","476986","0.0-8.0-3.1","zzq9fap066","many_one","0","indirect_first","0","nn05er25","0","22","1","1","2","1","995","","","<img src = 'targets/mask.png' width = '100%;'>","68","neg","CS","CS","2","category2/CS8.png","targets/35.png","0","indirect","1",""
"","html-keyboard-response","98","478489","0.0-8.0-0.2","zzq9fap066","many_one","0","indirect_first","0","nn05er25","0","22","1","1","2","1","null","","","<div style=""font-size:60px;"">+</div>","null","","","","","","","","","",""
"","html-keyboard-response","99","478582","0.0-8.0-1.2","zzq9fap066","many_one","0","indirect_first","0","nn05er25","0","22","1","1","2","1","null","","","<img src = 'category1/CS2.png' width = '100%;'>","null","","","","","","","","","",""
"","html-keyboard-response","100","478834","0.0-8.0-2.2","zzq9fap066","many_one","0","indirect_first","0","nn05er25","0","22","1","1","2","1","null","","","<img src = 'targets/45.png' width = '100%;'>","null","","","","","","","","","",""
"","html-keyboard-response","101","481082","0.0-8.0-3.2","zzq9fap066","many_one","0","indirect_first","0","nn05er25","0","22","1","1","2","1","2246","","","<img src = 'targets/mask.png' width = '100%;'>","68","neg","CS","CS","1","category1/CS2.png","targets/45.png","0","indirect","2",""
"","html-keyboard-response","102","482589","0.0-8.0-0.3","zzq9fap066","many_one","0","indirect_first","0","nn05er25","0","22","1","1","2","1","null","","","<div style=""font-size:60px;"">+</div>","null","","","","","","","","","",""
"","html-keyboard-response","103","482689","0.0-8.0-1.3","zzq9fap066","many_one","0","indirect_first","0","nn05er25","0","22","1","1","2","1","null","","","<img src = 'category2/CS9.png' width = '100%;'>","null","","","","","","","","","",""
"","html-keyboard-response","104","482968","0.0-8.0-2.3","zzq9fap066","many_one","0","indirect_first","0","nn05er25","0","22","1","1","2","1","null","","","<img src = 'targets/27.png' width = '100%;'>","null","","","","","","","","","",""
"","html-keyboard-response","105","484737","0.0-8.0-3.3","zzq9fap066","many_one","0","indirect_first","0","nn05er25","0","22","1","1","2","1","1767","","","<img src = 'targets/mask.png' width = '100%;'>","75","neg","CS","CS","2","category2/CS9.png","targets/27.png","1","indirect","3",""
"","html-keyboard-response","106","486268","0.0-8.0-0.4","zzq9fap066","many_one","0","indirect_first","0","nn05er25","0","22","1","1","2","1","null","","","<div style=""font-size:60px;"">+</div>","null","","","","","","","","","",""
"","html-keyboard-response","107","486369","0.0-8.0-1.4","zzq9fap066","many_one","0","indirect_first","0","nn05er25","0","22","1","1","2","1","null","","","<img src = 'category2/CS7.png' width = '100%;'>","null","","","","","","","","","",""
"","html-keyboard-response","108","486639","0.0-8.0-2.4","zzq9fap066","many_one","0","indirect_first","0","nn05er25","0","22","1","1","2","1","null","","","<img src = 'targets/36.png' width = '100%;'>","null","","","","","","","","","",""
"","html-keyboard-response","109","488065","0.0-8.0-3.4","zzq9fap066","many_one","0","indirect_first","0","nn05er25","0","22","1","1","2","1","1424","","","<img src = 'targets/mask.png' width = '100%;'>","68","neg","CS","CS","2","category2/CS7.png","targets/36.png","0","indirect","4",""
"","html-keyboard-response","110","489599","0.0-8.0-0.5","zzq9fap066","many_one","0","indirect_first","0","nn05er25","0","22","1","1","2","1","null","","","<div style=""font-size:60px;"">+</div>","null","","","","","","","","","",""
"","html-keyboard-response","111","489698","0.0-8.0-1.5","zzq9fap066","many_one","0","indirect_first","0","nn05er25","0","22","1","1","2","1","null","","","<img src = 'category2/CS5.png' width = '100%;'>","null","","","","","","","","","",""
"","html-keyboard-response","112","489979","0.0-8.0-2.5","zzq9fap066","many_one","0","indirect_first","0","nn05er25","0","22","1","1","2","1","null","","","<img src = 'targets/13.png' width = '100%;'>","null","","","","","","","","","",""
"","html-keyboard-response","113","491969","0.0-8.0-3.5","zzq9fap066","many_one","0","indirect_first","0","nn05er25","0","22","1","1","2","1","1990","","","<img src = 'targets/mask.png' width = '100%;'>","68","neg","CS","CS","2","category2/CS5.png","targets/13.png","0","indirect","5",""
"","html-keyboard-response","114","493499","0.0-8.0-0.6","zzq9fap066","many_one","0","indirect_first","0","nn05er25","0","22","1","1","2","1","null","","","<div style=""font-size:60px;"">+</div>","null","","","","","","","","","",""
"","html-keyboard-response","115","493598","0.0-8.0-1.6","zzq9fap066","many_one","0","indirect_first","0","nn05er25","0","22","1","1","2","1","null","","","<img src = 'category3/CS9.png' width = '100%;'>","null","","","","","","","","","",""
"","html-keyboard-response","116","493879","0.0-8.0-2.6","zzq9fap066","many_one","0","indirect_first","0","nn05er25","0","22","1","1","2","1","null","","","<img src = 'targets/16.png' width = '100%;'>","null","","","","","","","","","",""
"","html-keyboard-response","117","494816","0.0-8.0-3.6","zzq9fap066","many_one","0","indirect_first","0","nn05er25","0","22","1","1","2","1","937","","","<img src = 'targets/mask.png' width = '100%;'>","75","pos","CS","CS","3","category3/CS9.png","targets/16.png","1","indirect","6",""
"","html-keyboard-response","118","496349","0.0-8.0-0.7","zzq9fap066","many_one","0","indirect_first","0","nn05er25","0","22","1","1","2","1","null","","","<div style=""font-size:60px;"">+</div>","null","","","","","","","","","",""
"","html-keyboard-response","119","496448","0.0-8.0-1.7","zzq9fap066","many_one","0","indirect_first","0","nn05er25","0","22","1","1","2","1","null","","","<img src = 'category1/CS5.png' width = '100%;'>","null","","","","","","","","","",""
"","html-keyboard-response","120","496728","0.0-8.0-2.7","zzq9fap066","many_one","0","indirect_first","0","nn05er25","0","22","1","1","2","1","null","","","<img src = 'targets/14.png' width = '100%;'>","null","","","","","","","","","",""
"","html-keyboard-response","121","498985","0.0-8.0-3.7","zzq9fap066","many_one","0","indirect_first","0","nn05er25","0","22","1","1","2","1","2255","","","<img src = 'targets/mask.png' width = '100%;'>","75","neg","CS","CS","1","category1/CS5.png","targets/14.png","1","indirect","7",""
"","html-keyboard-response","122","500518","0.0-8.0-0.8","zzq9fap066","many_one","0","indirect_first","0","nn05er25","0","22","1","1","2","1","null","","","<div style=""font-size:60px;"">+</div>","null","","","","","","","","","",""
"","html-keyboard-response","123","500618","0.0-8.0-1.8","zzq9fap066","many_one","0","indirect_first","0","nn05er25","0","22","1","1","2","1","null","","","<img src = 'category4/CS7.png' width = '100%;'>","null","","","","","","","","","",""
"","html-keyboard-response","124","500898","0.0-8.0-2.8","zzq9fap066","many_one","0","indirect_first","0","nn05er25","0","22","1","1","2","1","null","","","<img src = 'targets/17.png' width = '100%;'>","null","","","","","","","","","",""
"","html-keyboard-response","125","501744","0.0-8.0-3.8","zzq9fap066","many_one","0","indirect_first","0","nn05er25","0","22","1","1","2","1","845","","","<img src = 'targets/mask.png' width = '100%;'>","75","pos","CS","CS","4","category4/CS7.png","targets/17.png","1","indirect","8",""
"","html-keyboard-response","126","503278","0.0-8.0-0.9","zzq9fap066","many_one","0","indirect_first","0","nn05er25","0","22","1","1","2","1","null","","","<div style=""font-size:60px;"">+</div>","null","","","","","","","","","",""
"","html-keyboard-response","127","503378","0.0-8.0-1.9","zzq9fap066","many_one","0","indirect_first","0","nn05er25","0","22","1","1","2","1","null","","","<img src = 'category1/CS7.png' width = '100%;'>","null","","","","","","","","","",""
"","html-keyboard-response","128","503658","0.0-8.0-2.9","zzq9fap066","many_one","0","indirect_first","0","nn05er25","0","22","1","1","2","1","null","","","<img src = 'targets/9.png' width = '100%;'>","null","","","","","","","","","",""
"","html-keyboard-response","129","504992","0.0-8.0-3.9","zzq9fap066","many_one","0","indirect_first","0","nn05er25","0","22","1","1","2","1","1332","","","<img src = 'targets/mask.png' width = '100%;'>","68","neg","CS","CS","1","category1/CS7.png","targets/9.png","0","indirect","9",""
"","html-keyboard-response","130","506518","0.0-8.0-0.10","zzq9fap066","many_one","0","indirect_first","0","nn05er25","0","22","1","1","2","1","null","","","<div style=""font-size:60px;"">+</div>","null","","","","","","","","","",""
"","html-keyboard-response","131","506618","0.0-8.0-1.10","zzq9fap066","many_one","0","indirect_first","0","nn05er25","0","22","1","1","2","1","null","","","<img src = 'category2/CS10.png' width = '100%;'>","null","","","","","","","","","",""
"","html-keyboard-response","132","506894","0.0-8.0-2.10","zzq9fap066","many_one","0","indirect_first","0","nn05er25","0","22","1","1","2","1","null","","","<img src = 'targets/5.png' width = '100%;'>","null","","","","","","","","","",""
"","html-keyboard-response","133","508568","0.0-8.0-3.10","zzq9fap066","many_one","0","indirect_first","0","nn05er25","0","22","1","1","2","1","1673","","","<img src = 'targets/mask.png' width = '100%;'>","75","neg","GS","GSold","2","category2/CS10.png","targets/5.png","1","indirect","10",""
"","html-keyboard-response","134","510098","0.0-8.0-0.11","zzq9fap066","many_one","0","indirect_first","0","nn05er25","0","22","1","1","2","1","null","","","<div style=""font-size:60px;"">+</div>","null","","","","","","","","","",""
"","html-keyboard-response","135","510198","0.0-8.0-1.11","zzq9fap066","many_one","0","indirect_first","0","nn05er25","0","22","1","1","2","1","null","","","<img src = 'category2/CS1.png' width = '100%;'>","null","","","","","","","","","",""
"","html-keyboard-response","136","510478","0.0-8.0-2.11","zzq9fap066","many_one","0","indirect_first","0","nn05er25","0","22","1","1","2","1","null","","","<img src = 'targets/15.png' width = '100%;'>","null","","","","","","","","","",""
"","html-keyboard-response","137","511720","0.0-8.0-3.11","zzq9fap066","many_one","0","indirect_first","0","nn05er25","0","22","1","1","2","1","1240","","","<img src = 'targets/mask.png' width = '100%;'>","68","neg","CS","CS","2","category2/CS1.png","targets/15.png","0","indirect","11",""
"","html-keyboard-response","138","513258","0.0-8.0-0.12","zzq9fap066","many_one","0","indirect_first","0","nn05er25","0","22","1","1","2","1","null","","","<div style=""font-size:60px;"">+</div>","null","","","","","","","","","",""
"","html-keyboard-response","139","513358","0.0-8.0-1.12","zzq9fap066","many_one","0","indirect_first","0","nn05er25","0","22","1","1","2","1","null","","","<img src = 'category2/CS2.png' width = '100%;'>","null","","","","","","","","","",""
"","html-keyboard-response","140","513638","0.0-8.0-2.12","zzq9fap066","many_one","0","indirect_first","0","nn05er25","0","22","1","1","2","1","null","","","<img src = 'targets/44.png' width = '100%;'>","null","","","","","","","","","",""
"","html-keyboard-response","141","515496","0.0-8.0-3.12","zzq9fap066","many_one","0","indirect_first","0","nn05er25","0","22","1","1","2","1","1857","","","<img src = 'targets/mask.png' width = '100%;'>","68","neg","GS","GSold","2","category2/CS2.png","targets/44.png","0","indirect","12",""
"","html-keyboard-response","142","517008","0.0-8.0-0.13","zzq9fap066","many_one","0","indirect_first","0","nn05er25","0","22","1","1","2","1","null","","","<div style=""font-size:60px;"">+</div>","null","","","","","","","","","",""
"","html-keyboard-response","143","517108","0.0-8.0-1.13","zzq9fap066","many_one","0","indirect_first","0","nn05er25","0","22","1","1","2","1","null","","","<img src = 'category3/CS8.png' width = '100%;'>","null","","","","","","","","","",""
"","html-keyboard-response","144","517388","0.0-8.0-2.13","zzq9fap066","many_one","0","indirect_first","0","nn05er25","0","22","1","1","2","1","null","","","<img src = 'targets/30.png' width = '100%;'>","null","","","","","","","","","",""
"","html-keyboard-response","145","518488","0.0-8.0-3.13","zzq9fap066","many_one","0","indirect_first","0","nn05er25","0","22","1","1","2","1","1099","","","<img src = 'targets/mask.png' width = '100%;'>","75","pos","CS","CS","3","category3/CS8.png","targets/30.png","1","indirect","13",""
"","html-keyboard-response","146","520027","0.0-8.0-0.14","zzq9fap066","many_one","0","indirect_first","0","nn05er25","0","22","1","1","2","1","null","","","<div style=""font-size:60px;"">+</div>","null","","","","","","","","","",""
"","html-keyboard-response","147","520127","0.0-8.0-1.14","zzq9fap066","many_one","0","indirect_first","0","nn05er25","0","22","1","1","2","1","null","","","<img src = 'category3/CS2.png' width = '100%;'>","null","","","","","","","","","",""
"","html-keyboard-response","148","520407","0.0-8.0-2.14","zzq9fap066","many_one","0","indirect_first","0","nn05er25","0","22","1","1","2","1","null","","","<img src = 'targets/3.png' width = '100%;'>","null","","","","","","","","","",""
"","html-keyboard-response","149","523784","0.0-8.0-3.14","zzq9fap066","many_one","0","indirect_first","0","nn05er25","0","22","1","1","2","1","3375","","","<img src = 'targets/mask.png' width = '100%;'>","75","pos","CS","CS","3","category3/CS2.png","targets/3.png","1","indirect","14",""
"","html-keyboard-response","150","525307","0.0-8.0-0.15","zzq9fap066","many_one","0","indirect_first","0","nn05er25","0","22","1","1","2","1","null","","","<div style=""font-size:60px;"">+</div>","null","","","","","","","","","",""
"","html-keyboard-response","151","525408","0.0-8.0-1.15","zzq9fap066","many_one","0","indirect_first","0","nn05er25","0","22","1","1","2","1","null","","","<img src = 'category3/CS1.png' width = '100%;'>","null","","","","","","","","","",""
"","html-keyboard-response","152","525688","0.0-8.0-2.15","zzq9fap066","many_one","0","indirect_first","0","nn05er25","0","22","1","1","2","1","null","","","<img src = 'targets/24.png' width = '100%;'>","null","","","","","","","","","",""
"","html-keyboard-response","153","526616","0.0-8.0-3.15","zzq9fap066","many_one","0","indirect_first","0","nn05er25","0","22","1","1","2","1","926","","","<img src = 'targets/mask.png' width = '100%;'>","75","pos","CS","CS","3","category3/CS1.png","targets/24.png","1","indirect","15",""
"","html-keyboard-response","154","528147","0.0-8.0-0.16","zzq9fap066","many_one","0","indirect_first","0","nn05er25","0","22","1","1","2","1","null","","","<div style=""font-size:60px;"">+</div>","null","","","","","","","","","",""
"","html-keyboard-response","155","528248","0.0-8.0-1.16","zzq9fap066","many_one","0","indirect_first","0","nn05er25","0","22","1","1","2","1","null","","","<img src = 'category4/CS4.png' width = '100%;'>","null","","","","","","","","","",""
"","html-keyboard-response","156","528527","0.0-8.0-2.16","zzq9fap066","many_one","0","indirect_first","0","nn05er25","0","22","1","1","2","1","null","","","<img src = 'targets/12.png' width = '100%;'>","null","","","","","","","","","",""
"","html-keyboard-response","157","529192","0.0-8.0-3.16","zzq9fap066","many_one","0","indirect_first","0","nn05er25","0","22","1","1","2","1","663","","","<img src = 'targets/mask.png' width = '100%;'>","75","pos","CS","CS","4","category4/CS4.png","targets/12.png","1","indirect","16",""
"","html-keyboard-response","158","530727","0.0-8.0-0.17","zzq9fap066","many_one","0","indirect_first","0","nn05er25","0","22","1","1","2","1","null","","","<div style=""font-size:60px;"">+</div>","null","","","","","","","","","",""
"","html-keyboard-response","159","530827","0.0-8.0-1.17","zzq9fap066","many_one","0","indirect_first","0","nn05er25","0","22","1","1","2","1","null","","","<img src = 'category1/CS3.png' width = '100%;'>","null","","","","","","","","","",""
"","html-keyboard-response","160","531107","0.0-8.0-2.17","zzq9fap066","many_one","0","indirect_first","0","nn05er25","0","22","1","1","2","1","null","","","<img src = 'targets/28.png' width = '100%;'>","null","","","","","","","","","",""
"","html-keyboard-response","161","532576","0.0-8.0-3.17","zzq9fap066","many_one","0","indirect_first","0","nn05er25","0","22","1","1","2","1","1468","","","<img src = 'targets/mask.png' width = '100%;'>","75","neg","CS","CS","1","category1/CS3.png","targets/28.png","1","indirect","17",""
"","html-keyboard-response","162","534107","0.0-8.0-0.18","zzq9fap066","many_one","0","indirect_first","0","nn05er25","0","22","1","1","2","1","null","","","<div style=""font-size:60px;"">+</div>","null","","","","","","","","","",""
"","html-keyboard-response","163","534207","0.0-8.0-1.18","zzq9fap066","many_one","0","indirect_first","0","nn05er25","0","22","1","1","2","1","null","","","<img src = 'category4/CS5.png' width = '100%;'>","null","","","","","","","","","",""
"","html-keyboard-response","164","534487","0.0-8.0-2.18","zzq9fap066","many_one","0","indirect_first","0","nn05er25","0","22","1","1","2","1","null","","","<img src = 'targets/34.png' width = '100%;'>","null","","","","","","","","","",""
"","html-keyboard-response","165","535631","0.0-8.0-3.18","zzq9fap066","many_one","0","indirect_first","0","nn05er25","0","22","1","1","2","1","1142","","","<img src = 'targets/mask.png' width = '100%;'>","75","pos","CS","CS","4","category4/CS5.png","targets/34.png","1","indirect","18",""
"","html-keyboard-response","166","537147","0.0-8.0-0.19","zzq9fap066","many_one","0","indirect_first","0","nn05er25","0","22","1","1","2","1","null","","","<div style=""font-size:60px;"">+</div>","null","","","","","","","","","",""
"","html-keyboard-response","167","537248","0.0-8.0-1.19","zzq9fap066","many_one","0","indirect_first","0","nn05er25","0","22","1","1","2","1","null","","","<img src = 'category4/CS6.png' width = '100%;'>","null","","","","","","","","","",""
"","html-keyboard-response","168","537527","0.0-8.0-2.19","zzq9fap066","many_one","0","indirect_first","0","nn05er25","0","22","1","1","2","1","null","","","<img src = 'targets/10.png' width = '100%;'>","null","","","","","","","","","",""
"","html-keyboard-response","169","539367","0.0-8.0-3.19","zzq9fap066","many_one","0","indirect_first","0","nn05er25","0","22","1","1","2","1","1839","","","<img src = 'targets/mask.png' width = '100%;'>","75","pos","CS","CS","4","category4/CS6.png","targets/10.png","1","indirect","19",""
"","html-keyboard-response","170","540887","0.0-8.0-0.20","zzq9fap066","many_one","0","indirect_first","0","nn05er25","0","22","1","1","2","1","null","","","<div style=""font-size:60px;"">+</div>","null","","","","","","","","","",""
"","html-keyboard-response","171","540987","0.0-8.0-1.20","zzq9fap066","many_one","0","indirect_first","0","nn05er25","0","22","1","1","2","1","null","","","<img src = 'category4/CS9.png' width = '100%;'>","null","","","","","","","","","",""
"","html-keyboard-response","172","541267","0.0-8.0-2.20","zzq9fap066","many_one","0","indirect_first","0","nn05er25","0","22","1","1","2","1","null","","","<img src = 'targets/47.png' width = '100%;'>","null","","","","","","","","","",""
"","html-keyboard-response","173","543119","0.0-8.0-3.20","zzq9fap066","many_one","0","indirect_first","0","nn05er25","0","22","1","1","2","1","1850","","","<img src = 'targets/mask.png' width = '100%;'>","75","pos","CS","CS","4","category4/CS9.png","targets/47.png","1","indirect","20",""
"","html-keyboard-response","174","544647","0.0-8.0-0.21","zzq9fap066","many_one","0","indirect_first","0","nn05er25","0","22","1","1","2","1","null","","","<div style=""font-size:60px;"">+</div>","null","","","","","","","","","",""
"","html-keyboard-response","175","544746","0.0-8.0-1.21","zzq9fap066","many_one","0","indirect_first","0","nn05er25","0","22","1","1","2","1","null","","","<img src = 'category3/CS10.png' width = '100%;'>","null","","","","","","","","","",""
"","html-keyboard-response","176","545017","0.0-8.0-2.21","zzq9fap066","many_one","0","indirect_first","0","nn05er25","0","22","1","1","2","1","null","","","<img src = 'targets/40.png' width = '100%;'>","null","","","","","","","","","",""
"","html-keyboard-response","177","546119","0.0-8.0-3.21","zzq9fap066","many_one","0","indirect_first","0","nn05er25","0","22","1","1","2","1","1101","","","<img src = 'targets/mask.png' width = '100%;'>","75","pos","GS","GSold","3","category3/CS10.png","targets/40.png","1","indirect","21",""
"","html-keyboard-response","178","547646","0.0-8.0-0.22","zzq9fap066","many_one","0","indirect_first","0","nn05er25","0","22","1","1","2","1","null","","","<div style=""font-size:60px;"">+</div>","null","","","","","","","","","",""
"","html-keyboard-response","179","547747","0.0-8.0-1.22","zzq9fap066","many_one","0","indirect_first","0","nn05er25","0","22","1","1","2","1","null","","","<img src = 'category3/CS5.png' width = '100%;'>","null","","","","","","","","","",""
"","html-keyboard-response","180","548027","0.0-8.0-2.22","zzq9fap066","many_one","0","indirect_first","0","nn05er25","0","22","1","1","2","1","null","","","<img src = 'targets/19.png' width = '100%;'>","null","","","","","","","","","",""
"","html-keyboard-response","181","548655","0.0-8.0-3.22","zzq9fap066","many_one","0","indirect_first","0","nn05er25","0","22","1","1","2","1","628","","","<img src = 'targets/mask.png' width = '100%;'>","75","pos","CS","CS","3","category3/CS5.png","targets/19.png","1","indirect","22",""
"","html-keyboard-response","182","550166","0.0-8.0-0.23","zzq9fap066","many_one","0","indirect_first","0","nn05er25","0","22","1","1","2","1","null","","","<div style=""font-size:60px;"">+</div>","null","","","","","","","","","",""
"","html-keyboard-response","183","550267","0.0-8.0-1.23","zzq9fap066","many_one","0","indirect_first","0","nn05er25","0","22","1","1","2","1","null","","","<img src = 'category2/CS3.png' width = '100%;'>","null","","","","","","","","","",""
"","html-keyboard-response","184","550546","0.0-8.0-2.23","zzq9fap066","many_one","0","indirect_first","0","nn05er25","0","22","1","1","2","1","null","","","<img src = 'targets/18.png' width = '100%;'>","null","","","","","","","","","",""
"","html-keyboard-response","185","551224","0.0-8.0-3.23","zzq9fap066","many_one","0","indirect_first","0","nn05er25","0","22","1","1","2","1","675","","","<img src = 'targets/mask.png' width = '100%;'>","68","neg","GS","GSold","2","category2/CS3.png","targets/18.png","0","indirect","23",""
"","survey-html-form","186","556926","0.0-9.0","zzq9fap066","many_one","0","indirect_first","0","nn05er25","0","22","1","1","2","1","5199","","{}","","","","","","","","","","","",""
"","html-keyboard-response","187","559956","0.0-10.0-0.0","zzq9fap066","many_one","0","indirect_first","0","nn05er25","0","22","1","1","2","1","null","","","<div style=""font-size:60px;"">+</div>","null","","","","","","","","","",""
"","html-keyboard-response","188","560056","0.0-10.0-1.0","zzq9fap066","many_one","0","indirect_first","0","nn05er25","0","22","1","1","2","1","null","","","<img src = 'category4/CS10.png' width = '100%;'>","null","","","","","","","","","",""
"","html-keyboard-response","189","560336","0.0-10.0-2.0","zzq9fap066","many_one","0","indirect_first","0","nn05er25","0","22","1","1","2","1","null","","","<img src = 'targets/23.png' width = '100%;'>","null","","","","","","","","","",""
"","html-keyboard-response","190","562167","0.0-10.0-3.0","zzq9fap066","many_one","0","indirect_first","0","nn05er25","0","22","1","1","2","1","1829","","","<img src = 'targets/mask.png' width = '100%;'>","75","pos","GS","GSold","4","category4/CS10.png","targets/23.png","1","indirect","24",""
"","html-keyboard-response","191","563696","0.0-10.0-0.1","zzq9fap066","many_one","0","indirect_first","0","nn05er25","0","22","1","1","2","1","null","","","<div style=""font-size:60px;"">+</div>","null","","","","","","","","","",""
"","html-keyboard-response","192","563796","0.0-10.0-1.1","zzq9fap066","many_one","0","indirect_first","0","nn05er25","0","22","1","1","2","1","null","","","<img src = 'category4/CS8.png' width = '100%;'>","null","","","","","","","","","",""
"","html-keyboard-response","193","564072","0.0-10.0-2.1","zzq9fap066","many_one","0","indirect_first","0","nn05er25","0","22","1","1","2","1","null","","","<img src = 'targets/41.png' width = '100%;'>","null","","","","","","","","","",""
"","html-keyboard-response","194","567750","0.0-10.0-3.1","zzq9fap066","many_one","0","indirect_first","0","nn05er25","0","22","1","1","2","1","3677","","","<img src = 'targets/mask.png' width = '100%;'>","75","pos","GS","GSold","4","category4/CS8.png","targets/41.png","1","indirect","25",""
"","html-keyboard-response","195","569276","0.0-10.0-0.2","zzq9fap066","many_one","0","indirect_first","0","nn05er25","0","22","1","1","2","1","null","","","<div style=""font-size:60px;"">+</div>","null","","","","","","","","","",""
"","html-keyboard-response","196","569376","0.0-10.0-1.2","zzq9fap066","many_one","0","indirect_first","0","nn05er25","0","22","1","1","2","1","null","","","<img src = 'category3/CS7.png' width = '100%;'>","null","","","","","","","","","",""
"","html-keyboard-response","197","569656","0.0-10.0-2.2","zzq9fap066","many_one","0","indirect_first","0","nn05er25","0","22","1","1","2","1","null","","","<img src = 'targets/7.png' width = '100%;'>","null","","","","","","","","","",""
"","html-keyboard-response","198","572838","0.0-10.0-3.2","zzq9fap066","many_one","0","indirect_first","0","nn05er25","0","22","1","1","2","1","3181","","","<img src = 'targets/mask.png' width = '100%;'>","75","pos","GS","GSold","3","category3/CS7.png","targets/7.png","1","indirect","26",""
"","html-keyboard-response","199","574376","0.0-10.0-0.3","zzq9fap066","many_one","0","indirect_first","0","nn05er25","0","22","1","1","2","1","null","","","<div style=""font-size:60px;"">+</div>","null","","","","","","","","","",""
"","html-keyboard-response","200","574476","0.0-10.0-1.3","zzq9fap066","many_one","0","indirect_first","0","nn05er25","0","22","1","1","2","1","null","","","<img src = 'category3/wang.png' width = '100%;'>","null","","","","","","","","","",""
"","html-keyboard-response","201","574756","0.0-10.0-2.3","zzq9fap066","many_one","0","indirect_first","0","nn05er25","0","22","1","1","2","1","null","","","<img src = 'targets/2.png' width = '100%;'>","null","","","","","","","","","",""
"","html-keyboard-response","202","575366","0.0-10.0-3.3","zzq9fap066","many_one","0","indirect_first","0","nn05er25","0","22","1","1","2","1","609","","","<img src = 'targets/mask.png' width = '100%;'>","75","pos","GS","abstract","3","category3/wang.png","targets/2.png","1","indirect","27",""
"","html-keyboard-response","203","576896","0.0-10.0-0.4","zzq9fap066","many_one","0","indirect_first","0","nn05er25","0","22","1","1","2","1","null","","","<div style=""font-size:60px;"">+</div>","null","","","","","","","","","",""
"","html-keyboard-response","204","576996","0.0-10.0-1.4","zzq9fap066","many_one","0","indirect_first","0","nn05er25","0","22","1","1","2","1","null","","","<img src = 'category1/GS1.png' width = '100%;'>","null","","","","","","","","","",""
"","html-keyboard-response","205","577275","0.0-10.0-2.4","zzq9fap066","many_one","0","indirect_first","0","nn05er25","0","22","1","1","2","1","null","","","<img src = 'targets/1.png' width = '100%;'>","null","","","","","","","","","",""
"","html-keyboard-response","206","578157","0.0-10.0-3.4","zzq9fap066","many_one","0","indirect_first","0","nn05er25","0","22","1","1","2","1","881","","","<img src = 'targets/mask.png' width = '100%;'>","68","neg","GS","GSnew","1","category1/GS1.png","targets/1.png","0","indirect","28",""
"","html-keyboard-response","207","579696","0.0-10.0-0.5","zzq9fap066","many_one","0","indirect_first","0","nn05er25","0","22","1","1","2","1","null","","","<div style=""font-size:60px;"">+</div>","null","","","","","","","","","",""
"","html-keyboard-response","208","579796","0.0-10.0-1.5","zzq9fap066","many_one","0","indirect_first","0","nn05er25","0","22","1","1","2","1","null","","","<img src = 'category1/CS6.png' width = '100%;'>","null","","","","","","","","","",""
"","html-keyboard-response","209","580076","0.0-10.0-2.5","zzq9fap066","many_one","0","indirect_first","0","nn05er25","0","22","1","1","2","1","null","","","<img src = 'targets/26.png' width = '100%;'>","null","","","","","","","","","",""
"","html-keyboard-response","210","580541","0.0-10.0-3.5","zzq9fap066","many_one","0","indirect_first","0","nn05er25","0","22","1","1","2","1","465","","","<img src = 'targets/mask.png' width = '100%;'>","68","neg","GS","GSold","1","category1/CS6.png","targets/26.png","0","indirect","29",""
"","html-keyboard-response","211","582066","0.0-10.0-0.6","zzq9fap066","many_one","0","indirect_first","0","nn05er25","0","22","1","1","2","1","null","","","<div style=""font-size:60px;"">+</div>","null","","","","","","","","","",""
"","html-keyboard-response","212","582166","0.0-10.0-1.6","zzq9fap066","many_one","0","indirect_first","0","nn05er25","0","22","1","1","2","1","null","","","<img src = 'category3/GS2.png' width = '100%;'>","null","","","","","","","","","",""
"","html-keyboard-response","213","582446","0.0-10.0-2.6","zzq9fap066","many_one","0","indirect_first","0","nn05er25","0","22","1","1","2","1","null","","","<img src = 'targets/32.png' width = '100%;'>","null","","","","","","","","","",""
"","html-keyboard-response","214","582934","0.0-10.0-3.6","zzq9fap066","many_one","0","indirect_first","0","nn05er25","0","22","1","1","2","1","486","","","<img src = 'targets/mask.png' width = '100%;'>","68","pos","GS","GSnew","3","category3/GS2.png","targets/32.png","0","indirect","30",""
"","html-keyboard-response","215","584466","0.0-10.0-0.7","zzq9fap066","many_one","0","indirect_first","0","nn05er25","0","22","1","1","2","1","null","","","<div style=""font-size:60px;"">+</div>","null","","","","","","","","","",""
"","html-keyboard-response","216","584566","0.0-10.0-1.7","zzq9fap066","many_one","0","indirect_first","0","nn05er25","0","22","1","1","2","1","null","","","<img src = 'category1/GS2.png' width = '100%;'>","null","","","","","","","","","",""
"","html-keyboard-response","217","584846","0.0-10.0-2.7","zzq9fap066","many_one","0","indirect_first","0","nn05er25","0","22","1","1","2","1","null","","","<img src = 'targets/48.png' width = '100%;'>","null","","","","","","","","","",""
"","html-keyboard-response","218","585478","0.0-10.0-3.7","zzq9fap066","many_one","0","indirect_first","0","nn05er25","0","22","1","1","2","1","631","","","<img src = 'targets/mask.png' width = '100%;'>","68","neg","GS","GSnew","1","category1/GS2.png","targets/48.png","0","indirect","31",""
"","html-keyboard-response","219","587005","0.0-10.0-0.8","zzq9fap066","many_one","0","indirect_first","0","nn05er25","0","22","1","1","2","1","null","","","<div style=""font-size:60px;"">+</div>","null","","","","","","","","","",""
"","html-keyboard-response","220","587106","0.0-10.0-1.8","zzq9fap066","many_one","0","indirect_first","0","nn05er25","0","22","1","1","2","1","null","","","<img src = 'category4/GS1.png' width = '100%;'>","null","","","","","","","","","",""
"","html-keyboard-response","221","587366","0.0-10.0-2.8","zzq9fap066","many_one","0","indirect_first","0","nn05er25","0","22","1","1","2","1","null","","","<img src = 'targets/39.png' width = '100%;'>","null","","","","","","","","","",""
"","html-keyboard-response","222","588334","0.0-10.0-3.8","zzq9fap066","many_one","0","indirect_first","0","nn05er25","0","22","1","1","2","1","967","","","<img src = 'targets/mask.png' width = '100%;'>","75","pos","GS","GSnew","4","category4/GS1.png","targets/39.png","1","indirect","32",""
"","html-keyboard-response","223","589865","0.0-10.0-0.9","zzq9fap066","many_one","0","indirect_first","0","nn05er25","0","22","1","1","2","1","null","","","<div style=""font-size:60px;"">+</div>","null","","","","","","","","","",""
"","html-keyboard-response","224","589966","0.0-10.0-1.9","zzq9fap066","many_one","0","indirect_first","0","nn05er25","0","22","1","1","2","1","null","","","<img src = 'category1/ma.png' width = '100%;'>","null","","","","","","","","","",""
"","html-keyboard-response","225","590245","0.0-10.0-2.9","zzq9fap066","many_one","0","indirect_first","0","nn05er25","0","22","1","1","2","1","null","","","<img src = 'targets/42.png' width = '100%;'>","null","","","","","","","","","",""
"","html-keyboard-response","226","591350","0.0-10.0-3.9","zzq9fap066","many_one","0","indirect_first","0","nn05er25","0","22","1","1","2","1","1103","","","<img src = 'targets/mask.png' width = '100%;'>","75","neg","GS","abstract","1","category1/ma.png","targets/42.png","1","indirect","33",""
"","html-keyboard-response","227","592886","0.0-10.0-0.10","zzq9fap066","many_one","0","indirect_first","0","nn05er25","0","22","1","1","2","1","null","","","<div style=""font-size:60px;"">+</div>","null","","","","","","","","","",""
"","html-keyboard-response","228","592986","0.0-10.0-1.10","zzq9fap066","many_one","0","indirect_first","0","nn05er25","0","22","1","1","2","1","null","","","<img src = 'category2/GS3.png' width = '100%;'>","null","","","","","","","","","",""
"","html-keyboard-response","229","593266","0.0-10.0-2.10","zzq9fap066","many_one","0","indirect_first","0","nn05er25","0","22","1","1","2","1","null","","","<img src = 'targets/31.png' width = '100%;'>","null","","","","","","","","","",""
"","html-keyboard-response","230","593814","0.0-10.0-3.10","zzq9fap066","many_one","0","indirect_first","0","nn05er25","0","22","1","1","2","1","547","","","<img src = 'targets/mask.png' width = '100%;'>","75","neg","GS","GSnew","2","category2/GS3.png","targets/31.png","1","indirect","34",""
"","html-keyboard-response","231","595325","0.0-10.0-0.11","zzq9fap066","many_one","0","indirect_first","0","nn05er25","0","22","1","1","2","1","null","","","<div style=""font-size:60px;"">+</div>","null","","","","","","","","","",""
"","html-keyboard-response","232","595425","0.0-10.0-1.11","zzq9fap066","many_one","0","indirect_first","0","nn05er25","0","22","1","1","2","1","null","","","<img src = 'category4/lin.png' width = '100%;'>","null","","","","","","","","","",""
"","html-keyboard-response","233","595706","0.0-10.0-2.11","zzq9fap066","many_one","0","indirect_first","0","nn05er25","0","22","1","1","2","1","null","","","<img src = 'targets/43.png' width = '100%;'>","null","","","","","","","","","",""
"","html-keyboard-response","234","597181","0.0-10.0-3.11","zzq9fap066","many_one","0","indirect_first","0","nn05er25","0","22","1","1","2","1","1475","","","<img src = 'targets/mask.png' width = '100%;'>","75","pos","GS","abstract","4","category4/lin.png","targets/43.png","1","indirect","35",""
"","html-keyboard-response","235","598685","0.0-10.0-0.12","zzq9fap066","many_one","0","indirect_first","0","nn05er25","0","22","1","1","2","1","null","","","<div style=""font-size:60px;"">+</div>","null","","","","","","","","","",""
"","html-keyboard-response","236","598785","0.0-10.0-1.12","zzq9fap066","many_one","0","indirect_first","0","nn05er25","0","22","1","1","2","1","null","","","<img src = 'category1/CS4.png' width = '100%;'>","null","","","","","","","","","",""
"","html-keyboard-response","237","599065","0.0-10.0-2.12","zzq9fap066","many_one","0","indirect_first","0","nn05er25","0","22","1","1","2","1","null","","","<img src = 'targets/6.png' width = '100%;'>","null","","","","","","","","","",""
"","html-keyboard-response","238","599701","0.0-10.0-3.12","zzq9fap066","many_one","0","indirect_first","0","nn05er25","0","22","1","1","2","1","635","","","<img src = 'targets/mask.png' width = '100%;'>","68","neg","GS","GSold","1","category1/CS4.png","targets/6.png","0","indirect","36",""
"","html-keyboard-response","239","601205","0.0-10.0-0.13","zzq9fap066","many_one","0","indirect_first","0","nn05er25","0","22","1","1","2","1","null","","","<div style=""font-size:60px;"">+</div>","null","","","","","","","","","",""
"","html-keyboard-response","240","601298","0.0-10.0-1.13","zzq9fap066","many_one","0","indirect_first","0","nn05er25","0","22","1","1","2","1","null","","","<img src = 'category2/men.png' width = '100%;'>","null","","","","","","","","","",""
"","html-keyboard-response","241","601551","0.0-10.0-2.13","zzq9fap066","many_one","0","indirect_first","0","nn05er25","0","22","1","1","2","1","null","","","<img src = 'targets/8.png' width = '100%;'>","null","","","","","","","","","",""
"","html-keyboard-response","242","602198","0.0-10.0-3.13","zzq9fap066","many_one","0","indirect_first","0","nn05er25","0","22","1","1","2","1","646","","","<img src = 'targets/mask.png' width = '100%;'>","68","neg","GS","abstract","2","category2/men.png","targets/8.png","0","indirect","37",""
"","html-keyboard-response","243","603725","0.0-10.0-0.14","zzq9fap066","many_one","0","indirect_first","0","nn05er25","0","22","1","1","2","1","null","","","<div style=""font-size:60px;"">+</div>","null","","","","","","","","","",""
"","html-keyboard-response","244","603825","0.0-10.0-1.14","zzq9fap066","many_one","0","indirect_first","0","nn05er25","0","22","1","1","2","1","null","","","<img src = 'category4/GS2.png' width = '100%;'>","null","","","","","","","","","",""
"","html-keyboard-response","245","604105","0.0-10.0-2.14","zzq9fap066","many_one","0","indirect_first","0","nn05er25","0","22","1","1","2","1","null","","","<img src = 'targets/29.png' width = '100%;'>","null","","","","","","","","","",""
"","html-keyboard-response","246","604917","0.0-10.0-3.14","zzq9fap066","many_one","0","indirect_first","0","nn05er25","0","22","1","1","2","1","810","","","<img src = 'targets/mask.png' width = '100%;'>","68","pos","GS","GSnew","4","category4/GS2.png","targets/29.png","0","indirect","38",""
"","html-keyboard-response","247","606445","0.0-10.0-0.15","zzq9fap066","many_one","0","indirect_first","0","nn05er25","0","22","1","1","2","1","null","","","<div style=""font-size:60px;"">+</div>","null","","","","","","","","","",""
"","html-keyboard-response","248","606545","0.0-10.0-1.15","zzq9fap066","many_one","0","indirect_first","0","nn05er25","0","22","1","1","2","1","null","","","<img src = 'category1/GS3.png' width = '100%;'>","null","","","","","","","","","",""
"","html-keyboard-response","249","606825","0.0-10.0-2.15","zzq9fap066","many_one","0","indirect_first","0","nn05er25","0","22","1","1","2","1","null","","","<img src = 'targets/38.png' width = '100%;'>","null","","","","","","","","","",""
"","html-keyboard-response","250","610190","0.0-10.0-3.15","zzq9fap066","many_one","0","indirect_first","0","nn05er25","0","22","1","1","2","1","3362","","","<img src = 'targets/mask.png' width = '100%;'>","68","neg","GS","GSnew","1","category1/GS3.png","targets/38.png","0","indirect","39",""
"","html-keyboard-response","251","611715","0.0-10.0-0.16","zzq9fap066","many_one","0","indirect_first","0","nn05er25","0","22","1","1","2","1","null","","","<div style=""font-size:60px;"">+</div>","null","","","","","","","","","",""
"","html-keyboard-response","252","611815","0.0-10.0-1.16","zzq9fap066","many_one","0","indirect_first","0","nn05er25","0","22","1","1","2","1","null","","","<img src = 'category3/CS4.png' width = '100%;'>","null","","","","","","","","","",""
"","html-keyboard-response","253","612090","0.0-10.0-2.16","zzq9fap066","many_one","0","indirect_first","0","nn05er25","0","22","1","1","2","1","null","","","<img src = 'targets/46.png' width = '100%;'>","null","","","","","","","","","",""
"","html-keyboard-response","254","612701","0.0-10.0-3.16","zzq9fap066","many_one","0","indirect_first","0","nn05er25","0","22","1","1","2","1","610","","","<img src = 'targets/mask.png' width = '100%;'>","75","pos","GS","GSold","3","category3/CS4.png","targets/46.png","1","indirect","40",""
"","html-keyboard-response","255","614215","0.0-10.0-0.17","zzq9fap066","many_one","0","indirect_first","0","nn05er25","0","22","1","1","2","1","null","","","<div style=""font-size:60px;"">+</div>","null","","","","","","","","","",""
"","html-keyboard-response","256","614314","0.0-10.0-1.17","zzq9fap066","many_one","0","indirect_first","0","nn05er25","0","22","1","1","2","1","null","","","<img src = 'category3/GS1.png' width = '100%;'>","null","","","","","","","","","",""
"","html-keyboard-response","257","614595","0.0-10.0-2.17","zzq9fap066","many_one","0","indirect_first","0","nn05er25","0","22","1","1","2","1","null","","","<img src = 'targets/4.png' width = '100%;'>","null","","","","","","","","","",""
"","html-keyboard-response","258","615765","0.0-10.0-3.17","zzq9fap066","many_one","0","indirect_first","0","nn05er25","0","22","1","1","2","1","1169","","","<img src = 'targets/mask.png' width = '100%;'>","68","pos","GS","GSnew","3","category3/GS1.png","targets/4.png","0","indirect","41",""
"","html-keyboard-response","259","617295","0.0-10.0-0.18","zzq9fap066","many_one","0","indirect_first","0","nn05er25","0","22","1","1","2","1","null","","","<div style=""font-size:60px;"">+</div>","null","","","","","","","","","",""
"","html-keyboard-response","260","617395","0.0-10.0-1.18","zzq9fap066","many_one","0","indirect_first","0","nn05er25","0","22","1","1","2","1","null","","","<img src = 'category1/CS10.png' width = '100%;'>","null","","","","","","","","","",""
"","html-keyboard-response","261","617675","0.0-10.0-2.18","zzq9fap066","many_one","0","indirect_first","0","nn05er25","0","22","1","1","2","1","null","","","<img src = 'targets/20.png' width = '100%;'>","null","","","","","","","","","",""
"","html-keyboard-response","262","619372","0.0-10.0-3.18","zzq9fap066","many_one","0","indirect_first","0","nn05er25","0","22","1","1","2","1","1697","","","<img src = 'targets/mask.png' width = '100%;'>","68","neg","GS","GSold","1","category1/CS10.png","targets/20.png","0","indirect","42",""
"","html-keyboard-response","263","620895","0.0-10.0-0.19","zzq9fap066","many_one","0","indirect_first","0","nn05er25","0","22","1","1","2","1","null","","","<div style=""font-size:60px;"">+</div>","null","","","","","","","","","",""
"","html-keyboard-response","264","620994","0.0-10.0-1.19","zzq9fap066","many_one","0","indirect_first","0","nn05er25","0","22","1","1","2","1","null","","","<img src = 'category3/GS3.png' width = '100%;'>","null","","","","","","","","","",""
"","html-keyboard-response","265","621274","0.0-10.0-2.19","zzq9fap066","many_one","0","indirect_first","0","nn05er25","0","22","1","1","2","1","null","","","<img src = 'targets/25.png' width = '100%;'>","null","","","","","","","","","",""
"","html-keyboard-response","266","621637","0.0-10.0-3.19","zzq9fap066","many_one","0","indirect_first","0","nn05er25","0","22","1","1","2","1","361","","","<img src = 'targets/mask.png' width = '100%;'>","75","pos","GS","GSnew","3","category3/GS3.png","targets/25.png","1","indirect","43",""
"","html-keyboard-response","267","623175","0.0-10.0-0.20","zzq9fap066","many_one","0","indirect_first","0","nn05er25","0","22","1","1","2","1","null","","","<div style=""font-size:60px;"">+</div>","null","","","","","","","","","",""
"","html-keyboard-response","268","623274","0.0-10.0-1.20","zzq9fap066","many_one","0","indirect_first","0","nn05er25","0","22","1","1","2","1","null","","","<img src = 'category4/CS3.png' width = '100%;'>","null","","","","","","","","","",""
"","html-keyboard-response","269","623554","0.0-10.0-2.20","zzq9fap066","many_one","0","indirect_first","0","nn05er25","0","22","1","1","2","1","null","","","<img src = 'targets/21.png' width = '100%;'>","null","","","","","","","","","",""
"","html-keyboard-response","270","625741","0.0-10.0-3.20","zzq9fap066","many_one","0","indirect_first","0","nn05er25","0","22","1","1","2","1","2184","","","<img src = 'targets/mask.png' width = '100%;'>","75","pos","GS","GSold","4","category4/CS3.png","targets/21.png","1","indirect","44",""
"","html-keyboard-response","271","627274","0.0-10.0-0.21","zzq9fap066","many_one","0","indirect_first","0","nn05er25","0","22","1","1","2","1","null","","","<div style=""font-size:60px;"">+</div>","null","","","","","","","","","",""
"","html-keyboard-response","272","627375","0.0-10.0-1.21","zzq9fap066","many_one","0","indirect_first","0","nn05er25","0","22","1","1","2","1","null","","","<img src = 'category4/GS3.png' width = '100%;'>","null","","","","","","","","","",""
"","html-keyboard-response","273","627654","0.0-10.0-2.21","zzq9fap066","many_one","0","indirect_first","0","nn05er25","0","22","1","1","2","1","null","","","<img src = 'targets/11.png' width = '100%;'>","null","","","","","","","","","",""
"","html-keyboard-response","274","628621","0.0-10.0-3.21","zzq9fap066","many_one","0","indirect_first","0","nn05er25","0","22","1","1","2","1","964","","","<img src = 'targets/mask.png' width = '100%;'>","68","pos","GS","GSnew","4","category4/GS3.png","targets/11.png","0","indirect","45",""
"","html-keyboard-response","275","630144","0.0-10.0-0.22","zzq9fap066","many_one","0","indirect_first","0","nn05er25","0","22","1","1","2","1","null","","","<div style=""font-size:60px;"">+</div>","null","","","","","","","","","",""
"","html-keyboard-response","276","630244","0.0-10.0-1.22","zzq9fap066","many_one","0","indirect_first","0","nn05er25","0","22","1","1","2","1","null","","","<img src = 'category2/GS1.png' width = '100%;'>","null","","","","","","","","","",""
"","html-keyboard-response","277","630525","0.0-10.0-2.22","zzq9fap066","many_one","0","indirect_first","0","nn05er25","0","22","1","1","2","1","null","","","<img src = 'targets/33.png' width = '100%;'>","null","","","","","","","","","",""
"","html-keyboard-response","278","631316","0.0-10.0-3.22","zzq9fap066","many_one","0","indirect_first","0","nn05er25","0","22","1","1","2","1","790","","","<img src = 'targets/mask.png' width = '100%;'>","68","neg","GS","GSnew","2","category2/GS1.png","targets/33.png","0","indirect","46",""
"","html-keyboard-response","279","632844","0.0-10.0-0.23","zzq9fap066","many_one","0","indirect_first","0","nn05er25","0","22","1","1","2","1","null","","","<div style=""font-size:60px;"">+</div>","null","","","","","","","","","",""
"","html-keyboard-response","280","632944","0.0-10.0-1.23","zzq9fap066","many_one","0","indirect_first","0","nn05er25","0","22","1","1","2","1","null","","","<img src = 'category2/GS2.png' width = '100%;'>","null","","","","","","","","","",""
"","html-keyboard-response","281","633224","0.0-10.0-2.23","zzq9fap066","many_one","0","indirect_first","0","nn05er25","0","22","1","1","2","1","null","","","<img src = 'targets/22.png' width = '100%;'>","null","","","","","","","","","",""
"","html-keyboard-response","282","635493","0.0-10.0-3.23","zzq9fap066","many_one","0","indirect_first","0","nn05er25","0","22","1","1","2","1","2267","","","<img src = 'targets/mask.png' width = '100%;'>","68","neg","GS","GSnew","2","category2/GS2.png","targets/22.png","0","indirect","47",""
"","survey-html-form","283","647155","0.0-11.0","zzq9fap066","many_one","0","indirect_first","0","nn05er25","0","22","1","1","2","1","11161","","{}","","","","","","","","","","","",""
"","image-slider-response","284","652786","0.0-12.0-0.0","zzq9fap066","many_one","0","indirect_first","0","nn05er25","0","22","1","1","2","1","3608","","","","","pos","GS","GSnew","3","category3/GS1.png","targets/4.png","","direct","","20"
"","image-slider-response","285","656378","0.0-12.0-0.1","zzq9fap066","many_one","0","indirect_first","0","nn05er25","0","22","1","1","2","1","3591","","","","","pos","GS","GSold","4","category4/CS3.png","targets/21.png","","direct","","-30"
"","image-slider-response","286","659890","0.0-12.0-0.2","zzq9fap066","many_one","0","indirect_first","0","nn05er25","0","22","1","1","2","1","3510","","","","","neg","GS","GSnew","2","category2/GS2.png","targets/22.png","","direct","","-32"
"","image-slider-response","287","663586","0.0-12.0-0.3","zzq9fap066","many_one","0","indirect_first","0","nn05er25","0","22","1","1","2","1","3694","","","","","neg","GS","GSnew","2","category2/GS1.png","targets/33.png","","direct","","-42"
"","image-slider-response","288","666290","0.0-12.0-0.4","zzq9fap066","many_one","0","indirect_first","0","nn05er25","0","22","1","1","2","1","2703","","","","","pos","CS","CS","3","category3/CS8.png","targets/30.png","","direct","","62"
"","image-slider-response","289","669810","0.0-12.0-0.5","zzq9fap066","many_one","0","indirect_first","0","nn05er25","0","22","1","1","2","1","3518","","","","","neg","GS","GSold","2","category2/CS3.png","targets/18.png","","direct","","-69"
"","image-slider-response","290","673410","0.0-12.0-0.6","zzq9fap066","many_one","0","indirect_first","0","nn05er25","0","22","1","1","2","1","3600","","","","","pos","CS","CS","4","category4/CS4.png","targets/12.png","","direct","","76"
"","image-slider-response","291","676914","0.0-12.0-0.7","zzq9fap066","many_one","0","indirect_first","0","nn05er25","0","22","1","1","2","1","3502","","","","","neg","GS","GSold","1","category1/CS6.png","targets/26.png","","direct","","-41"
"","image-slider-response","292","681842","0.0-12.0-0.8","zzq9fap066","many_one","0","indirect_first","0","nn05er25","0","22","1","1","2","1","4926","","","","","neg","CS","CS","1","category1/CS5.png","targets/14.png","","direct","","-74"
"","image-slider-response","293","685586","0.0-12.0-0.9","zzq9fap066","many_one","0","indirect_first","0","nn05er25","0","22","1","1","2","1","3742","","","","","neg","GS","abstract","1","category1/ma.png","targets/42.png","","direct","","4"
"","image-slider-response","294","689185","0.0-12.0-0.10","zzq9fap066","many_one","0","indirect_first","0","nn05er25","0","22","1","1","2","1","3598","","","","","neg","CS","CS","1","category1/CS1.png","targets/37.png","","direct","","-15"
"","image-slider-response","295","696242","0.0-12.0-0.11","zzq9fap066","many_one","0","indirect_first","0","nn05er25","0","22","1","1","2","1","7056","","","","","neg","CS","CS","1","category1/CS7.png","targets/9.png","","direct","","-22"
"","image-slider-response","296","701802","0.0-12.0-0.12","zzq9fap066","many_one","0","indirect_first","0","nn05er25","0","22","1","1","2","1","5558","","","","","neg","GS","GSnew","1","category1/GS2.png","targets/48.png","","direct","","-15"
"","image-slider-response","297","707225","0.0-12.0-0.13","zzq9fap066","many_one","0","indirect_first","0","nn05er25","0","22","1","1","2","1","5423","","","","","pos","CS","CS","4","category4/CS7.png","targets/17.png","","direct","","16"
"","image-slider-response","298","709681","0.0-12.0-0.14","zzq9fap066","many_one","0","indirect_first","0","nn05er25","0","22","1","1","2","1","2456","","","","","neg","GS","GSnew","2","category2/GS3.png","targets/31.png","","direct","","-17"
"","image-slider-response","299","715537","0.0-12.0-0.15","zzq9fap066","many_one","0","indirect_first","0","nn05er25","0","22","1","1","2","1","5855","","","","","pos","GS","GSnew","4","category4/GS2.png","targets/29.png","","direct","","-33"
"","image-slider-response","300","718417","0.0-12.0-0.16","zzq9fap066","many_one","0","indirect_first","0","nn05er25","0","22","1","1","2","1","2879","","","","","pos","CS","CS","3","category3/CS9.png","targets/16.png","","direct","","62"
"","image-slider-response","301","720809","0.0-12.0-0.17","zzq9fap066","many_one","0","indirect_first","0","nn05er25","0","22","1","1","2","1","2391","","","","","pos","CS","CS","3","category3/CS2.png","targets/3.png","","direct","","34"
"","image-slider-response","302","724377","0.0-12.0-0.18","zzq9fap066","many_one","0","indirect_first","0","nn05er25","0","22","1","1","2","1","3566","","","","","pos","CS","CS","4","category4/CS9.png","targets/47.png","","direct","","-5"
"","image-slider-response","303","726913","0.0-12.0-0.19","zzq9fap066","many_one","0","indirect_first","0","nn05er25","0","22","1","1","2","1","2535","","","","","pos","GS","GSold","3","category3/CS7.png","targets/7.png","","direct","","19"
"","image-slider-response","304","730417","0.0-12.0-0.20","zzq9fap066","many_one","0","indirect_first","0","nn05er25","0","22","1","1","2","1","3503","","","","","neg","CS","CS","2","category2/CS7.png","targets/36.png","","direct","","-47"
"","image-slider-response","305","734809","0.0-12.0-0.21","zzq9fap066","many_one","0","indirect_first","0","nn05er25","0","22","1","1","2","1","4392","","","","","pos","GS","GSold","4","category4/CS10.png","targets/23.png","","direct","","-11"
"","image-slider-response","306","738201","0.0-12.0-0.22","zzq9fap066","many_one","0","indirect_first","0","nn05er25","0","22","1","1","2","1","3392","","","","","neg","GS","GSold","2","category2/CS10.png","targets/5.png","","direct","","-71"
"","image-slider-response","307","742033","0.0-12.0-0.23","zzq9fap066","many_one","0","indirect_first","0","nn05er25","0","22","1","1","2","1","3830","","","","","pos","GS","abstract","4","category4/lin.png","targets/43.png","","direct","","-12"
"","image-slider-response","308","744297","0.0-12.0-0.24","zzq9fap066","many_one","0","indirect_first","0","nn05er25","0","22","1","1","2","1","2263","","","","","pos","GS","GSold","3","category3/CS10.png","targets/40.png","","direct","","24"
"","image-slider-response","309","746849","0.0-12.0-0.25","zzq9fap066","many_one","0","indirect_first","0","nn05er25","0","22","1","1","2","1","2550","","","","","neg","CS","CS","1","category1/CS2.png","targets/45.png","","direct","","-32"
"","image-slider-response","310","749177","0.0-12.0-0.26","zzq9fap066","many_one","0","indirect_first","0","nn05er25","0","22","1","1","2","1","2326","","","","","neg","CS","CS","2","category2/CS8.png","targets/35.png","","direct","","-46"
"","image-slider-response","311","752249","0.0-12.0-0.27","zzq9fap066","many_one","0","indirect_first","0","nn05er25","0","22","1","1","2","1","3071","","","","","neg","GS","GSold","1","category1/CS4.png","targets/6.png","","direct","","-25"
"","image-slider-response","312","754369","0.0-12.0-0.28","zzq9fap066","many_one","0","indirect_first","0","nn05er25","0","22","1","1","2","1","2118","","","","","pos","CS","CS","4","category4/CS6.png","targets/10.png","","direct","","-10"
"","image-slider-response","313","757265","0.0-12.0-0.29","zzq9fap066","many_one","0","indirect_first","0","nn05er25","0","22","1","1","2","1","2895","","","","","pos","CS","CS","3","category3/CS1.png","targets/24.png","","direct","","31"
"","image-slider-response","314","759953","0.0-12.0-0.30","zzq9fap066","many_one","0","indirect_first","0","nn05er25","0","22","1","1","2","1","2687","","","","","neg","GS","GSnew","1","category1/GS1.png","targets/1.png","","direct","","-18"
"","image-slider-response","315","762889","0.0-12.0-0.31","zzq9fap066","many_one","0","indirect_first","0","nn05er25","0","22","1","1","2","1","2935","","","","","neg","CS","CS","2","category2/CS5.png","targets/13.png","","direct","","-37"
"","image-slider-response","316","765921","0.0-12.0-0.32","zzq9fap066","many_one","0","indirect_first","0","nn05er25","0","22","1","1","2","1","3030","","","","","neg","GS","GSnew","1","category1/GS3.png","targets/38.png","","direct","","-9"
"","image-slider-response","317","769201","0.0-12.0-0.33","zzq9fap066","many_one","0","indirect_first","0","nn05er25","0","22","1","1","2","1","3278","","","","","neg","CS","CS","2","category2/CS1.png","targets/15.png","","direct","","-57"
"","image-slider-response","318","772433","0.0-12.0-0.34","zzq9fap066","many_one","0","indirect_first","0","nn05er25","0","22","1","1","2","1","3230","","","","","pos","GS","GSold","4","category4/CS8.png","targets/41.png","","direct","","-22"
"","image-slider-response","319","775882","0.0-12.0-0.35","zzq9fap066","many_one","0","indirect_first","0","nn05er25","0","22","1","1","2","1","3446","","","","","neg","GS","abstract","2","category2/men.png","targets/8.png","","direct","","-28"
"","image-slider-response","320","779649","0.0-12.0-0.36","zzq9fap066","many_one","0","indirect_first","0","nn05er25","0","22","1","1","2","1","3767","","","","","pos","GS","GSnew","3","category3/GS2.png","targets/32.png","","direct","","15"
"","image-slider-response","321","783833","0.0-12.0-0.37","zzq9fap066","many_one","0","indirect_first","0","nn05er25","0","22","1","1","2","1","4183","","","","","pos","GS","GSold","3","category3/CS4.png","targets/46.png","","direct","","38"
"","image-slider-response","322","788697","0.0-12.0-0.38","zzq9fap066","many_one","0","indirect_first","0","nn05er25","0","22","1","1","2","1","4862","","","","","pos","CS","CS","4","category4/CS5.png","targets/34.png","","direct","","47"
"","image-slider-response","323","792217","0.0-12.0-0.39","zzq9fap066","many_one","0","indirect_first","0","nn05er25","0","22","1","1","2","1","3518","","","","","neg","CS","CS","2","category2/CS9.png","targets/27.png","","direct","","-77"
"","image-slider-response","324","795769","0.0-12.0-0.40","zzq9fap066","many_one","0","indirect_first","0","nn05er25","0","22","1","1","2","1","3551","","","","","neg","GS","GSold","1","category1/CS10.png","targets/20.png","","direct","","-11"
"","image-slider-response","325","799065","0.0-12.0-0.41","zzq9fap066","many_one","0","indirect_first","0","nn05er25","0","22","1","1","2","1","3295","","","","","pos","GS","GSnew","4","category4/GS1.png","targets/39.png","","direct","","-37"
"","image-slider-response","326","801873","0.0-12.0-0.42","zzq9fap066","many_one","0","indirect_first","0","nn05er25","0","22","1","1","2","1","2806","","","","","neg","GS","GSold","2","category2/CS2.png","targets/44.png","","direct","","-50"
"","image-slider-response","327","805250","0.0-12.0-0.43","zzq9fap066","many_one","0","indirect_first","0","nn05er25","0","22","1","1","2","1","3374","","","","","neg","CS","CS","1","category1/CS3.png","targets/28.png","","direct","","-63"
"","image-slider-response","328","808241","0.0-12.0-0.44","zzq9fap066","many_one","0","indirect_first","0","nn05er25","0","22","1","1","2","1","2990","","","","","pos","CS","CS","3","category3/CS5.png","targets/19.png","","direct","","69"
"","image-slider-response","329","810553","0.0-12.0-0.45","zzq9fap066","many_one","0","indirect_first","0","nn05er25","0","22","1","1","2","1","2310","","","","","pos","GS","abstract","3","category3/wang.png","targets/2.png","","direct","","44"
"","image-slider-response","330","813481","0.0-12.0-0.46","zzq9fap066","many_one","0","indirect_first","0","nn05er25","0","22","1","1","2","1","2928","","","","","pos","GS","GSnew","3","category3/GS3.png","targets/25.png","","direct","","33"
"","image-slider-response","331","816770","0.0-12.0-0.47","zzq9fap066","many_one","0","indirect_first","0","nn05er25","0","22","1","1","2","1","3287","","","","","pos","GS","GSnew","4","category4/GS3.png","targets/11.png","","direct","","-46"
"","survey-html-form","332","824930","0.0-13.0","zzq9fap066","many_one","0","indirect_first","0","nn05er25","0","22","1","1","2","1","8160","","{}","","","","","","","","","","","",""
"","image-slider-response","333","829057","0.0-14.0-0.0","zzq9fap066","many_one","0","indirect_first","0","nn05er25","0","22","1","1","2","1","3121","","","","","pos","All","all","3","category3/wang_all.png","","","all","","31"
"","image-slider-response","334","831689","0.0-14.0-0.1","zzq9fap066","many_one","0","indirect_first","0","nn05er25","0","22","1","1","2","1","2632","","","","","neg","All","all","2","category2/men_all.png","","","all","","-78"
"","image-slider-response","335","834386","0.0-14.0-0.2","zzq9fap066","many_one","0","indirect_first","0","nn05er25","0","22","1","1","2","1","2694","","","","","neg","All","all","1","category1/ma_all.png","","","all","","-21"
"","image-slider-response","336","837722","0.0-14.0-0.3","zzq9fap066","many_one","0","indirect_first","0","nn05er25","0","22","1","1","2","1","3334","","","","","pos","All","all","4","category4/lin_all.png","","","all","","-13"
"","survey-text","337","926354","0.0-15.0","zzq9fap066","many_one","0","indirect_first","0","nn05er25","0","22","1","1","2","1","88630","","{""Q0"":""Es war schwer, mich im ersten Teil mehr auf die Silben zu konzentrieren als auf die Symbole""}","","","","","","","","","","","",""
