"success","trial_type","trial_index","time_elapsed","internal_node_id","subject","condition","condition_code","measure","measure_code","codeword","gender","age","education","chinese","fach","handedness","comment","hinschauen","ablenkung","gewissenhaft","rt","url","responses","stimulus","key_press","val","type","type_specific","category","cs_selected","target","indirect","task","nr_pres","response"
"true","fullscreen","0","545034","0.0-0.0","oa2sems4m5","one_one","1","indirect_first","0","ck06nd02","1","22","1","1","3","1","","0","1","0","","","","","","","","","","","","","","",""
"","external-html","1","592678","0.0-1.0","oa2sems4m5","one_one","1","indirect_first","0","ck06nd02","1","22","1","1","3","1","","0","1","0","47527.115000004414","text/information.html","","","","","","","","","","","","",""
"","external-html","2","609029","0.0-2.0","oa2sems4m5","one_one","1","indirect_first","0","ck06nd02","1","22","1","1","3","1","","0","1","0","16208.180000001448","text/consent.html","","","","","","","","","","","","",""
"","survey-html-form","3","692082","0.0-3.0","oa2sems4m5","one_one","1","indirect_first","0","ck06nd02","1","22","1","1","3","1","","0","1","0","83049.40499999793","","{""codeword_enter"":""ck06nd02""}","","","","","","","","","","","",""
"","survey-html-form","4","709003","0.0-4.0","oa2sems4m5","one_one","1","indirect_first","0","ck06nd02","1","22","1","1","3","1","","0","1","0","16914.41999998642","","{""age"":""22"",""education"":""1"",""subject"":""3"",""gender"":""1"",""handedness"":""1"",""chinese"":""1""}","","","","","","","","","","","",""
"","survey-html-form","5","726604","0.0-5.0","oa2sems4m5","one_one","1","indirect_first","0","ck06nd02","1","22","1","1","3","1","","0","1","0","17597.09500000463","","{}","","","","","","","","","","","",""
"","html-keyboard-response","6","730609","0.0-6.0-0.0-0.0","oa2sems4m5","one_one","1","indirect_first","0","ck06nd02","1","22","1","1","3","1","","0","1","0","null","","","<div class = 'row'><div class = 'column'><img src = 'usneg/9920.bmp' width = '100%;'></div><div class = 'column'><img src = 'category3/CS4.png' width = '70%;'></div></div>","null","neg","CS","CS","3","category3/CS4.png","","","","",""
"","html-keyboard-response","7","733112","0.0-6.0-0.0-0.1","oa2sems4m5","one_one","1","indirect_first","0","ck06nd02","1","22","1","1","3","1","","0","1","0","null","","","<div class = 'row'><div class = 'column'><img src = 'uspos/1440.bmp' width = '100%;'></div><div class = 'column'><img src = 'category1/CS6.png' width = '70%;'></div></div>","null","pos","CS","CS","1","category1/CS6.png","","","","",""
"","html-keyboard-response","8","735614","0.0-6.0-0.0-0.2","oa2sems4m5","one_one","1","indirect_first","0","ck06nd02","1","22","1","1","3","1","","0","1","0","null","","","<div class = 'row'><div class = 'column'><img src = 'category4/CS3.png' width = '70%;'></div><div class = 'column'><img src = 'usneg/9050.bmp' width = '100%;'></div></div>","null","neg","CS","CS","4","category4/CS3.png","","","","",""
"","html-keyboard-response","9","738132","0.0-6.0-0.0-0.3","oa2sems4m5","one_one","1","indirect_first","0","ck06nd02","1","22","1","1","3","1","","0","1","0","null","","","<div class = 'row'><div class = 'column'><img src = 'uspos/1440.bmp' width = '100%;'></div><div class = 'column'><img src = 'category1/CS6.png' width = '70%;'></div></div>","null","pos","CS","CS","1","category1/CS6.png","","","","",""
"","html-keyboard-response","10","740636","0.0-6.0-0.0-0.4","oa2sems4m5","one_one","1","indirect_first","0","ck06nd02","1","22","1","1","3","1","","0","1","0","null","","","<div class = 'row'><div class = 'column'><img src = 'uspos/5600.bmp' width = '100%;'></div><div class = 'column'><img src = 'category2/CS7.png' width = '70%;'></div></div>","null","pos","CS","CS","2","category2/CS7.png","","","","",""
"","html-keyboard-response","11","743138","0.0-6.0-0.0-0.5","oa2sems4m5","one_one","1","indirect_first","0","ck06nd02","1","22","1","1","3","1","","0","1","0","null","","","<div class = 'row'><div class = 'column'><img src = 'usneg/9920.bmp' width = '100%;'></div><div class = 'column'><img src = 'category3/CS4.png' width = '70%;'></div></div>","null","neg","CS","CS","3","category3/CS4.png","","","","",""
"","html-keyboard-response","12","745640","0.0-6.0-0.0-0.6","oa2sems4m5","one_one","1","indirect_first","0","ck06nd02","1","22","1","1","3","1","","0","1","0","null","","","<div class = 'row'><div class = 'column'><img src = 'uspos/1440.bmp' width = '100%;'></div><div class = 'column'><img src = 'category1/CS6.png' width = '70%;'></div></div>","null","pos","CS","CS","1","category1/CS6.png","","","","",""
"","html-keyboard-response","13","748143","0.0-6.0-0.0-0.7","oa2sems4m5","one_one","1","indirect_first","0","ck06nd02","1","22","1","1","3","1","","0","1","0","null","","","<div class = 'row'><div class = 'column'><img src = 'uspos/5600.bmp' width = '100%;'></div><div class = 'column'><img src = 'category2/CS7.png' width = '70%;'></div></div>","null","pos","CS","CS","2","category2/CS7.png","","","","",""
"","html-keyboard-response","14","750645","0.0-6.0-0.0-0.8","oa2sems4m5","one_one","1","indirect_first","0","ck06nd02","1","22","1","1","3","1","","0","1","0","null","","","<div class = 'row'><div class = 'column'><img src = 'uspos/1440.bmp' width = '100%;'></div><div class = 'column'><img src = 'category1/CS6.png' width = '70%;'></div></div>","null","pos","CS","CS","1","category1/CS6.png","","","","",""
"","html-keyboard-response","15","753148","0.0-6.0-0.0-0.9","oa2sems4m5","one_one","1","indirect_first","0","ck06nd02","1","22","1","1","3","1","","0","1","0","null","","","<div class = 'row'><div class = 'column'><img src = 'category3/CS4.png' width = '70%;'></div><div class = 'column'><img src = 'usneg/9920.bmp' width = '100%;'></div></div>","null","neg","CS","CS","3","category3/CS4.png","","","","",""
"","html-keyboard-response","16","755664","0.0-6.0-0.0-0.10","oa2sems4m5","one_one","1","indirect_first","0","ck06nd02","1","22","1","1","3","1","","0","1","0","null","","","<div class = 'row'><div class = 'column'><img src = 'category4/CS3.png' width = '70%;'></div><div class = 'column'><img src = 'usneg/9050.bmp' width = '100%;'></div></div>","null","neg","CS","CS","4","category4/CS3.png","","","","",""
"","html-keyboard-response","17","758175","0.0-6.0-0.0-0.11","oa2sems4m5","one_one","1","indirect_first","0","ck06nd02","1","22","1","1","3","1","","0","1","0","null","","","<div class = 'row'><div class = 'column'><img src = 'usneg/9920.bmp' width = '100%;'></div><div class = 'column'><img src = 'category3/CS4.png' width = '70%;'></div></div>","null","neg","CS","CS","3","category3/CS4.png","","","","",""
"","html-keyboard-response","18","760676","0.0-6.0-0.0-0.12","oa2sems4m5","one_one","1","indirect_first","0","ck06nd02","1","22","1","1","3","1","","0","1","0","null","","","<div class = 'row'><div class = 'column'><img src = 'uspos/1440.bmp' width = '100%;'></div><div class = 'column'><img src = 'category1/CS6.png' width = '70%;'></div></div>","null","pos","CS","CS","1","category1/CS6.png","","","","",""
"","html-keyboard-response","19","763178","0.0-6.0-0.0-0.13","oa2sems4m5","one_one","1","indirect_first","0","ck06nd02","1","22","1","1","3","1","","0","1","0","null","","","<div class = 'row'><div class = 'column'><img src = 'category3/CS4.png' width = '70%;'></div><div class = 'column'><img src = 'usneg/9920.bmp' width = '100%;'></div></div>","null","neg","CS","CS","3","category3/CS4.png","","","","",""
"","html-keyboard-response","20","765680","0.0-6.0-0.0-0.14","oa2sems4m5","one_one","1","indirect_first","0","ck06nd02","1","22","1","1","3","1","","0","1","0","null","","","<div class = 'row'><div class = 'column'><img src = 'usneg/9050.bmp' width = '100%;'></div><div class = 'column'><img src = 'category4/CS3.png' width = '70%;'></div></div>","null","neg","CS","CS","4","category4/CS3.png","","","","",""
"","html-keyboard-response","21","768184","0.0-6.0-0.0-0.15","oa2sems4m5","one_one","1","indirect_first","0","ck06nd02","1","22","1","1","3","1","","0","1","0","null","","","<div class = 'row'><div class = 'column'><img src = 'uspos/5600.bmp' width = '100%;'></div><div class = 'column'><img src = 'category2/CS7.png' width = '70%;'></div></div>","null","pos","CS","CS","2","category2/CS7.png","","","","",""
"","html-keyboard-response","22","770687","0.0-6.0-0.0-0.16","oa2sems4m5","one_one","1","indirect_first","0","ck06nd02","1","22","1","1","3","1","","0","1","0","null","","","<div class = 'row'><div class = 'column'><img src = 'usneg/9050.bmp' width = '100%;'></div><div class = 'column'><img src = 'category4/CS3.png' width = '70%;'></div></div>","null","neg","CS","CS","4","category4/CS3.png","","","","",""
"","html-keyboard-response","23","773190","0.0-6.0-0.0-0.17","oa2sems4m5","one_one","1","indirect_first","0","ck06nd02","1","22","1","1","3","1","","0","1","0","null","","","<div class = 'row'><div class = 'column'><img src = 'category2/CS7.png' width = '70%;'></div><div class = 'column'><img src = 'uspos/5600.bmp' width = '100%;'></div></div>","null","pos","CS","CS","2","category2/CS7.png","","","","",""
"","html-keyboard-response","24","775692","0.0-6.0-0.0-0.18","oa2sems4m5","one_one","1","indirect_first","0","ck06nd02","1","22","1","1","3","1","","0","1","0","null","","","<div class = 'row'><div class = 'column'><img src = 'usneg/9050.bmp' width = '100%;'></div><div class = 'column'><img src = 'category4/CS3.png' width = '70%;'></div></div>","null","neg","CS","CS","4","category4/CS3.png","","","","",""
"","html-keyboard-response","25","778194","0.0-6.0-0.0-0.19","oa2sems4m5","one_one","1","indirect_first","0","ck06nd02","1","22","1","1","3","1","","0","1","0","null","","","<div class = 'row'><div class = 'column'><img src = 'category2/CS7.png' width = '70%;'></div><div class = 'column'><img src = 'uspos/5600.bmp' width = '100%;'></div></div>","null","pos","CS","CS","2","category2/CS7.png","","","","",""
"","survey-html-form","26","782022","0.0-6.0-1.0","oa2sems4m5","one_one","1","indirect_first","0","ck06nd02","1","22","1","1","3","1","","0","1","0","3326.6900000016904","","{}","","","","","","","","","","","",""
"","html-keyboard-response","27","786026","0.0-6.0-2.0-0.0","oa2sems4m5","one_one","1","indirect_first","0","ck06nd02","1","22","1","1","3","1","","0","1","0","null","","","<div class = 'row'><div class = 'column'><img src = 'category4/CS3.png' width = '70%;'></div><div class = 'column'><img src = 'usneg/9050.bmp' width = '100%;'></div></div>","null","neg","CS","CS","4","category4/CS3.png","","","","",""
"","html-keyboard-response","28","788528","0.0-6.0-2.0-0.1","oa2sems4m5","one_one","1","indirect_first","0","ck06nd02","1","22","1","1","3","1","","0","1","0","null","","","<div class = 'row'><div class = 'column'><img src = 'usneg/9920.bmp' width = '100%;'></div><div class = 'column'><img src = 'category3/CS4.png' width = '70%;'></div></div>","null","neg","CS","CS","3","category3/CS4.png","","","","",""
"","html-keyboard-response","29","791030","0.0-6.0-2.0-0.2","oa2sems4m5","one_one","1","indirect_first","0","ck06nd02","1","22","1","1","3","1","","0","1","0","null","","","<div class = 'row'><div class = 'column'><img src = 'usneg/9050.bmp' width = '100%;'></div><div class = 'column'><img src = 'category4/CS3.png' width = '70%;'></div></div>","null","neg","CS","CS","4","category4/CS3.png","","","","",""
"","html-keyboard-response","30","793534","0.0-6.0-2.0-0.3","oa2sems4m5","one_one","1","indirect_first","0","ck06nd02","1","22","1","1","3","1","","0","1","0","null","","","<div class = 'row'><div class = 'column'><img src = 'uspos/1440.bmp' width = '100%;'></div><div class = 'column'><img src = 'category1/CS6.png' width = '70%;'></div></div>","null","pos","CS","CS","1","category1/CS6.png","","","","",""
"","html-keyboard-response","31","796036","0.0-6.0-2.0-0.4","oa2sems4m5","one_one","1","indirect_first","0","ck06nd02","1","22","1","1","3","1","","0","1","0","null","","","<div class = 'row'><div class = 'column'><img src = 'category2/CS7.png' width = '70%;'></div><div class = 'column'><img src = 'uspos/5600.bmp' width = '100%;'></div></div>","null","pos","CS","CS","2","category2/CS7.png","","","","",""
"","html-keyboard-response","32","798538","0.0-6.0-2.0-0.5","oa2sems4m5","one_one","1","indirect_first","0","ck06nd02","1","22","1","1","3","1","","0","1","0","null","","","<div class = 'row'><div class = 'column'><img src = 'usneg/9920.bmp' width = '100%;'></div><div class = 'column'><img src = 'category3/CS4.png' width = '70%;'></div></div>","null","neg","CS","CS","3","category3/CS4.png","","","","",""
"","html-keyboard-response","33","801040","0.0-6.0-2.0-0.6","oa2sems4m5","one_one","1","indirect_first","0","ck06nd02","1","22","1","1","3","1","","0","1","0","null","","","<div class = 'row'><div class = 'column'><img src = 'uspos/5600.bmp' width = '100%;'></div><div class = 'column'><img src = 'category2/CS7.png' width = '70%;'></div></div>","null","pos","CS","CS","2","category2/CS7.png","","","","",""
"","html-keyboard-response","34","803543","0.0-6.0-2.0-0.7","oa2sems4m5","one_one","1","indirect_first","0","ck06nd02","1","22","1","1","3","1","","0","1","0","null","","","<div class = 'row'><div class = 'column'><img src = 'category4/CS3.png' width = '70%;'></div><div class = 'column'><img src = 'usneg/9050.bmp' width = '100%;'></div></div>","null","neg","CS","CS","4","category4/CS3.png","","","","",""
"","html-keyboard-response","35","806046","0.0-6.0-2.0-0.8","oa2sems4m5","one_one","1","indirect_first","0","ck06nd02","1","22","1","1","3","1","","0","1","0","null","","","<div class = 'row'><div class = 'column'><img src = 'uspos/1440.bmp' width = '100%;'></div><div class = 'column'><img src = 'category1/CS6.png' width = '70%;'></div></div>","null","pos","CS","CS","1","category1/CS6.png","","","","",""
"","html-keyboard-response","36","808549","0.0-6.0-2.0-0.9","oa2sems4m5","one_one","1","indirect_first","0","ck06nd02","1","22","1","1","3","1","","0","1","0","null","","","<div class = 'row'><div class = 'column'><img src = 'uspos/5600.bmp' width = '100%;'></div><div class = 'column'><img src = 'category2/CS7.png' width = '70%;'></div></div>","null","pos","CS","CS","2","category2/CS7.png","","","","",""
"","html-keyboard-response","37","811052","0.0-6.0-2.0-0.10","oa2sems4m5","one_one","1","indirect_first","0","ck06nd02","1","22","1","1","3","1","","0","1","0","null","","","<div class = 'row'><div class = 'column'><img src = 'uspos/1440.bmp' width = '100%;'></div><div class = 'column'><img src = 'category1/CS6.png' width = '70%;'></div></div>","null","pos","CS","CS","1","category1/CS6.png","","","","",""
"","html-keyboard-response","38","813555","0.0-6.0-2.0-0.11","oa2sems4m5","one_one","1","indirect_first","0","ck06nd02","1","22","1","1","3","1","","0","1","0","null","","","<div class = 'row'><div class = 'column'><img src = 'usneg/9920.bmp' width = '100%;'></div><div class = 'column'><img src = 'category3/CS4.png' width = '70%;'></div></div>","null","neg","CS","CS","3","category3/CS4.png","","","","",""
"","html-keyboard-response","39","816057","0.0-6.0-2.0-0.12","oa2sems4m5","one_one","1","indirect_first","0","ck06nd02","1","22","1","1","3","1","","0","1","0","null","","","<div class = 'row'><div class = 'column'><img src = 'category2/CS7.png' width = '70%;'></div><div class = 'column'><img src = 'uspos/5600.bmp' width = '100%;'></div></div>","null","pos","CS","CS","2","category2/CS7.png","","","","",""
"","html-keyboard-response","40","818560","0.0-6.0-2.0-0.13","oa2sems4m5","one_one","1","indirect_first","0","ck06nd02","1","22","1","1","3","1","","0","1","0","null","","","<div class = 'row'><div class = 'column'><img src = 'category3/CS4.png' width = '70%;'></div><div class = 'column'><img src = 'usneg/9920.bmp' width = '100%;'></div></div>","null","neg","CS","CS","3","category3/CS4.png","","","","",""
"","html-keyboard-response","41","821062","0.0-6.0-2.0-0.14","oa2sems4m5","one_one","1","indirect_first","0","ck06nd02","1","22","1","1","3","1","","0","1","0","null","","","<div class = 'row'><div class = 'column'><img src = 'uspos/1440.bmp' width = '100%;'></div><div class = 'column'><img src = 'category1/CS6.png' width = '70%;'></div></div>","null","pos","CS","CS","1","category1/CS6.png","","","","",""
"","html-keyboard-response","42","823564","0.0-6.0-2.0-0.15","oa2sems4m5","one_one","1","indirect_first","0","ck06nd02","1","22","1","1","3","1","","0","1","0","null","","","<div class = 'row'><div class = 'column'><img src = 'category3/CS4.png' width = '70%;'></div><div class = 'column'><img src = 'usneg/9920.bmp' width = '100%;'></div></div>","null","neg","CS","CS","3","category3/CS4.png","","","","",""
"","html-keyboard-response","43","826066","0.0-6.0-2.0-0.16","oa2sems4m5","one_one","1","indirect_first","0","ck06nd02","1","22","1","1","3","1","","0","1","0","null","","","<div class = 'row'><div class = 'column'><img src = 'category2/CS7.png' width = '70%;'></div><div class = 'column'><img src = 'uspos/5600.bmp' width = '100%;'></div></div>","null","pos","CS","CS","2","category2/CS7.png","","","","",""
"","html-keyboard-response","44","828568","0.0-6.0-2.0-0.17","oa2sems4m5","one_one","1","indirect_first","0","ck06nd02","1","22","1","1","3","1","","0","1","0","null","","","<div class = 'row'><div class = 'column'><img src = 'usneg/9050.bmp' width = '100%;'></div><div class = 'column'><img src = 'category4/CS3.png' width = '70%;'></div></div>","null","neg","CS","CS","4","category4/CS3.png","","","","",""
"","html-keyboard-response","45","831071","0.0-6.0-2.0-0.18","oa2sems4m5","one_one","1","indirect_first","0","ck06nd02","1","22","1","1","3","1","","0","1","0","null","","","<div class = 'row'><div class = 'column'><img src = 'uspos/1440.bmp' width = '100%;'></div><div class = 'column'><img src = 'category1/CS6.png' width = '70%;'></div></div>","null","pos","CS","CS","1","category1/CS6.png","","","","",""
"","html-keyboard-response","46","833574","0.0-6.0-2.0-0.19","oa2sems4m5","one_one","1","indirect_first","0","ck06nd02","1","22","1","1","3","1","","0","1","0","null","","","<div class = 'row'><div class = 'column'><img src = 'category4/CS3.png' width = '70%;'></div><div class = 'column'><img src = 'usneg/9050.bmp' width = '100%;'></div></div>","null","neg","CS","CS","4","category4/CS3.png","","","","",""
"","survey-html-form","47","843412","0.0-6.0-3.0","oa2sems4m5","one_one","1","indirect_first","0","ck06nd02","1","22","1","1","3","1","","0","1","0","9336.385000002338","","{}","","","","","","","","","","","",""
"","html-keyboard-response","48","847415","0.0-6.0-4.0-0.0","oa2sems4m5","one_one","1","indirect_first","0","ck06nd02","1","22","1","1","3","1","","0","1","0","null","","","<div class = 'row'><div class = 'column'><img src = 'uspos/1440.bmp' width = '100%;'></div><div class = 'column'><img src = 'category1/CS6.png' width = '70%;'></div></div>","null","pos","CS","CS","1","category1/CS6.png","","","","",""
"","html-keyboard-response","49","849918","0.0-6.0-4.0-0.1","oa2sems4m5","one_one","1","indirect_first","0","ck06nd02","1","22","1","1","3","1","","0","1","0","null","","","<div class = 'row'><div class = 'column'><img src = 'usneg/9050.bmp' width = '100%;'></div><div class = 'column'><img src = 'category4/CS3.png' width = '70%;'></div></div>","null","neg","CS","CS","4","category4/CS3.png","","","","",""
"","html-keyboard-response","50","852421","0.0-6.0-4.0-0.2","oa2sems4m5","one_one","1","indirect_first","0","ck06nd02","1","22","1","1","3","1","","0","1","0","null","","","<div class = 'row'><div class = 'column'><img src = 'category2/CS7.png' width = '70%;'></div><div class = 'column'><img src = 'uspos/5600.bmp' width = '100%;'></div></div>","null","pos","CS","CS","2","category2/CS7.png","","","","",""
"","html-keyboard-response","51","854923","0.0-6.0-4.0-0.3","oa2sems4m5","one_one","1","indirect_first","0","ck06nd02","1","22","1","1","3","1","","0","1","0","null","","","<div class = 'row'><div class = 'column'><img src = 'category3/CS4.png' width = '70%;'></div><div class = 'column'><img src = 'usneg/9920.bmp' width = '100%;'></div></div>","null","neg","CS","CS","3","category3/CS4.png","","","","",""
"","html-keyboard-response","52","857426","0.0-6.0-4.0-0.4","oa2sems4m5","one_one","1","indirect_first","0","ck06nd02","1","22","1","1","3","1","","0","1","0","null","","","<div class = 'row'><div class = 'column'><img src = 'uspos/1440.bmp' width = '100%;'></div><div class = 'column'><img src = 'category1/CS6.png' width = '70%;'></div></div>","null","pos","CS","CS","1","category1/CS6.png","","","","",""
"","html-keyboard-response","53","859929","0.0-6.0-4.0-0.5","oa2sems4m5","one_one","1","indirect_first","0","ck06nd02","1","22","1","1","3","1","","0","1","0","null","","","<div class = 'row'><div class = 'column'><img src = 'usneg/9050.bmp' width = '100%;'></div><div class = 'column'><img src = 'category4/CS3.png' width = '70%;'></div></div>","null","neg","CS","CS","4","category4/CS3.png","","","","",""
"","html-keyboard-response","54","862430","0.0-6.0-4.0-0.6","oa2sems4m5","one_one","1","indirect_first","0","ck06nd02","1","22","1","1","3","1","","0","1","0","null","","","<div class = 'row'><div class = 'column'><img src = 'category2/CS7.png' width = '70%;'></div><div class = 'column'><img src = 'uspos/5600.bmp' width = '100%;'></div></div>","null","pos","CS","CS","2","category2/CS7.png","","","","",""
"","html-keyboard-response","55","864933","0.0-6.0-4.0-0.7","oa2sems4m5","one_one","1","indirect_first","0","ck06nd02","1","22","1","1","3","1","","0","1","0","null","","","<div class = 'row'><div class = 'column'><img src = 'usneg/9050.bmp' width = '100%;'></div><div class = 'column'><img src = 'category4/CS3.png' width = '70%;'></div></div>","null","neg","CS","CS","4","category4/CS3.png","","","","",""
"","html-keyboard-response","56","867435","0.0-6.0-4.0-0.8","oa2sems4m5","one_one","1","indirect_first","0","ck06nd02","1","22","1","1","3","1","","0","1","0","null","","","<div class = 'row'><div class = 'column'><img src = 'category2/CS7.png' width = '70%;'></div><div class = 'column'><img src = 'uspos/5600.bmp' width = '100%;'></div></div>","null","pos","CS","CS","2","category2/CS7.png","","","","",""
"","html-keyboard-response","57","869938","0.0-6.0-4.0-0.9","oa2sems4m5","one_one","1","indirect_first","0","ck06nd02","1","22","1","1","3","1","","0","1","0","null","","","<div class = 'row'><div class = 'column'><img src = 'category1/CS6.png' width = '70%;'></div><div class = 'column'><img src = 'uspos/1440.bmp' width = '100%;'></div></div>","null","pos","CS","CS","1","category1/CS6.png","","","","",""
"","html-keyboard-response","58","872441","0.0-6.0-4.0-0.10","oa2sems4m5","one_one","1","indirect_first","0","ck06nd02","1","22","1","1","3","1","","0","1","0","null","","","<div class = 'row'><div class = 'column'><img src = 'category4/CS3.png' width = '70%;'></div><div class = 'column'><img src = 'usneg/9050.bmp' width = '100%;'></div></div>","null","neg","CS","CS","4","category4/CS3.png","","","","",""
"","html-keyboard-response","59","874943","0.0-6.0-4.0-0.11","oa2sems4m5","one_one","1","indirect_first","0","ck06nd02","1","22","1","1","3","1","","0","1","0","null","","","<div class = 'row'><div class = 'column'><img src = 'category2/CS7.png' width = '70%;'></div><div class = 'column'><img src = 'uspos/5600.bmp' width = '100%;'></div></div>","null","pos","CS","CS","2","category2/CS7.png","","","","",""
"","html-keyboard-response","60","877455","0.0-6.0-4.0-0.12","oa2sems4m5","one_one","1","indirect_first","0","ck06nd02","1","22","1","1","3","1","","0","1","0","null","","","<div class = 'row'><div class = 'column'><img src = 'category3/CS4.png' width = '70%;'></div><div class = 'column'><img src = 'usneg/9920.bmp' width = '100%;'></div></div>","null","neg","CS","CS","3","category3/CS4.png","","","","",""
"","html-keyboard-response","61","879957","0.0-6.0-4.0-0.13","oa2sems4m5","one_one","1","indirect_first","0","ck06nd02","1","22","1","1","3","1","","0","1","0","null","","","<div class = 'row'><div class = 'column'><img src = 'category2/CS7.png' width = '70%;'></div><div class = 'column'><img src = 'uspos/5600.bmp' width = '100%;'></div></div>","null","pos","CS","CS","2","category2/CS7.png","","","","",""
"","html-keyboard-response","62","882460","0.0-6.0-4.0-0.14","oa2sems4m5","one_one","1","indirect_first","0","ck06nd02","1","22","1","1","3","1","","0","1","0","null","","","<div class = 'row'><div class = 'column'><img src = 'category3/CS4.png' width = '70%;'></div><div class = 'column'><img src = 'usneg/9920.bmp' width = '100%;'></div></div>","null","neg","CS","CS","3","category3/CS4.png","","","","",""
"","html-keyboard-response","63","884968","0.0-6.0-4.0-0.15","oa2sems4m5","one_one","1","indirect_first","0","ck06nd02","1","22","1","1","3","1","","0","1","0","null","","","<div class = 'row'><div class = 'column'><img src = 'category1/CS6.png' width = '70%;'></div><div class = 'column'><img src = 'uspos/1440.bmp' width = '100%;'></div></div>","null","pos","CS","CS","1","category1/CS6.png","","","","",""
"","html-keyboard-response","64","887471","0.0-6.0-4.0-0.16","oa2sems4m5","one_one","1","indirect_first","0","ck06nd02","1","22","1","1","3","1","","0","1","0","null","","","<div class = 'row'><div class = 'column'><img src = 'usneg/9050.bmp' width = '100%;'></div><div class = 'column'><img src = 'category4/CS3.png' width = '70%;'></div></div>","null","neg","CS","CS","4","category4/CS3.png","","","","",""
"","html-keyboard-response","65","889975","0.0-6.0-4.0-0.17","oa2sems4m5","one_one","1","indirect_first","0","ck06nd02","1","22","1","1","3","1","","0","1","0","null","","","<div class = 'row'><div class = 'column'><img src = 'category3/CS4.png' width = '70%;'></div><div class = 'column'><img src = 'usneg/9920.bmp' width = '100%;'></div></div>","null","neg","CS","CS","3","category3/CS4.png","","","","",""
"","html-keyboard-response","66","892478","0.0-6.0-4.0-0.18","oa2sems4m5","one_one","1","indirect_first","0","ck06nd02","1","22","1","1","3","1","","0","1","0","null","","","<div class = 'row'><div class = 'column'><img src = 'category1/CS6.png' width = '70%;'></div><div class = 'column'><img src = 'uspos/1440.bmp' width = '100%;'></div></div>","null","pos","CS","CS","1","category1/CS6.png","","","","",""
"","html-keyboard-response","67","894980","0.0-6.0-4.0-0.19","oa2sems4m5","one_one","1","indirect_first","0","ck06nd02","1","22","1","1","3","1","","0","1","0","null","","","<div class = 'row'><div class = 'column'><img src = 'usneg/9920.bmp' width = '100%;'></div><div class = 'column'><img src = 'category3/CS4.png' width = '70%;'></div></div>","null","neg","CS","CS","3","category3/CS4.png","","","","",""
"","survey-html-form","68","902563","0.0-6.0-5.0","oa2sems4m5","one_one","1","indirect_first","0","ck06nd02","1","22","1","1","3","1","","0","1","0","7081.214999998338","","{}","","","","","","","","","","","",""
"","html-keyboard-response","69","906568","0.0-6.0-6.0-0.0","oa2sems4m5","one_one","1","indirect_first","0","ck06nd02","1","22","1","1","3","1","","0","1","0","null","","","<div class = 'row'><div class = 'column'><img src = 'usneg/9050.bmp' width = '100%;'></div><div class = 'column'><img src = 'category4/CS3.png' width = '70%;'></div></div>","null","neg","CS","CS","4","category4/CS3.png","","","","",""
"","html-keyboard-response","70","909070","0.0-6.0-6.0-0.1","oa2sems4m5","one_one","1","indirect_first","0","ck06nd02","1","22","1","1","3","1","","0","1","0","null","","","<div class = 'row'><div class = 'column'><img src = 'category1/CS6.png' width = '70%;'></div><div class = 'column'><img src = 'uspos/1440.bmp' width = '100%;'></div></div>","null","pos","CS","CS","1","category1/CS6.png","","","","",""
"","html-keyboard-response","71","911584","0.0-6.0-6.0-0.2","oa2sems4m5","one_one","1","indirect_first","0","ck06nd02","1","22","1","1","3","1","","0","1","0","null","","","<div class = 'row'><div class = 'column'><img src = 'usneg/9920.bmp' width = '100%;'></div><div class = 'column'><img src = 'category3/CS4.png' width = '70%;'></div></div>","null","neg","CS","CS","3","category3/CS4.png","","","","",""
"","html-keyboard-response","72","914087","0.0-6.0-6.0-0.3","oa2sems4m5","one_one","1","indirect_first","0","ck06nd02","1","22","1","1","3","1","","0","1","0","null","","","<div class = 'row'><div class = 'column'><img src = 'category2/CS7.png' width = '70%;'></div><div class = 'column'><img src = 'uspos/5600.bmp' width = '100%;'></div></div>","null","pos","CS","CS","2","category2/CS7.png","","","","",""
"","html-keyboard-response","73","916590","0.0-6.0-6.0-0.4","oa2sems4m5","one_one","1","indirect_first","0","ck06nd02","1","22","1","1","3","1","","0","1","0","null","","","<div class = 'row'><div class = 'column'><img src = 'category3/CS4.png' width = '70%;'></div><div class = 'column'><img src = 'usneg/9920.bmp' width = '100%;'></div></div>","null","neg","CS","CS","3","category3/CS4.png","","","","",""
"","html-keyboard-response","74","919092","0.0-6.0-6.0-0.5","oa2sems4m5","one_one","1","indirect_first","0","ck06nd02","1","22","1","1","3","1","","0","1","0","null","","","<div class = 'row'><div class = 'column'><img src = 'category1/CS6.png' width = '70%;'></div><div class = 'column'><img src = 'uspos/1440.bmp' width = '100%;'></div></div>","null","pos","CS","CS","1","category1/CS6.png","","","","",""
"","html-keyboard-response","75","921594","0.0-6.0-6.0-0.6","oa2sems4m5","one_one","1","indirect_first","0","ck06nd02","1","22","1","1","3","1","","0","1","0","null","","","<div class = 'row'><div class = 'column'><img src = 'usneg/9920.bmp' width = '100%;'></div><div class = 'column'><img src = 'category3/CS4.png' width = '70%;'></div></div>","null","neg","CS","CS","3","category3/CS4.png","","","","",""
"","html-keyboard-response","76","924098","0.0-6.0-6.0-0.7","oa2sems4m5","one_one","1","indirect_first","0","ck06nd02","1","22","1","1","3","1","","0","1","0","null","","","<div class = 'row'><div class = 'column'><img src = 'uspos/5600.bmp' width = '100%;'></div><div class = 'column'><img src = 'category2/CS7.png' width = '70%;'></div></div>","null","pos","CS","CS","2","category2/CS7.png","","","","",""
"","html-keyboard-response","77","926600","0.0-6.0-6.0-0.8","oa2sems4m5","one_one","1","indirect_first","0","ck06nd02","1","22","1","1","3","1","","0","1","0","null","","","<div class = 'row'><div class = 'column'><img src = 'category4/CS3.png' width = '70%;'></div><div class = 'column'><img src = 'usneg/9050.bmp' width = '100%;'></div></div>","null","neg","CS","CS","4","category4/CS3.png","","","","",""
"","html-keyboard-response","78","929103","0.0-6.0-6.0-0.9","oa2sems4m5","one_one","1","indirect_first","0","ck06nd02","1","22","1","1","3","1","","0","1","0","null","","","<div class = 'row'><div class = 'column'><img src = 'category2/CS7.png' width = '70%;'></div><div class = 'column'><img src = 'uspos/5600.bmp' width = '100%;'></div></div>","null","pos","CS","CS","2","category2/CS7.png","","","","",""
"","html-keyboard-response","79","931606","0.0-6.0-6.0-0.10","oa2sems4m5","one_one","1","indirect_first","0","ck06nd02","1","22","1","1","3","1","","0","1","0","null","","","<div class = 'row'><div class = 'column'><img src = 'uspos/1440.bmp' width = '100%;'></div><div class = 'column'><img src = 'category1/CS6.png' width = '70%;'></div></div>","null","pos","CS","CS","1","category1/CS6.png","","","","",""
"","html-keyboard-response","80","934108","0.0-6.0-6.0-0.11","oa2sems4m5","one_one","1","indirect_first","0","ck06nd02","1","22","1","1","3","1","","0","1","0","null","","","<div class = 'row'><div class = 'column'><img src = 'category2/CS7.png' width = '70%;'></div><div class = 'column'><img src = 'uspos/5600.bmp' width = '100%;'></div></div>","null","pos","CS","CS","2","category2/CS7.png","","","","",""
"","html-keyboard-response","81","936611","0.0-6.0-6.0-0.12","oa2sems4m5","one_one","1","indirect_first","0","ck06nd02","1","22","1","1","3","1","","0","1","0","null","","","<div class = 'row'><div class = 'column'><img src = 'uspos/1440.bmp' width = '100%;'></div><div class = 'column'><img src = 'category1/CS6.png' width = '70%;'></div></div>","null","pos","CS","CS","1","category1/CS6.png","","","","",""
"","html-keyboard-response","82","939113","0.0-6.0-6.0-0.13","oa2sems4m5","one_one","1","indirect_first","0","ck06nd02","1","22","1","1","3","1","","0","1","0","null","","","<div class = 'row'><div class = 'column'><img src = 'category4/CS3.png' width = '70%;'></div><div class = 'column'><img src = 'usneg/9050.bmp' width = '100%;'></div></div>","null","neg","CS","CS","4","category4/CS3.png","","","","",""
"","html-keyboard-response","83","941615","0.0-6.0-6.0-0.14","oa2sems4m5","one_one","1","indirect_first","0","ck06nd02","1","22","1","1","3","1","","0","1","0","null","","","<div class = 'row'><div class = 'column'><img src = 'category3/CS4.png' width = '70%;'></div><div class = 'column'><img src = 'usneg/9920.bmp' width = '100%;'></div></div>","null","neg","CS","CS","3","category3/CS4.png","","","","",""
"","html-keyboard-response","84","944118","0.0-6.0-6.0-0.15","oa2sems4m5","one_one","1","indirect_first","0","ck06nd02","1","22","1","1","3","1","","0","1","0","null","","","<div class = 'row'><div class = 'column'><img src = 'uspos/1440.bmp' width = '100%;'></div><div class = 'column'><img src = 'category1/CS6.png' width = '70%;'></div></div>","null","pos","CS","CS","1","category1/CS6.png","","","","",""
"","html-keyboard-response","85","946622","0.0-6.0-6.0-0.16","oa2sems4m5","one_one","1","indirect_first","0","ck06nd02","1","22","1","1","3","1","","0","1","0","null","","","<div class = 'row'><div class = 'column'><img src = 'usneg/9050.bmp' width = '100%;'></div><div class = 'column'><img src = 'category4/CS3.png' width = '70%;'></div></div>","null","neg","CS","CS","4","category4/CS3.png","","","","",""
"","html-keyboard-response","86","949125","0.0-6.0-6.0-0.17","oa2sems4m5","one_one","1","indirect_first","0","ck06nd02","1","22","1","1","3","1","","0","1","0","null","","","<div class = 'row'><div class = 'column'><img src = 'uspos/5600.bmp' width = '100%;'></div><div class = 'column'><img src = 'category2/CS7.png' width = '70%;'></div></div>","null","pos","CS","CS","2","category2/CS7.png","","","","",""
"","html-keyboard-response","87","951627","0.0-6.0-6.0-0.18","oa2sems4m5","one_one","1","indirect_first","0","ck06nd02","1","22","1","1","3","1","","0","1","0","null","","","<div class = 'row'><div class = 'column'><img src = 'category3/CS4.png' width = '70%;'></div><div class = 'column'><img src = 'usneg/9920.bmp' width = '100%;'></div></div>","null","neg","CS","CS","3","category3/CS4.png","","","","",""
"","html-keyboard-response","88","954131","0.0-6.0-6.0-0.19","oa2sems4m5","one_one","1","indirect_first","0","ck06nd02","1","22","1","1","3","1","","0","1","0","null","","","<div class = 'row'><div class = 'column'><img src = 'category4/CS3.png' width = '70%;'></div><div class = 'column'><img src = 'usneg/9050.bmp' width = '100%;'></div></div>","null","neg","CS","CS","4","category4/CS3.png","","","","",""
"","html-keyboard-response","89","998962","0.0-7.0","oa2sems4m5","one_one","1","indirect_first","0","ck06nd02","1","22","1","1","3","1","","0","1","0","44328.92499999434","","","<p>Sie sehen nun die chinesischen Zeichen nur ganz kurz. Danach sehen Sie die jeweilige Aussprache der Zeichen als Silbe auf dem Bildschrim. Ihre Aufgabe ist es, für jede Silbe anzugeben, ob diese etwas angenehmes, oder unangenehmes bedeuten könnte. Verlassen Sie sich hier vor allem auf Ihre Intuition.<br><br>Die Zeichen werden nur zur Orientierung dargestellt, beachten Sie sie deshalb nicht. Konzentrieren Sie sich vor allem auf die Silben. <br>Reagieren Sie mit folgenden zwei Tasten: <br><br><b>'D' </b> wenn die Silbe etwas <b>unangenehmes</b> bedeuten könnte. <br><b>'K'</b> wenn die Silbe etwas <b>angenehmes</b> bedeuten könnte. <br><br>Bitte legen Sie nun den Zeigefinger der linken Hand auf die Taste 'D' und den Zeigefinger der rechten Hand auf die Taste 'K'. <br>Reagieren Sie auf jede Silbe so schnell wie möglich. Uns interessiert Ihre spontane Reaktion. <br> <br> <br>Drücken Sie 'D' oder 'K', um die nächste Aufgabe zu starten. </p>","75","","","","","","","","","",""
"","html-keyboard-response","90","1001963","0.0-8.0-0.0","oa2sems4m5","one_one","1","indirect_first","0","ck06nd02","1","22","1","1","3","1","","0","1","0","null","","","<div style=""font-size:60px;"">+</div>","null","","","","","","","","","",""
"","html-keyboard-response","91","1002054","0.0-8.0-1.0","oa2sems4m5","one_one","1","indirect_first","0","ck06nd02","1","22","1","1","3","1","","0","1","0","null","","","<img src = 'category4/CS8.png' width = '100%;'>","null","","","","","","","","","",""
"","html-keyboard-response","92","1002307","0.0-8.0-2.0","oa2sems4m5","one_one","1","indirect_first","0","ck06nd02","1","22","1","1","3","1","","0","1","0","null","","","<img src = 'targets/8.png' width = '100%;'>","null","","","","","","","","","",""
"","html-keyboard-response","93","1005408","0.0-8.0-3.0","oa2sems4m5","one_one","1","indirect_first","0","ck06nd02","1","22","1","1","3","1","","0","1","0","3100.7200000020675","","","<img src = 'targets/mask.png' width = '100%;'>","75","neg","GS","GSold","4","category4/CS8.png","targets/8.png","1","indirect","0",""
"","html-keyboard-response","94","1006911","0.0-8.0-0.1","oa2sems4m5","one_one","1","indirect_first","0","ck06nd02","1","22","1","1","3","1","","0","1","0","null","","","<div style=""font-size:60px;"">+</div>","null","","","","","","","","","",""
"","html-keyboard-response","95","1007003","0.0-8.0-1.1","oa2sems4m5","one_one","1","indirect_first","0","ck06nd02","1","22","1","1","3","1","","0","1","0","null","","","<img src = 'category2/CS5.png' width = '100%;'>","null","","","","","","","","","",""
"","html-keyboard-response","96","1007254","0.0-8.0-2.1","oa2sems4m5","one_one","1","indirect_first","0","ck06nd02","1","22","1","1","3","1","","0","1","0","null","","","<img src = 'targets/2.png' width = '100%;'>","null","","","","","","","","","",""
"","html-keyboard-response","97","1010041","0.0-8.0-3.1","oa2sems4m5","one_one","1","indirect_first","0","ck06nd02","1","22","1","1","3","1","","0","1","0","2785.9300000127405","","","<img src = 'targets/mask.png' width = '100%;'>","75","pos","GS","GSold","2","category2/CS5.png","targets/2.png","1","indirect","1",""
"","html-keyboard-response","98","1011543","0.0-8.0-0.2","oa2sems4m5","one_one","1","indirect_first","0","ck06nd02","1","22","1","1","3","1","","0","1","0","null","","","<div style=""font-size:60px;"">+</div>","null","","","","","","","","","",""
"","html-keyboard-response","99","1011635","0.0-8.0-1.2","oa2sems4m5","one_one","1","indirect_first","0","ck06nd02","1","22","1","1","3","1","","0","1","0","null","","","<img src = 'category4/CS1.png' width = '100%;'>","null","","","","","","","","","",""
"","html-keyboard-response","100","1011899","0.0-8.0-2.2","oa2sems4m5","one_one","1","indirect_first","0","ck06nd02","1","22","1","1","3","1","","0","1","0","null","","","<img src = 'targets/41.png' width = '100%;'>","null","","","","","","","","","",""
"","html-keyboard-response","101","1013760","0.0-8.0-3.2","oa2sems4m5","one_one","1","indirect_first","0","ck06nd02","1","22","1","1","3","1","","0","1","0","1859.8400000045076","","","<img src = 'targets/mask.png' width = '100%;'>","68","neg","GS","GSold","4","category4/CS1.png","targets/41.png","0","indirect","2",""
"","html-keyboard-response","102","1015262","0.0-8.0-0.3","oa2sems4m5","one_one","1","indirect_first","0","ck06nd02","1","22","1","1","3","1","","0","1","0","null","","","<div style=""font-size:60px;"">+</div>","null","","","","","","","","","",""
"","html-keyboard-response","103","1015354","0.0-8.0-1.3","oa2sems4m5","one_one","1","indirect_first","0","ck06nd02","1","22","1","1","3","1","","0","1","0","null","","","<img src = 'category1/CS9.png' width = '100%;'>","null","","","","","","","","","",""
"","html-keyboard-response","104","1015605","0.0-8.0-2.3","oa2sems4m5","one_one","1","indirect_first","0","ck06nd02","1","22","1","1","3","1","","0","1","0","null","","","<img src = 'targets/44.png' width = '100%;'>","null","","","","","","","","","",""
"","html-keyboard-response","105","1017080","0.0-8.0-3.3","oa2sems4m5","one_one","1","indirect_first","0","ck06nd02","1","22","1","1","3","1","","0","1","0","1474.2899999981746","","","<img src = 'targets/mask.png' width = '100%;'>","68","pos","GS","GSold","1","category1/CS9.png","targets/44.png","0","indirect","3",""
"","html-keyboard-response","106","1018582","0.0-8.0-0.4","oa2sems4m5","one_one","1","indirect_first","0","ck06nd02","1","22","1","1","3","1","","0","1","0","null","","","<div style=""font-size:60px;"">+</div>","null","","","","","","","","","",""
"","html-keyboard-response","107","1018672","0.0-8.0-1.4","oa2sems4m5","one_one","1","indirect_first","0","ck06nd02","1","22","1","1","3","1","","0","1","0","null","","","<img src = 'category4/CS4.png' width = '100%;'>","null","","","","","","","","","",""
"","html-keyboard-response","108","1018923","0.0-8.0-2.4","oa2sems4m5","one_one","1","indirect_first","0","ck06nd02","1","22","1","1","3","1","","0","1","0","null","","","<img src = 'targets/15.png' width = '100%;'>","null","","","","","","","","","",""
"","html-keyboard-response","109","1019744","0.0-8.0-3.4","oa2sems4m5","one_one","1","indirect_first","0","ck06nd02","1","22","1","1","3","1","","0","1","0","819.9549999991432","","","<img src = 'targets/mask.png' width = '100%;'>","75","neg","GS","GSold","4","category4/CS4.png","targets/15.png","1","indirect","4",""
"","html-keyboard-response","110","1021245","0.0-8.0-0.5","oa2sems4m5","one_one","1","indirect_first","0","ck06nd02","1","22","1","1","3","1","","0","1","0","null","","","<div style=""font-size:60px;"">+</div>","null","","","","","","","","","",""
"","html-keyboard-response","111","1021336","0.0-8.0-1.5","oa2sems4m5","one_one","1","indirect_first","0","ck06nd02","1","22","1","1","3","1","","0","1","0","null","","","<img src = 'category3/CS6.png' width = '100%;'>","null","","","","","","","","","",""
"","html-keyboard-response","112","1021588","0.0-8.0-2.5","oa2sems4m5","one_one","1","indirect_first","0","ck06nd02","1","22","1","1","3","1","","0","1","0","null","","","<img src = 'targets/4.png' width = '100%;'>","null","","","","","","","","","",""
"","html-keyboard-response","113","1026128","0.0-8.0-3.5","oa2sems4m5","one_one","1","indirect_first","0","ck06nd02","1","22","1","1","3","1","","0","1","0","4539.54000001261","","","<img src = 'targets/mask.png' width = '100%;'>","75","neg","GS","GSold","3","category3/CS6.png","targets/4.png","1","indirect","5",""
"","html-keyboard-response","114","1027629","0.0-8.0-0.6","oa2sems4m5","one_one","1","indirect_first","0","ck06nd02","1","22","1","1","3","1","","0","1","0","null","","","<div style=""font-size:60px;"">+</div>","null","","","","","","","","","",""
"","html-keyboard-response","115","1027721","0.0-8.0-1.6","oa2sems4m5","one_one","1","indirect_first","0","ck06nd02","1","22","1","1","3","1","","0","1","0","null","","","<img src = 'category2/CS7.png' width = '100%;'>","null","","","","","","","","","",""
"","html-keyboard-response","116","1027973","0.0-8.0-2.6","oa2sems4m5","one_one","1","indirect_first","0","ck06nd02","1","22","1","1","3","1","","0","1","0","null","","","<img src = 'targets/39.png' width = '100%;'>","null","","","","","","","","","",""
"","html-keyboard-response","117","1029448","0.0-8.0-3.6","oa2sems4m5","one_one","1","indirect_first","0","ck06nd02","1","22","1","1","3","1","","0","1","0","1474.1199999991804","","","<img src = 'targets/mask.png' width = '100%;'>","75","pos","CS","CS","2","category2/CS7.png","targets/39.png","1","indirect","6",""
"","html-keyboard-response","118","1030950","0.0-8.0-0.7","oa2sems4m5","one_one","1","indirect_first","0","ck06nd02","1","22","1","1","3","1","","0","1","0","null","","","<div style=""font-size:60px;"">+</div>","null","","","","","","","","","",""
"","html-keyboard-response","119","1031041","0.0-8.0-1.7","oa2sems4m5","one_one","1","indirect_first","0","ck06nd02","1","22","1","1","3","1","","0","1","0","null","","","<img src = 'category1/CS10.png' width = '100%;'>","null","","","","","","","","","",""
"","html-keyboard-response","120","1031293","0.0-8.0-2.7","oa2sems4m5","one_one","1","indirect_first","0","ck06nd02","1","22","1","1","3","1","","0","1","0","null","","","<img src = 'targets/5.png' width = '100%;'>","null","","","","","","","","","",""
"","html-keyboard-response","121","1032216","0.0-8.0-3.7","oa2sems4m5","one_one","1","indirect_first","0","ck06nd02","1","22","1","1","3","1","","0","1","0","922.7300000055693","","","<img src = 'targets/mask.png' width = '100%;'>","68","pos","GS","GSold","1","category1/CS10.png","targets/5.png","0","indirect","7",""
"","html-keyboard-response","122","1033718","0.0-8.0-0.8","oa2sems4m5","one_one","1","indirect_first","0","ck06nd02","1","22","1","1","3","1","","0","1","0","null","","","<div style=""font-size:60px;"">+</div>","null","","","","","","","","","",""
"","html-keyboard-response","123","1033810","0.0-8.0-1.8","oa2sems4m5","one_one","1","indirect_first","0","ck06nd02","1","22","1","1","3","1","","0","1","0","null","","","<img src = 'category4/CS3.png' width = '100%;'>","null","","","","","","","","","",""
"","html-keyboard-response","124","1034062","0.0-8.0-2.8","oa2sems4m5","one_one","1","indirect_first","0","ck06nd02","1","22","1","1","3","1","","0","1","0","null","","","<img src = 'targets/42.png' width = '100%;'>","null","","","","","","","","","",""
"","html-keyboard-response","125","1034888","0.0-8.0-3.8","oa2sems4m5","one_one","1","indirect_first","0","ck06nd02","1","22","1","1","3","1","","0","1","0","825.4900000027847","","","<img src = 'targets/mask.png' width = '100%;'>","68","neg","CS","CS","4","category4/CS3.png","targets/42.png","0","indirect","8",""
"","html-keyboard-response","126","1036390","0.0-8.0-0.9","oa2sems4m5","one_one","1","indirect_first","0","ck06nd02","1","22","1","1","3","1","","0","1","0","null","","","<div style=""font-size:60px;"">+</div>","null","","","","","","","","","",""
"","html-keyboard-response","127","1036482","0.0-8.0-1.9","oa2sems4m5","one_one","1","indirect_first","0","ck06nd02","1","22","1","1","3","1","","0","1","0","null","","","<img src = 'category3/CS4.png' width = '100%;'>","null","","","","","","","","","",""
"","html-keyboard-response","128","1036735","0.0-8.0-2.9","oa2sems4m5","one_one","1","indirect_first","0","ck06nd02","1","22","1","1","3","1","","0","1","0","null","","","<img src = 'targets/16.png' width = '100%;'>","null","","","","","","","","","",""
"","html-keyboard-response","129","1037808","0.0-8.0-3.9","oa2sems4m5","one_one","1","indirect_first","0","ck06nd02","1","22","1","1","3","1","","0","1","0","1072.4349999947008","","","<img src = 'targets/mask.png' width = '100%;'>","68","neg","CS","CS","3","category3/CS4.png","targets/16.png","0","indirect","9",""
"","html-keyboard-response","130","1039309","0.0-8.0-0.10","oa2sems4m5","one_one","1","indirect_first","0","ck06nd02","1","22","1","1","3","1","","0","1","0","null","","","<div style=""font-size:60px;"">+</div>","null","","","","","","","","","",""
"","html-keyboard-response","131","1039402","0.0-8.0-1.10","oa2sems4m5","one_one","1","indirect_first","0","ck06nd02","1","22","1","1","3","1","","0","1","0","null","","","<img src = 'category1/CS4.png' width = '100%;'>","null","","","","","","","","","",""
"","html-keyboard-response","132","1039653","0.0-8.0-2.10","oa2sems4m5","one_one","1","indirect_first","0","ck06nd02","1","22","1","1","3","1","","0","1","0","null","","","<img src = 'targets/48.png' width = '100%;'>","null","","","","","","","","","",""
"","html-keyboard-response","133","1041096","0.0-8.0-3.10","oa2sems4m5","one_one","1","indirect_first","0","ck06nd02","1","22","1","1","3","1","","0","1","0","1442.104999994859","","","<img src = 'targets/mask.png' width = '100%;'>","75","pos","GS","GSold","1","category1/CS4.png","targets/48.png","1","indirect","10",""
"","html-keyboard-response","134","1042597","0.0-8.0-0.11","oa2sems4m5","one_one","1","indirect_first","0","ck06nd02","1","22","1","1","3","1","","0","1","0","null","","","<div style=""font-size:60px;"">+</div>","null","","","","","","","","","",""
"","html-keyboard-response","135","1042688","0.0-8.0-1.11","oa2sems4m5","one_one","1","indirect_first","0","ck06nd02","1","22","1","1","3","1","","0","1","0","null","","","<img src = 'category3/CS8.png' width = '100%;'>","null","","","","","","","","","",""
"","html-keyboard-response","136","1042940","0.0-8.0-2.11","oa2sems4m5","one_one","1","indirect_first","0","ck06nd02","1","22","1","1","3","1","","0","1","0","null","","","<img src = 'targets/18.png' width = '100%;'>","null","","","","","","","","","",""
"","html-keyboard-response","137","1045505","0.0-8.0-3.11","oa2sems4m5","one_one","1","indirect_first","0","ck06nd02","1","22","1","1","3","1","","0","1","0","2563.9299999892246","","","<img src = 'targets/mask.png' width = '100%;'>","75","neg","GS","GSold","3","category3/CS8.png","targets/18.png","1","indirect","11",""
"","html-keyboard-response","138","1047007","0.0-8.0-0.12","oa2sems4m5","one_one","1","indirect_first","0","ck06nd02","1","22","1","1","3","1","","0","1","0","null","","","<div style=""font-size:60px;"">+</div>","null","","","","","","","","","",""
"","html-keyboard-response","139","1047098","0.0-8.0-1.12","oa2sems4m5","one_one","1","indirect_first","0","ck06nd02","1","22","1","1","3","1","","0","1","0","null","","","<img src = 'category1/CS6.png' width = '100%;'>","null","","","","","","","","","",""
"","html-keyboard-response","140","1047351","0.0-8.0-2.12","oa2sems4m5","one_one","1","indirect_first","0","ck06nd02","1","22","1","1","3","1","","0","1","0","null","","","<img src = 'targets/46.png' width = '100%;'>","null","","","","","","","","","",""
"","html-keyboard-response","141","1048225","0.0-8.0-3.12","oa2sems4m5","one_one","1","indirect_first","0","ck06nd02","1","22","1","1","3","1","","0","1","0","872.6699999968987","","","<img src = 'targets/mask.png' width = '100%;'>","75","pos","CS","CS","1","category1/CS6.png","targets/46.png","1","indirect","12",""
"","html-keyboard-response","142","1049727","0.0-8.0-0.13","oa2sems4m5","one_one","1","indirect_first","0","ck06nd02","1","22","1","1","3","1","","0","1","0","null","","","<div style=""font-size:60px;"">+</div>","null","","","","","","","","","",""
"","html-keyboard-response","143","1049818","0.0-8.0-1.13","oa2sems4m5","one_one","1","indirect_first","0","ck06nd02","1","22","1","1","3","1","","0","1","0","null","","","<img src = 'category2/CS1.png' width = '100%;'>","null","","","","","","","","","",""
"","html-keyboard-response","144","1050070","0.0-8.0-2.13","oa2sems4m5","one_one","1","indirect_first","0","ck06nd02","1","22","1","1","3","1","","0","1","0","null","","","<img src = 'targets/43.png' width = '100%;'>","null","","","","","","","","","",""
"","html-keyboard-response","145","1051296","0.0-8.0-3.13","oa2sems4m5","one_one","1","indirect_first","0","ck06nd02","1","22","1","1","3","1","","0","1","0","1224.9100000045728","","","<img src = 'targets/mask.png' width = '100%;'>","75","pos","GS","GSold","2","category2/CS1.png","targets/43.png","1","indirect","13",""
"","html-keyboard-response","146","1052798","0.0-8.0-0.14","oa2sems4m5","one_one","1","indirect_first","0","ck06nd02","1","22","1","1","3","1","","0","1","0","null","","","<div style=""font-size:60px;"">+</div>","null","","","","","","","","","",""
"","html-keyboard-response","147","1052889","0.0-8.0-1.14","oa2sems4m5","one_one","1","indirect_first","0","ck06nd02","1","22","1","1","3","1","","0","1","0","null","","","<img src = 'category2/CS8.png' width = '100%;'>","null","","","","","","","","","",""
"","html-keyboard-response","148","1053141","0.0-8.0-2.14","oa2sems4m5","one_one","1","indirect_first","0","ck06nd02","1","22","1","1","3","1","","0","1","0","null","","","<img src = 'targets/22.png' width = '100%;'>","null","","","","","","","","","",""
"","html-keyboard-response","149","1055736","0.0-8.0-3.14","oa2sems4m5","one_one","1","indirect_first","0","ck06nd02","1","22","1","1","3","1","","0","1","0","2593.92499999376","","","<img src = 'targets/mask.png' width = '100%;'>","75","pos","GS","GSold","2","category2/CS8.png","targets/22.png","1","indirect","14",""
"","html-keyboard-response","150","1057238","0.0-8.0-0.15","oa2sems4m5","one_one","1","indirect_first","0","ck06nd02","1","22","1","1","3","1","","0","1","0","null","","","<div style=""font-size:60px;"">+</div>","null","","","","","","","","","",""
"","html-keyboard-response","151","1057329","0.0-8.0-1.15","oa2sems4m5","one_one","1","indirect_first","0","ck06nd02","1","22","1","1","3","1","","0","1","0","null","","","<img src = 'category3/CS9.png' width = '100%;'>","null","","","","","","","","","",""
"","html-keyboard-response","152","1057580","0.0-8.0-2.15","oa2sems4m5","one_one","1","indirect_first","0","ck06nd02","1","22","1","1","3","1","","0","1","0","null","","","<img src = 'targets/45.png' width = '100%;'>","null","","","","","","","","","",""
"","html-keyboard-response","153","1058888","0.0-8.0-3.15","oa2sems4m5","one_one","1","indirect_first","0","ck06nd02","1","22","1","1","3","1","","0","1","0","1307.0250000020023","","","<img src = 'targets/mask.png' width = '100%;'>","75","neg","GS","GSold","3","category3/CS9.png","targets/45.png","1","indirect","15",""
"","survey-html-form","154","1061675","0.0-9.0","oa2sems4m5","one_one","1","indirect_first","0","ck06nd02","1","22","1","1","3","1","","0","1","0","2286.055000003893","","{}","","","","","","","","","","","",""
"","html-keyboard-response","155","1064677","0.0-10.0-0.0","oa2sems4m5","one_one","1","indirect_first","0","ck06nd02","1","22","1","1","3","1","","0","1","0","null","","","<div style=""font-size:60px;"">+</div>","null","","","","","","","","","",""
"","html-keyboard-response","156","1064769","0.0-10.0-1.0","oa2sems4m5","one_one","1","indirect_first","0","ck06nd02","1","22","1","1","3","1","","0","1","0","null","","","<img src = 'category4/GS1.png' width = '100%;'>","null","","","","","","","","","",""
"","html-keyboard-response","157","1065021","0.0-10.0-2.0","oa2sems4m5","one_one","1","indirect_first","0","ck06nd02","1","22","1","1","3","1","","0","1","0","null","","","<img src = 'targets/23.png' width = '100%;'>","null","","","","","","","","","",""
"","html-keyboard-response","158","1066424","0.0-10.0-3.0","oa2sems4m5","one_one","1","indirect_first","0","ck06nd02","1","22","1","1","3","1","","0","1","0","1401.754999998957","","","<img src = 'targets/mask.png' width = '100%;'>","68","neg","GS","GSnew","4","category4/GS1.png","targets/23.png","0","indirect","16",""
"","html-keyboard-response","159","1067925","0.0-10.0-0.1","oa2sems4m5","one_one","1","indirect_first","0","ck06nd02","1","22","1","1","3","1","","0","1","0","null","","","<div style=""font-size:60px;"">+</div>","null","","","","","","","","","",""
"","html-keyboard-response","160","1068017","0.0-10.0-1.1","oa2sems4m5","one_one","1","indirect_first","0","ck06nd02","1","22","1","1","3","1","","0","1","0","null","","","<img src = 'category1/ma.png' width = '100%;'>","null","","","","","","","","","",""
"","html-keyboard-response","161","1068268","0.0-10.0-2.1","oa2sems4m5","one_one","1","indirect_first","0","ck06nd02","1","22","1","1","3","1","","0","1","0","null","","","<img src = 'targets/37.png' width = '100%;'>","null","","","","","","","","","",""
"","html-keyboard-response","162","1069129","0.0-10.0-3.1","oa2sems4m5","one_one","1","indirect_first","0","ck06nd02","1","22","1","1","3","1","","0","1","0","859.349999998929","","","<img src = 'targets/mask.png' width = '100%;'>","75","pos","GS","abstract","1","category1/ma.png","targets/37.png","1","indirect","17",""
"","html-keyboard-response","163","1070636","0.0-10.0-0.2","oa2sems4m5","one_one","1","indirect_first","0","ck06nd02","1","22","1","1","3","1","","0","1","0","null","","","<div style=""font-size:60px;"">+</div>","null","","","","","","","","","",""
"","html-keyboard-response","164","1070727","0.0-10.0-1.2","oa2sems4m5","one_one","1","indirect_first","0","ck06nd02","1","22","1","1","3","1","","0","1","0","null","","","<img src = 'category3/wang.png' width = '100%;'>","null","","","","","","","","","",""
"","html-keyboard-response","165","1070979","0.0-10.0-2.2","oa2sems4m5","one_one","1","indirect_first","0","ck06nd02","1","22","1","1","3","1","","0","1","0","null","","","<img src = 'targets/27.png' width = '100%;'>","null","","","","","","","","","",""
"","html-keyboard-response","166","1071784","0.0-10.0-3.2","oa2sems4m5","one_one","1","indirect_first","0","ck06nd02","1","22","1","1","3","1","","0","1","0","803.8950000044424","","","<img src = 'targets/mask.png' width = '100%;'>","68","neg","GS","abstract","3","category3/wang.png","targets/27.png","0","indirect","18",""
"","html-keyboard-response","167","1073286","0.0-10.0-0.3","oa2sems4m5","one_one","1","indirect_first","0","ck06nd02","1","22","1","1","3","1","","0","1","0","null","","","<div style=""font-size:60px;"">+</div>","null","","","","","","","","","",""
"","html-keyboard-response","168","1073377","0.0-10.0-1.3","oa2sems4m5","one_one","1","indirect_first","0","ck06nd02","1","22","1","1","3","1","","0","1","0","null","","","<img src = 'category2/men.png' width = '100%;'>","null","","","","","","","","","",""
"","html-keyboard-response","169","1073631","0.0-10.0-2.3","oa2sems4m5","one_one","1","indirect_first","0","ck06nd02","1","22","1","1","3","1","","0","1","0","null","","","<img src = 'targets/7.png' width = '100%;'>","null","","","","","","","","","",""
"","html-keyboard-response","170","1074295","0.0-10.0-3.3","oa2sems4m5","one_one","1","indirect_first","0","ck06nd02","1","22","1","1","3","1","","0","1","0","663.8950000051409","","","<img src = 'targets/mask.png' width = '100%;'>","75","pos","GS","abstract","2","category2/men.png","targets/7.png","1","indirect","19",""
"","html-keyboard-response","171","1075797","0.0-10.0-0.4","oa2sems4m5","one_one","1","indirect_first","0","ck06nd02","1","22","1","1","3","1","","0","1","0","null","","","<div style=""font-size:60px;"">+</div>","null","","","","","","","","","",""
"","html-keyboard-response","172","1075888","0.0-10.0-1.4","oa2sems4m5","one_one","1","indirect_first","0","ck06nd02","1","22","1","1","3","1","","0","1","0","null","","","<img src = 'category3/GS1.png' width = '100%;'>","null","","","","","","","","","",""
"","html-keyboard-response","173","1076142","0.0-10.0-2.4","oa2sems4m5","one_one","1","indirect_first","0","ck06nd02","1","22","1","1","3","1","","0","1","0","null","","","<img src = 'targets/28.png' width = '100%;'>","null","","","","","","","","","",""
"","html-keyboard-response","174","1077168","0.0-10.0-3.4","oa2sems4m5","one_one","1","indirect_first","0","ck06nd02","1","22","1","1","3","1","","0","1","0","1025.2949999994598","","","<img src = 'targets/mask.png' width = '100%;'>","68","neg","GS","GSnew","3","category3/GS1.png","targets/28.png","0","indirect","20",""
"","html-keyboard-response","175","1078670","0.0-10.0-0.5","oa2sems4m5","one_one","1","indirect_first","0","ck06nd02","1","22","1","1","3","1","","0","1","0","null","","","<div style=""font-size:60px;"">+</div>","null","","","","","","","","","",""
"","html-keyboard-response","176","1078761","0.0-10.0-1.5","oa2sems4m5","one_one","1","indirect_first","0","ck06nd02","1","22","1","1","3","1","","0","1","0","null","","","<img src = 'category4/GS2.png' width = '100%;'>","null","","","","","","","","","",""
"","html-keyboard-response","177","1079013","0.0-10.0-2.5","oa2sems4m5","one_one","1","indirect_first","0","ck06nd02","1","22","1","1","3","1","","0","1","0","null","","","<img src = 'targets/10.png' width = '100%;'>","null","","","","","","","","","",""
"","html-keyboard-response","178","1080281","0.0-10.0-3.5","oa2sems4m5","one_one","1","indirect_first","0","ck06nd02","1","22","1","1","3","1","","0","1","0","1266.9499999899417","","","<img src = 'targets/mask.png' width = '100%;'>","75","neg","GS","GSnew","4","category4/GS2.png","targets/10.png","1","indirect","21",""
"","html-keyboard-response","179","1081783","0.0-10.0-0.6","oa2sems4m5","one_one","1","indirect_first","0","ck06nd02","1","22","1","1","3","1","","0","1","0","null","","","<div style=""font-size:60px;"">+</div>","null","","","","","","","","","",""
"","html-keyboard-response","180","1081874","0.0-10.0-1.6","oa2sems4m5","one_one","1","indirect_first","0","ck06nd02","1","22","1","1","3","1","","0","1","0","null","","","<img src = 'category4/GS3.png' width = '100%;'>","null","","","","","","","","","",""
"","html-keyboard-response","181","1082126","0.0-10.0-2.6","oa2sems4m5","one_one","1","indirect_first","0","ck06nd02","1","22","1","1","3","1","","0","1","0","null","","","<img src = 'targets/24.png' width = '100%;'>","null","","","","","","","","","",""
"","html-keyboard-response","182","1083312","0.0-10.0-3.6","oa2sems4m5","one_one","1","indirect_first","0","ck06nd02","1","22","1","1","3","1","","0","1","0","1185.0750000011176","","","<img src = 'targets/mask.png' width = '100%;'>","68","neg","GS","GSnew","4","category4/GS3.png","targets/24.png","0","indirect","22",""
"","html-keyboard-response","183","1084818","0.0-10.0-0.7","oa2sems4m5","one_one","1","indirect_first","0","ck06nd02","1","22","1","1","3","1","","0","1","0","null","","","<div style=""font-size:60px;"">+</div>","null","","","","","","","","","",""
"","html-keyboard-response","184","1084910","0.0-10.0-1.7","oa2sems4m5","one_one","1","indirect_first","0","ck06nd02","1","22","1","1","3","1","","0","1","0","null","","","<img src = 'category2/GS2.png' width = '100%;'>","null","","","","","","","","","",""
"","html-keyboard-response","185","1085161","0.0-10.0-2.7","oa2sems4m5","one_one","1","indirect_first","0","ck06nd02","1","22","1","1","3","1","","0","1","0","null","","","<img src = 'targets/1.png' width = '100%;'>","null","","","","","","","","","",""
"","html-keyboard-response","186","1086749","0.0-10.0-3.7","oa2sems4m5","one_one","1","indirect_first","0","ck06nd02","1","22","1","1","3","1","","0","1","0","1586.3050000043586","","","<img src = 'targets/mask.png' width = '100%;'>","75","pos","GS","GSnew","2","category2/GS2.png","targets/1.png","1","indirect","23",""
"","html-keyboard-response","187","1088251","0.0-10.0-0.8","oa2sems4m5","one_one","1","indirect_first","0","ck06nd02","1","22","1","1","3","1","","0","1","0","null","","","<div style=""font-size:60px;"">+</div>","null","","","","","","","","","",""
"","html-keyboard-response","188","1088342","0.0-10.0-1.8","oa2sems4m5","one_one","1","indirect_first","0","ck06nd02","1","22","1","1","3","1","","0","1","0","null","","","<img src = 'category4/lin.png' width = '100%;'>","null","","","","","","","","","",""
"","html-keyboard-response","189","1088593","0.0-10.0-2.8","oa2sems4m5","one_one","1","indirect_first","0","ck06nd02","1","22","1","1","3","1","","0","1","0","null","","","<img src = 'targets/11.png' width = '100%;'>","null","","","","","","","","","",""
"","html-keyboard-response","190","1089489","0.0-10.0-3.8","oa2sems4m5","one_one","1","indirect_first","0","ck06nd02","1","22","1","1","3","1","","0","1","0","894.7349999945145","","","<img src = 'targets/mask.png' width = '100%;'>","75","neg","GS","abstract","4","category4/lin.png","targets/11.png","1","indirect","24",""
"","html-keyboard-response","191","1090989","0.0-10.0-0.9","oa2sems4m5","one_one","1","indirect_first","0","ck06nd02","1","22","1","1","3","1","","0","1","0","null","","","<div style=""font-size:60px;"">+</div>","null","","","","","","","","","",""
"","html-keyboard-response","192","1091081","0.0-10.0-1.9","oa2sems4m5","one_one","1","indirect_first","0","ck06nd02","1","22","1","1","3","1","","0","1","0","null","","","<img src = 'category3/GS3.png' width = '100%;'>","null","","","","","","","","","",""
"","html-keyboard-response","193","1091334","0.0-10.0-2.9","oa2sems4m5","one_one","1","indirect_first","0","ck06nd02","1","22","1","1","3","1","","0","1","0","null","","","<img src = 'targets/38.png' width = '100%;'>","null","","","","","","","","","",""
"","html-keyboard-response","194","1092073","0.0-10.0-3.9","oa2sems4m5","one_one","1","indirect_first","0","ck06nd02","1","22","1","1","3","1","","0","1","0","737.1149999964982","","","<img src = 'targets/mask.png' width = '100%;'>","75","neg","GS","GSnew","3","category3/GS3.png","targets/38.png","1","indirect","25",""
"","html-keyboard-response","195","1093575","0.0-10.0-0.10","oa2sems4m5","one_one","1","indirect_first","0","ck06nd02","1","22","1","1","3","1","","0","1","0","null","","","<div style=""font-size:60px;"">+</div>","null","","","","","","","","","",""
"","html-keyboard-response","196","1093666","0.0-10.0-1.10","oa2sems4m5","one_one","1","indirect_first","0","ck06nd02","1","22","1","1","3","1","","0","1","0","null","","","<img src = 'category2/GS3.png' width = '100%;'>","null","","","","","","","","","",""
"","html-keyboard-response","197","1093919","0.0-10.0-2.10","oa2sems4m5","one_one","1","indirect_first","0","ck06nd02","1","22","1","1","3","1","","0","1","0","null","","","<img src = 'targets/9.png' width = '100%;'>","null","","","","","","","","","",""
"","html-keyboard-response","198","1094624","0.0-10.0-3.10","oa2sems4m5","one_one","1","indirect_first","0","ck06nd02","1","22","1","1","3","1","","0","1","0","704.8249999934342","","","<img src = 'targets/mask.png' width = '100%;'>","75","pos","GS","GSnew","2","category2/GS3.png","targets/9.png","1","indirect","26",""
"","html-keyboard-response","199","1096126","0.0-10.0-0.11","oa2sems4m5","one_one","1","indirect_first","0","ck06nd02","1","22","1","1","3","1","","0","1","0","null","","","<div style=""font-size:60px;"">+</div>","null","","","","","","","","","",""
"","html-keyboard-response","200","1096217","0.0-10.0-1.11","oa2sems4m5","one_one","1","indirect_first","0","ck06nd02","1","22","1","1","3","1","","0","1","0","null","","","<img src = 'category1/GS3.png' width = '100%;'>","null","","","","","","","","","",""
"","html-keyboard-response","201","1096469","0.0-10.0-2.11","oa2sems4m5","one_one","1","indirect_first","0","ck06nd02","1","22","1","1","3","1","","0","1","0","null","","","<img src = 'targets/12.png' width = '100%;'>","null","","","","","","","","","",""
"","html-keyboard-response","202","1097385","0.0-10.0-3.11","oa2sems4m5","one_one","1","indirect_first","0","ck06nd02","1","22","1","1","3","1","","0","1","0","915.75","","","<img src = 'targets/mask.png' width = '100%;'>","75","pos","GS","GSnew","1","category1/GS3.png","targets/12.png","1","indirect","27",""
"","html-keyboard-response","203","1098888","0.0-10.0-0.12","oa2sems4m5","one_one","1","indirect_first","0","ck06nd02","1","22","1","1","3","1","","0","1","0","null","","","<div style=""font-size:60px;"">+</div>","null","","","","","","","","","",""
"","html-keyboard-response","204","1098980","0.0-10.0-1.12","oa2sems4m5","one_one","1","indirect_first","0","ck06nd02","1","22","1","1","3","1","","0","1","0","null","","","<img src = 'category1/GS1.png' width = '100%;'>","null","","","","","","","","","",""
"","html-keyboard-response","205","1099232","0.0-10.0-2.12","oa2sems4m5","one_one","1","indirect_first","0","ck06nd02","1","22","1","1","3","1","","0","1","0","null","","","<img src = 'targets/13.png' width = '100%;'>","null","","","","","","","","","",""
"","html-keyboard-response","206","1100192","0.0-10.0-3.12","oa2sems4m5","one_one","1","indirect_first","0","ck06nd02","1","22","1","1","3","1","","0","1","0","958.7549999996554","","","<img src = 'targets/mask.png' width = '100%;'>","75","pos","GS","GSnew","1","category1/GS1.png","targets/13.png","1","indirect","28",""
"","html-keyboard-response","207","1101695","0.0-10.0-0.13","oa2sems4m5","one_one","1","indirect_first","0","ck06nd02","1","22","1","1","3","1","","0","1","0","null","","","<div style=""font-size:60px;"">+</div>","null","","","","","","","","","",""
"","html-keyboard-response","208","1101786","0.0-10.0-1.13","oa2sems4m5","one_one","1","indirect_first","0","ck06nd02","1","22","1","1","3","1","","0","1","0","null","","","<img src = 'category1/GS2.png' width = '100%;'>","null","","","","","","","","","",""
"","html-keyboard-response","209","1102038","0.0-10.0-2.13","oa2sems4m5","one_one","1","indirect_first","0","ck06nd02","1","22","1","1","3","1","","0","1","0","null","","","<img src = 'targets/19.png' width = '100%;'>","null","","","","","","","","","",""
"","html-keyboard-response","210","1103176","0.0-10.0-3.13","oa2sems4m5","one_one","1","indirect_first","0","ck06nd02","1","22","1","1","3","1","","0","1","0","1136.9649999977555","","","<img src = 'targets/mask.png' width = '100%;'>","68","pos","GS","GSnew","1","category1/GS2.png","targets/19.png","0","indirect","29",""
"","html-keyboard-response","211","1104679","0.0-10.0-0.14","oa2sems4m5","one_one","1","indirect_first","0","ck06nd02","1","22","1","1","3","1","","0","1","0","null","","","<div style=""font-size:60px;"">+</div>","null","","","","","","","","","",""
"","html-keyboard-response","212","1104770","0.0-10.0-1.14","oa2sems4m5","one_one","1","indirect_first","0","ck06nd02","1","22","1","1","3","1","","0","1","0","null","","","<img src = 'category3/GS2.png' width = '100%;'>","null","","","","","","","","","",""
"","html-keyboard-response","213","1105022","0.0-10.0-2.14","oa2sems4m5","one_one","1","indirect_first","0","ck06nd02","1","22","1","1","3","1","","0","1","0","null","","","<img src = 'targets/35.png' width = '100%;'>","null","","","","","","","","","",""
"","html-keyboard-response","214","1107289","0.0-10.0-3.14","oa2sems4m5","one_one","1","indirect_first","0","ck06nd02","1","22","1","1","3","1","","0","1","0","2265.55500000529","","","<img src = 'targets/mask.png' width = '100%;'>","75","neg","GS","GSnew","3","category3/GS2.png","targets/35.png","1","indirect","30",""
"","html-keyboard-response","215","1108790","0.0-10.0-0.15","oa2sems4m5","one_one","1","indirect_first","0","ck06nd02","1","22","1","1","3","1","","0","1","0","null","","","<div style=""font-size:60px;"">+</div>","null","","","","","","","","","",""
"","html-keyboard-response","216","1108882","0.0-10.0-1.15","oa2sems4m5","one_one","1","indirect_first","0","ck06nd02","1","22","1","1","3","1","","0","1","0","null","","","<img src = 'category2/GS1.png' width = '100%;'>","null","","","","","","","","","",""
"","html-keyboard-response","217","1109134","0.0-10.0-2.15","oa2sems4m5","one_one","1","indirect_first","0","ck06nd02","1","22","1","1","3","1","","0","1","0","null","","","<img src = 'targets/36.png' width = '100%;'>","null","","","","","","","","","",""
"","html-keyboard-response","218","1109920","0.0-10.0-3.15","oa2sems4m5","one_one","1","indirect_first","0","ck06nd02","1","22","1","1","3","1","","0","1","0","784.814999991795","","","<img src = 'targets/mask.png' width = '100%;'>","68","pos","GS","GSnew","2","category2/GS1.png","targets/36.png","0","indirect","31",""
"","survey-html-form","219","1119992","0.0-11.0","oa2sems4m5","one_one","1","indirect_first","0","ck06nd02","1","22","1","1","3","1","","0","1","0","9570.495000007097","","{}","","","","","","","","","","","",""
"","image-slider-response","220","1133658","0.0-12.0-0.0","oa2sems4m5","one_one","1","indirect_first","0","ck06nd02","1","22","1","1","3","1","","0","1","0","11663.245000003371","","","","","pos","GS","GSnew","2","category2/GS2.png","targets/1.png","","direct","","32"
"","image-slider-response","221","1141424","0.0-12.0-0.1","oa2sems4m5","one_one","1","indirect_first","0","ck06nd02","1","22","1","1","3","1","","0","1","0","7764.299999995157","","","","","pos","CS","CS","1","category1/CS6.png","targets/46.png","","direct","","-100"
"","image-slider-response","222","1144447","0.0-12.0-0.2","oa2sems4m5","one_one","1","indirect_first","0","ck06nd02","1","22","1","1","3","1","","0","1","0","3021.5400000014342","","","","","pos","GS","GSold","1","category1/CS4.png","targets/48.png","","direct","","-100"
"","image-slider-response","223","1148114","0.0-12.0-0.3","oa2sems4m5","one_one","1","indirect_first","0","ck06nd02","1","22","1","1","3","1","","0","1","0","3665.500000002794","","","","","pos","GS","GSold","2","category2/CS8.png","targets/22.png","","direct","","37"
"","image-slider-response","224","1153959","0.0-12.0-0.4","oa2sems4m5","one_one","1","indirect_first","0","ck06nd02","1","22","1","1","3","1","","0","1","0","5843.594999998342","","","","","neg","GS","abstract","3","category3/wang.png","targets/27.png","","direct","","83"
"","image-slider-response","225","1158030","0.0-12.0-0.5","oa2sems4m5","one_one","1","indirect_first","0","ck06nd02","1","22","1","1","3","1","","0","1","0","4069.224999999162","","","","","pos","GS","GSnew","1","category1/GS2.png","targets/19.png","","direct","","-8"
"","image-slider-response","226","1160614","0.0-12.0-0.6","oa2sems4m5","one_one","1","indirect_first","0","ck06nd02","1","22","1","1","3","1","","0","1","0","2582.630000004545","","","","","pos","CS","CS","2","category2/CS7.png","targets/39.png","","direct","","100"
"","image-slider-response","227","1163370","0.0-12.0-0.7","oa2sems4m5","one_one","1","indirect_first","0","ck06nd02","1","22","1","1","3","1","","0","1","0","2754.809999998659","","","","","pos","GS","GSold","2","category2/CS1.png","targets/43.png","","direct","","100"
"","image-slider-response","228","1167016","0.0-12.0-0.8","oa2sems4m5","one_one","1","indirect_first","0","ck06nd02","1","22","1","1","3","1","","0","1","0","3644.7199999967124","","","","","neg","GS","GSnew","3","category3/GS1.png","targets/28.png","","direct","","-83"
"","image-slider-response","229","1171982","0.0-12.0-0.9","oa2sems4m5","one_one","1","indirect_first","0","ck06nd02","1","22","1","1","3","1","","0","1","0","4964.420000003884","","","","","neg","GS","GSold","3","category3/CS9.png","targets/45.png","","direct","","-97"
"","image-slider-response","230","1177020","0.0-12.0-0.10","oa2sems4m5","one_one","1","indirect_first","0","ck06nd02","1","22","1","1","3","1","","0","1","0","5036.604999986477","","","","","neg","GS","GSnew","3","category3/GS2.png","targets/35.png","","direct","","-79"
"","image-slider-response","231","1180745","0.0-12.0-0.11","oa2sems4m5","one_one","1","indirect_first","0","ck06nd02","1","22","1","1","3","1","","0","1","0","3723.5750000108965","","","","","neg","CS","CS","3","category3/CS4.png","targets/16.png","","direct","","-100"
"","image-slider-response","232","1185858","0.0-12.0-0.12","oa2sems4m5","one_one","1","indirect_first","0","ck06nd02","1","22","1","1","3","1","","0","1","0","5111.720000000903","","","","","neg","GS","GSnew","4","category4/GS1.png","targets/23.png","","direct","","70"
"","image-slider-response","233","1188351","0.0-12.0-0.13","oa2sems4m5","one_one","1","indirect_first","0","ck06nd02","1","22","1","1","3","1","","0","1","0","2491.2499999920838","","","","","pos","GS","GSnew","2","category2/GS3.png","targets/9.png","","direct","","32"
"","image-slider-response","234","1191341","0.0-12.0-0.14","oa2sems4m5","one_one","1","indirect_first","0","ck06nd02","1","22","1","1","3","1","","0","1","0","2988.4049999965355","","","","","pos","GS","GSnew","1","category1/GS1.png","targets/13.png","","direct","","71"
"","image-slider-response","235","1195132","0.0-12.0-0.15","oa2sems4m5","one_one","1","indirect_first","0","ck06nd02","1","22","1","1","3","1","","0","1","0","3789.5100000023376","","","","","neg","GS","GSold","3","category3/CS8.png","targets/18.png","","direct","","43"
"","image-slider-response","236","1198037","0.0-12.0-0.16","oa2sems4m5","one_one","1","indirect_first","0","ck06nd02","1","22","1","1","3","1","","0","1","0","2903.330000001006","","","","","neg","GS","GSold","4","category4/CS1.png","targets/41.png","","direct","","73"
"","image-slider-response","237","1200973","0.0-12.0-0.17","oa2sems4m5","one_one","1","indirect_first","0","ck06nd02","1","22","1","1","3","1","","0","1","0","2933.975000007311","","","","","pos","GS","GSold","2","category2/CS5.png","targets/2.png","","direct","","100"
"","image-slider-response","238","1205020","0.0-12.0-0.18","oa2sems4m5","one_one","1","indirect_first","0","ck06nd02","1","22","1","1","3","1","","0","1","0","4046.0349999922328","","","","","pos","GS","GSold","1","category1/CS9.png","targets/44.png","","direct","","68"
"","image-slider-response","239","1210003","0.0-12.0-0.19","oa2sems4m5","one_one","1","indirect_first","0","ck06nd02","1","22","1","1","3","1","","0","1","0","4981.2849999871105","","","","","neg","CS","CS","4","category4/CS3.png","targets/42.png","","direct","","-9"
"","image-slider-response","240","1213465","0.0-12.0-0.20","oa2sems4m5","one_one","1","indirect_first","0","ck06nd02","1","22","1","1","3","1","","0","1","0","3460.615000003716","","","","","neg","GS","GSold","4","category4/CS4.png","targets/15.png","","direct","","7"
"","image-slider-response","241","1216992","0.0-12.0-0.21","oa2sems4m5","one_one","1","indirect_first","0","ck06nd02","1","22","1","1","3","1","","0","1","0","3525.795000008773","","","","","pos","GS","GSold","1","category1/CS10.png","targets/5.png","","direct","","-27"
"","image-slider-response","242","1220017","0.0-12.0-0.22","oa2sems4m5","one_one","1","indirect_first","0","ck06nd02","1","22","1","1","3","1","","0","1","0","3023.549999998184","","","","","neg","GS","GSnew","3","category3/GS3.png","targets/38.png","","direct","","16"
"","image-slider-response","243","1226385","0.0-12.0-0.23","oa2sems4m5","one_one","1","indirect_first","0","ck06nd02","1","22","1","1","3","1","","0","1","0","6366.27500000759","","","","","pos","GS","GSnew","2","category2/GS1.png","targets/36.png","","direct","","11"
"","image-slider-response","244","1228823","0.0-12.0-0.24","oa2sems4m5","one_one","1","indirect_first","0","ck06nd02","1","22","1","1","3","1","","0","1","0","2436.3499999889173","","","","","neg","GS","GSold","3","category3/CS6.png","targets/4.png","","direct","","-40"
"","image-slider-response","245","1232050","0.0-12.0-0.25","oa2sems4m5","one_one","1","indirect_first","0","ck06nd02","1","22","1","1","3","1","","0","1","0","3225.7450000033714","","","","","neg","GS","GSnew","4","category4/GS2.png","targets/10.png","","direct","","53"
"","image-slider-response","246","1234850","0.0-12.0-0.26","oa2sems4m5","one_one","1","indirect_first","0","ck06nd02","1","22","1","1","3","1","","0","1","0","2798.5000000046566","","","","","pos","GS","GSnew","1","category1/GS3.png","targets/12.png","","direct","","-39"
"","image-slider-response","247","1238622","0.0-12.0-0.27","oa2sems4m5","one_one","1","indirect_first","0","ck06nd02","1","22","1","1","3","1","","0","1","0","3770.7800000060815","","","","","neg","GS","GSold","4","category4/CS8.png","targets/8.png","","direct","","100"
"","image-slider-response","248","1241032","0.0-12.0-0.28","oa2sems4m5","one_one","1","indirect_first","0","ck06nd02","1","22","1","1","3","1","","0","1","0","2408.5000000051223","","","","","pos","GS","abstract","2","category2/men.png","targets/7.png","","direct","","100"
"","image-slider-response","249","1244710","0.0-12.0-0.29","oa2sems4m5","one_one","1","indirect_first","0","ck06nd02","1","22","1","1","3","1","","0","1","0","3676.785000003176","","","","","neg","GS","abstract","4","category4/lin.png","targets/11.png","","direct","","100"
"","image-slider-response","250","1249894","0.0-12.0-0.30","oa2sems4m5","one_one","1","indirect_first","0","ck06nd02","1","22","1","1","3","1","","0","1","0","5182.789999991655","","","","","pos","GS","abstract","1","category1/ma.png","targets/37.png","","direct","","-33"
"","image-slider-response","251","1252925","0.0-12.0-0.31","oa2sems4m5","one_one","1","indirect_first","0","ck06nd02","1","22","1","1","3","1","","0","1","0","3029.7299999946263","","","","","neg","GS","GSnew","4","category4/GS3.png","targets/24.png","","direct","","63"
"","survey-html-form","252","1258429","0.0-13.0","oa2sems4m5","one_one","1","indirect_first","0","ck06nd02","1","22","1","1","3","1","","0","1","0","5503.000000011409","","{}","","","","","","","","","","","",""
"","image-slider-response","253","1272293","0.0-14.0-0.0","oa2sems4m5","one_one","1","indirect_first","0","ck06nd02","1","22","1","1","3","1","","0","1","0","12861.279999997234","","","","","neg","All","all","4","category4/lin_all.png","","","all","","7"
"","image-slider-response","254","1280786","0.0-14.0-0.1","oa2sems4m5","one_one","1","indirect_first","0","ck06nd02","1","22","1","1","3","1","","0","1","0","8491.594999999506","","","","","pos","All","all","2","category2/men_all.png","","","all","","62"
"","image-slider-response","255","1284998","0.0-14.0-0.2","oa2sems4m5","one_one","1","indirect_first","0","ck06nd02","1","22","1","1","3","1","","0","1","0","4210.484999988694","","","","","pos","All","all","1","category1/ma_all.png","","","all","","-49"
"","image-slider-response","256","1290557","0.0-14.0-0.3","oa2sems4m5","one_one","1","indirect_first","0","ck06nd02","1","22","1","1","3","1","","0","1","0","5557.800000009593","","","","","neg","All","all","3","category3/wang_all.png","","","all","","-93"
"","survey-text","257","1293165","0.0-15.0","oa2sems4m5","one_one","1","indirect_first","0","ck06nd02","1","22","1","1","3","1","","0","1","0","2595.195000001695","","{""comment"":""""}","","","","","","","","","","","",""
"","survey-html-form","258","1306979","0.0-16.0","oa2sems4m5","one_one","1","indirect_first","0","ck06nd02","1","22","1","1","3","1","","0","1","0","13811.784999998054","","{""hinschauen"":""0"",""ablenkung"":""1"",""gewissenhaft"":""0""}","","","","","","","","","","","",""
