"success","trial_type","trial_index","time_elapsed","internal_node_id","subject","condition","condition_code","measure","measure_code","codeword","gender","age","education","chinese","fach","handedness","comment","hinschauen","ablenkung","gewissenhaft","rt","url","responses","stimulus","key_press","val","type","type_specific","category","cs_selected","target","indirect","task","nr_pres","response"
"true","fullscreen","0","2358","0.0-0.0","ldamhxqdo6","many_one","0","indirect_first","0","er09er23","1","20","1","0","3","2","","0","0","0","","","","","","","","","","","","","","",""
"","external-html","1","35153","0.0-1.0","ldamhxqdo6","many_one","0","indirect_first","0","er09er23","1","20","1","0","3","2","","0","0","0","32762.08999985829","text/information.html","","","","","","","","","","","","",""
"","external-html","2","43074","0.0-2.0","ldamhxqdo6","many_one","0","indirect_first","0","er09er23","1","20","1","0","3","2","","0","0","0","7865.834999829531","text/consent.html","","","","","","","","","","","","",""
"","survey-html-form","3","113410","0.0-3.0","ldamhxqdo6","many_one","0","indirect_first","0","er09er23","1","20","1","0","3","2","","0","0","0","70327.67999963835","","{""codeword_enter"":""er09er23""}","","","","","","","","","","","",""
"","survey-html-form","4","128057","0.0-4.0","ldamhxqdo6","many_one","0","indirect_first","0","er09er23","1","20","1","0","3","2","","0","0","0","14639.675000216812","","{""age"":""20"",""education"":""1"",""subject"":""3"",""gender"":""1"",""handedness"":""2"",""chinese"":""0""}","","","","","","","","","","","",""
"","survey-html-form","5","161585","0.0-5.0","ldamhxqdo6","many_one","0","indirect_first","0","er09er23","1","20","1","0","3","2","","0","0","0","33520.15000022948","","{}","","","","","","","","","","","",""
"","html-keyboard-response","6","165612","0.0-6.0-0.0-0.0","ldamhxqdo6","many_one","0","indirect_first","0","er09er23","1","20","1","0","3","2","","0","0","0","null","","","<div class = 'row'><div class = 'column'><img src = 'category4/CS6.png' width = '70%;'></div><div class = 'column'><img src = 'uspos/2360.bmp' width = '100%;'></div></div>","null","pos","CS","CS","4","category4/CS6.png","","","","",""
"","html-keyboard-response","7","168118","0.0-6.0-0.0-0.1","ldamhxqdo6","many_one","0","indirect_first","0","er09er23","1","20","1","0","3","2","","0","0","0","null","","","<div class = 'row'><div class = 'column'><img src = 'usneg/6020.bmp' width = '100%;'></div><div class = 'column'><img src = 'category1/CS2.png' width = '70%;'></div></div>","null","neg","CS","CS","1","category1/CS2.png","","","","",""
"","html-keyboard-response","8","170638","0.0-6.0-0.0-0.2","ldamhxqdo6","many_one","0","indirect_first","0","er09er23","1","20","1","0","3","2","","0","0","0","null","","","<div class = 'row'><div class = 'column'><img src = 'category4/CS1.png' width = '70%;'></div><div class = 'column'><img src = 'uspos/2340.bmp' width = '100%;'></div></div>","null","pos","CS","CS","4","category4/CS1.png","","","","",""
"","html-keyboard-response","9","173160","0.0-6.0-0.0-0.3","ldamhxqdo6","many_one","0","indirect_first","0","er09er23","1","20","1","0","3","2","","0","0","0","null","","","<div class = 'row'><div class = 'column'><img src = 'category1/CS8.png' width = '70%;'></div><div class = 'column'><img src = 'usneg/9340.bmp' width = '100%;'></div></div>","null","neg","CS","CS","1","category1/CS8.png","","","","",""
"","html-keyboard-response","10","175678","0.0-6.0-0.0-0.4","ldamhxqdo6","many_one","0","indirect_first","0","er09er23","1","20","1","0","3","2","","0","0","0","null","","","<div class = 'row'><div class = 'column'><img src = 'category4/CS3.png' width = '70%;'></div><div class = 'column'><img src = 'uspos/5629.bmp' width = '100%;'></div></div>","null","pos","CS","CS","4","category4/CS3.png","","","","",""
"","html-keyboard-response","11","178191","0.0-6.0-0.0-0.5","ldamhxqdo6","many_one","0","indirect_first","0","er09er23","1","20","1","0","3","2","","0","0","0","null","","","<div class = 'row'><div class = 'column'><img src = 'usneg/9635.2.bmp' width = '100%;'></div><div class = 'column'><img src = 'category2/CS10.png' width = '70%;'></div></div>","null","neg","CS","CS","2","category2/CS10.png","","","","",""
"","html-keyboard-response","12","180698","0.0-6.0-0.0-0.6","ldamhxqdo6","many_one","0","indirect_first","0","er09er23","1","20","1","0","3","2","","0","0","0","null","","","<div class = 'row'><div class = 'column'><img src = 'uspos/7580.bmp' width = '100%;'></div><div class = 'column'><img src = 'category4/CS2.png' width = '70%;'></div></div>","null","pos","CS","CS","4","category4/CS2.png","","","","",""
"","html-keyboard-response","13","183214","0.0-6.0-0.0-0.7","ldamhxqdo6","many_one","0","indirect_first","0","er09er23","1","20","1","0","3","2","","0","0","0","null","","","<div class = 'row'><div class = 'column'><img src = 'category3/CS8.png' width = '70%;'></div><div class = 'column'><img src = 'uspos/2040.bmp' width = '100%;'></div></div>","null","pos","CS","CS","3","category3/CS8.png","","","","",""
"","html-keyboard-response","14","185723","0.0-6.0-0.0-0.8","ldamhxqdo6","many_one","0","indirect_first","0","er09er23","1","20","1","0","3","2","","0","0","0","null","","","<div class = 'row'><div class = 'column'><img src = 'uspos/2150.bmp' width = '100%;'></div><div class = 'column'><img src = 'category3/CS4.png' width = '70%;'></div></div>","null","pos","CS","CS","3","category3/CS4.png","","","","",""
"","html-keyboard-response","15","188248","0.0-6.0-0.0-0.9","ldamhxqdo6","many_one","0","indirect_first","0","er09er23","1","20","1","0","3","2","","0","0","0","null","","","<div class = 'row'><div class = 'column'><img src = 'uspos/8461.bmp' width = '100%;'></div><div class = 'column'><img src = 'category3/CS9.png' width = '70%;'></div></div>","null","pos","CS","CS","3","category3/CS9.png","","","","",""
"","html-keyboard-response","16","190759","0.0-6.0-0.0-0.10","ldamhxqdo6","many_one","0","indirect_first","0","er09er23","1","20","1","0","3","2","","0","0","0","null","","","<div class = 'row'><div class = 'column'><img src = 'category4/CS7.png' width = '70%;'></div><div class = 'column'><img src = 'uspos/2057.bmp' width = '100%;'></div></div>","null","pos","CS","CS","4","category4/CS7.png","","","","",""
"","html-keyboard-response","17","193288","0.0-6.0-0.0-0.11","ldamhxqdo6","many_one","0","indirect_first","0","er09er23","1","20","1","0","3","2","","0","0","0","null","","","<div class = 'row'><div class = 'column'><img src = 'uspos/2058.bmp' width = '100%;'></div><div class = 'column'><img src = 'category3/CS10.png' width = '70%;'></div></div>","null","pos","CS","CS","3","category3/CS10.png","","","","",""
"","html-keyboard-response","18","195812","0.0-6.0-0.0-0.12","ldamhxqdo6","many_one","0","indirect_first","0","er09er23","1","20","1","0","3","2","","0","0","0","null","","","<div class = 'row'><div class = 'column'><img src = 'usneg/9181.bmp' width = '100%;'></div><div class = 'column'><img src = 'category2/CS2.png' width = '70%;'></div></div>","null","neg","CS","CS","2","category2/CS2.png","","","","",""
"","html-keyboard-response","19","198325","0.0-6.0-0.0-0.13","ldamhxqdo6","many_one","0","indirect_first","0","er09er23","1","20","1","0","3","2","","0","0","0","null","","","<div class = 'row'><div class = 'column'><img src = 'category1/CS6.png' width = '70%;'></div><div class = 'column'><img src = 'usneg/2205.bmp' width = '100%;'></div></div>","null","neg","CS","CS","1","category1/CS6.png","","","","",""
"","html-keyboard-response","20","200846","0.0-6.0-0.0-0.14","ldamhxqdo6","many_one","0","indirect_first","0","er09er23","1","20","1","0","3","2","","0","0","0","null","","","<div class = 'row'><div class = 'column'><img src = 'usneg/6570.1.bmp' width = '100%;'></div><div class = 'column'><img src = 'category1/CS7.png' width = '70%;'></div></div>","null","neg","CS","CS","1","category1/CS7.png","","","","",""
"","html-keyboard-response","21","203357","0.0-6.0-0.0-0.15","ldamhxqdo6","many_one","0","indirect_first","0","er09er23","1","20","1","0","3","2","","0","0","0","null","","","<div class = 'row'><div class = 'column'><img src = 'category2/CS4.png' width = '70%;'></div><div class = 'column'><img src = 'usneg/9584.bmp' width = '100%;'></div></div>","null","neg","CS","CS","2","category2/CS4.png","","","","",""
"","html-keyboard-response","22","205872","0.0-6.0-0.0-0.16","ldamhxqdo6","many_one","0","indirect_first","0","er09er23","1","20","1","0","3","2","","0","0","0","null","","","<div class = 'row'><div class = 'column'><img src = 'uspos/2550.bmp' width = '100%;'></div><div class = 'column'><img src = 'category3/CS2.png' width = '70%;'></div></div>","null","pos","CS","CS","3","category3/CS2.png","","","","",""
"","html-keyboard-response","23","208396","0.0-6.0-0.0-0.17","ldamhxqdo6","many_one","0","indirect_first","0","er09er23","1","20","1","0","3","2","","0","0","0","null","","","<div class = 'row'><div class = 'column'><img src = 'usneg/9560.bmp' width = '100%;'></div><div class = 'column'><img src = 'category2/CS6.png' width = '70%;'></div></div>","null","neg","CS","CS","2","category2/CS6.png","","","","",""
"","html-keyboard-response","24","210910","0.0-6.0-0.0-0.18","ldamhxqdo6","many_one","0","indirect_first","0","er09er23","1","20","1","0","3","2","","0","0","0","null","","","<div class = 'row'><div class = 'column'><img src = 'category1/CS1.png' width = '70%;'></div><div class = 'column'><img src = 'usneg/2141.bmp' width = '100%;'></div></div>","null","neg","CS","CS","1","category1/CS1.png","","","","",""
"","html-keyboard-response","25","213425","0.0-6.0-0.0-0.19","ldamhxqdo6","many_one","0","indirect_first","0","er09er23","1","20","1","0","3","2","","0","0","0","null","","","<div class = 'row'><div class = 'column'><img src = 'category2/CS7.png' width = '70%;'></div><div class = 'column'><img src = 'usneg/3160.bmp' width = '100%;'></div></div>","null","neg","CS","CS","2","category2/CS7.png","","","","",""
"","survey-html-form","26","216505","0.0-6.0-1.0","ldamhxqdo6","many_one","0","indirect_first","0","er09er23","1","20","1","0","3","2","","0","0","0","2576.5449996106327","","{}","","","","","","","","","","","",""
"","html-keyboard-response","27","220535","0.0-6.0-2.0-0.0","ldamhxqdo6","many_one","0","indirect_first","0","er09er23","1","20","1","0","3","2","","0","0","0","null","","","<div class = 'row'><div class = 'column'><img src = 'category2/CS2.png' width = '70%;'></div><div class = 'column'><img src = 'usneg/9181.bmp' width = '100%;'></div></div>","null","neg","CS","CS","2","category2/CS2.png","","","","",""
"","html-keyboard-response","28","223043","0.0-6.0-2.0-0.1","ldamhxqdo6","many_one","0","indirect_first","0","er09er23","1","20","1","0","3","2","","0","0","0","null","","","<div class = 'row'><div class = 'column'><img src = 'category2/CS6.png' width = '70%;'></div><div class = 'column'><img src = 'usneg/9560.bmp' width = '100%;'></div></div>","null","neg","CS","CS","2","category2/CS6.png","","","","",""
"","html-keyboard-response","29","225563","0.0-6.0-2.0-0.2","ldamhxqdo6","many_one","0","indirect_first","0","er09er23","1","20","1","0","3","2","","0","0","0","null","","","<div class = 'row'><div class = 'column'><img src = 'category1/CS1.png' width = '70%;'></div><div class = 'column'><img src = 'usneg/2141.bmp' width = '100%;'></div></div>","null","neg","CS","CS","1","category1/CS1.png","","","","",""
"","html-keyboard-response","30","228083","0.0-6.0-2.0-0.3","ldamhxqdo6","many_one","0","indirect_first","0","er09er23","1","20","1","0","3","2","","0","0","0","null","","","<div class = 'row'><div class = 'column'><img src = 'uspos/2040.bmp' width = '100%;'></div><div class = 'column'><img src = 'category3/CS8.png' width = '70%;'></div></div>","null","pos","CS","CS","3","category3/CS8.png","","","","",""
"","html-keyboard-response","31","230603","0.0-6.0-2.0-0.4","ldamhxqdo6","many_one","0","indirect_first","0","er09er23","1","20","1","0","3","2","","0","0","0","null","","","<div class = 'row'><div class = 'column'><img src = 'usneg/6570.1.bmp' width = '100%;'></div><div class = 'column'><img src = 'category1/CS7.png' width = '70%;'></div></div>","null","neg","CS","CS","1","category1/CS7.png","","","","",""
"","html-keyboard-response","32","233117","0.0-6.0-2.0-0.5","ldamhxqdo6","many_one","0","indirect_first","0","er09er23","1","20","1","0","3","2","","0","0","0","null","","","<div class = 'row'><div class = 'column'><img src = 'uspos/2058.bmp' width = '100%;'></div><div class = 'column'><img src = 'category3/CS10.png' width = '70%;'></div></div>","null","pos","CS","CS","3","category3/CS10.png","","","","",""
"","html-keyboard-response","33","235630","0.0-6.0-2.0-0.6","ldamhxqdo6","many_one","0","indirect_first","0","er09er23","1","20","1","0","3","2","","0","0","0","null","","","<div class = 'row'><div class = 'column'><img src = 'category4/CS3.png' width = '70%;'></div><div class = 'column'><img src = 'uspos/5629.bmp' width = '100%;'></div></div>","null","pos","CS","CS","4","category4/CS3.png","","","","",""
"","html-keyboard-response","34","238148","0.0-6.0-2.0-0.7","ldamhxqdo6","many_one","0","indirect_first","0","er09er23","1","20","1","0","3","2","","0","0","0","null","","","<div class = 'row'><div class = 'column'><img src = 'usneg/3160.bmp' width = '100%;'></div><div class = 'column'><img src = 'category2/CS7.png' width = '70%;'></div></div>","null","neg","CS","CS","2","category2/CS7.png","","","","",""
"","html-keyboard-response","35","240674","0.0-6.0-2.0-0.8","ldamhxqdo6","many_one","0","indirect_first","0","er09er23","1","20","1","0","3","2","","0","0","0","null","","","<div class = 'row'><div class = 'column'><img src = 'category2/CS4.png' width = '70%;'></div><div class = 'column'><img src = 'usneg/9584.bmp' width = '100%;'></div></div>","null","neg","CS","CS","2","category2/CS4.png","","","","",""
"","html-keyboard-response","36","243196","0.0-6.0-2.0-0.9","ldamhxqdo6","many_one","0","indirect_first","0","er09er23","1","20","1","0","3","2","","0","0","0","null","","","<div class = 'row'><div class = 'column'><img src = 'usneg/9635.2.bmp' width = '100%;'></div><div class = 'column'><img src = 'category2/CS10.png' width = '70%;'></div></div>","null","neg","CS","CS","2","category2/CS10.png","","","","",""
"","html-keyboard-response","37","245713","0.0-6.0-2.0-0.10","ldamhxqdo6","many_one","0","indirect_first","0","er09er23","1","20","1","0","3","2","","0","0","0","null","","","<div class = 'row'><div class = 'column'><img src = 'category4/CS6.png' width = '70%;'></div><div class = 'column'><img src = 'uspos/2360.bmp' width = '100%;'></div></div>","null","pos","CS","CS","4","category4/CS6.png","","","","",""
"","html-keyboard-response","38","248237","0.0-6.0-2.0-0.11","ldamhxqdo6","many_one","0","indirect_first","0","er09er23","1","20","1","0","3","2","","0","0","0","null","","","<div class = 'row'><div class = 'column'><img src = 'uspos/7580.bmp' width = '100%;'></div><div class = 'column'><img src = 'category4/CS2.png' width = '70%;'></div></div>","null","pos","CS","CS","4","category4/CS2.png","","","","",""
"","html-keyboard-response","39","250756","0.0-6.0-2.0-0.12","ldamhxqdo6","many_one","0","indirect_first","0","er09er23","1","20","1","0","3","2","","0","0","0","null","","","<div class = 'row'><div class = 'column'><img src = 'usneg/6020.bmp' width = '100%;'></div><div class = 'column'><img src = 'category1/CS2.png' width = '70%;'></div></div>","null","neg","CS","CS","1","category1/CS2.png","","","","",""
"","html-keyboard-response","40","253278","0.0-6.0-2.0-0.13","ldamhxqdo6","many_one","0","indirect_first","0","er09er23","1","20","1","0","3","2","","0","0","0","null","","","<div class = 'row'><div class = 'column'><img src = 'category3/CS9.png' width = '70%;'></div><div class = 'column'><img src = 'uspos/8461.bmp' width = '100%;'></div></div>","null","pos","CS","CS","3","category3/CS9.png","","","","",""
"","html-keyboard-response","41","255793","0.0-6.0-2.0-0.14","ldamhxqdo6","many_one","0","indirect_first","0","er09er23","1","20","1","0","3","2","","0","0","0","null","","","<div class = 'row'><div class = 'column'><img src = 'category4/CS1.png' width = '70%;'></div><div class = 'column'><img src = 'uspos/2340.bmp' width = '100%;'></div></div>","null","pos","CS","CS","4","category4/CS1.png","","","","",""
"","html-keyboard-response","42","258325","0.0-6.0-2.0-0.15","ldamhxqdo6","many_one","0","indirect_first","0","er09er23","1","20","1","0","3","2","","0","0","0","null","","","<div class = 'row'><div class = 'column'><img src = 'usneg/9340.bmp' width = '100%;'></div><div class = 'column'><img src = 'category1/CS8.png' width = '70%;'></div></div>","null","neg","CS","CS","1","category1/CS8.png","","","","",""
"","html-keyboard-response","43","260839","0.0-6.0-2.0-0.16","ldamhxqdo6","many_one","0","indirect_first","0","er09er23","1","20","1","0","3","2","","0","0","0","null","","","<div class = 'row'><div class = 'column'><img src = 'usneg/2205.bmp' width = '100%;'></div><div class = 'column'><img src = 'category1/CS6.png' width = '70%;'></div></div>","null","neg","CS","CS","1","category1/CS6.png","","","","",""
"","html-keyboard-response","44","263347","0.0-6.0-2.0-0.17","ldamhxqdo6","many_one","0","indirect_first","0","er09er23","1","20","1","0","3","2","","0","0","0","null","","","<div class = 'row'><div class = 'column'><img src = 'uspos/2057.bmp' width = '100%;'></div><div class = 'column'><img src = 'category4/CS7.png' width = '70%;'></div></div>","null","pos","CS","CS","4","category4/CS7.png","","","","",""
"","html-keyboard-response","45","265872","0.0-6.0-2.0-0.18","ldamhxqdo6","many_one","0","indirect_first","0","er09er23","1","20","1","0","3","2","","0","0","0","null","","","<div class = 'row'><div class = 'column'><img src = 'category3/CS2.png' width = '70%;'></div><div class = 'column'><img src = 'uspos/2550.bmp' width = '100%;'></div></div>","null","pos","CS","CS","3","category3/CS2.png","","","","",""
"","html-keyboard-response","46","268394","0.0-6.0-2.0-0.19","ldamhxqdo6","many_one","0","indirect_first","0","er09er23","1","20","1","0","3","2","","0","0","0","null","","","<div class = 'row'><div class = 'column'><img src = 'uspos/2150.bmp' width = '100%;'></div><div class = 'column'><img src = 'category3/CS4.png' width = '70%;'></div></div>","null","pos","CS","CS","3","category3/CS4.png","","","","",""
"","survey-html-form","47","270632","0.0-6.0-3.0","ldamhxqdo6","many_one","0","indirect_first","0","er09er23","1","20","1","0","3","2","","0","0","0","1724.0749998018146","","{}","","","","","","","","","","","",""
"","html-keyboard-response","48","274641","0.0-6.0-4.0-0.0","ldamhxqdo6","many_one","0","indirect_first","0","er09er23","1","20","1","0","3","2","","0","0","0","null","","","<div class = 'row'><div class = 'column'><img src = 'uspos/7580.bmp' width = '100%;'></div><div class = 'column'><img src = 'category4/CS2.png' width = '70%;'></div></div>","null","pos","CS","CS","4","category4/CS2.png","","","","",""
"","html-keyboard-response","49","277156","0.0-6.0-4.0-0.1","ldamhxqdo6","many_one","0","indirect_first","0","er09er23","1","20","1","0","3","2","","0","0","0","null","","","<div class = 'row'><div class = 'column'><img src = 'usneg/2141.bmp' width = '100%;'></div><div class = 'column'><img src = 'category1/CS1.png' width = '70%;'></div></div>","null","neg","CS","CS","1","category1/CS1.png","","","","",""
"","html-keyboard-response","50","279661","0.0-6.0-4.0-0.2","ldamhxqdo6","many_one","0","indirect_first","0","er09er23","1","20","1","0","3","2","","0","0","0","null","","","<div class = 'row'><div class = 'column'><img src = 'category3/CS4.png' width = '70%;'></div><div class = 'column'><img src = 'uspos/2150.bmp' width = '100%;'></div></div>","null","pos","CS","CS","3","category3/CS4.png","","","","",""
"","html-keyboard-response","51","282182","0.0-6.0-4.0-0.3","ldamhxqdo6","many_one","0","indirect_first","0","er09er23","1","20","1","0","3","2","","0","0","0","null","","","<div class = 'row'><div class = 'column'><img src = 'category3/CS9.png' width = '70%;'></div><div class = 'column'><img src = 'uspos/8461.bmp' width = '100%;'></div></div>","null","pos","CS","CS","3","category3/CS9.png","","","","",""
"","html-keyboard-response","52","284709","0.0-6.0-4.0-0.4","ldamhxqdo6","many_one","0","indirect_first","0","er09er23","1","20","1","0","3","2","","0","0","0","null","","","<div class = 'row'><div class = 'column'><img src = 'usneg/9340.bmp' width = '100%;'></div><div class = 'column'><img src = 'category1/CS8.png' width = '70%;'></div></div>","null","neg","CS","CS","1","category1/CS8.png","","","","",""
"","html-keyboard-response","53","287220","0.0-6.0-4.0-0.5","ldamhxqdo6","many_one","0","indirect_first","0","er09er23","1","20","1","0","3","2","","0","0","0","null","","","<div class = 'row'><div class = 'column'><img src = 'category4/CS6.png' width = '70%;'></div><div class = 'column'><img src = 'uspos/2360.bmp' width = '100%;'></div></div>","null","pos","CS","CS","4","category4/CS6.png","","","","",""
"","html-keyboard-response","54","289748","0.0-6.0-4.0-0.6","ldamhxqdo6","many_one","0","indirect_first","0","er09er23","1","20","1","0","3","2","","0","0","0","null","","","<div class = 'row'><div class = 'column'><img src = 'category3/CS10.png' width = '70%;'></div><div class = 'column'><img src = 'uspos/2058.bmp' width = '100%;'></div></div>","null","pos","CS","CS","3","category3/CS10.png","","","","",""
"","html-keyboard-response","55","292263","0.0-6.0-4.0-0.7","ldamhxqdo6","many_one","0","indirect_first","0","er09er23","1","20","1","0","3","2","","0","0","0","null","","","<div class = 'row'><div class = 'column'><img src = 'category1/CS2.png' width = '70%;'></div><div class = 'column'><img src = 'usneg/6020.bmp' width = '100%;'></div></div>","null","neg","CS","CS","1","category1/CS2.png","","","","",""
"","html-keyboard-response","56","294777","0.0-6.0-4.0-0.8","ldamhxqdo6","many_one","0","indirect_first","0","er09er23","1","20","1","0","3","2","","0","0","0","null","","","<div class = 'row'><div class = 'column'><img src = 'category3/CS8.png' width = '70%;'></div><div class = 'column'><img src = 'uspos/2040.bmp' width = '100%;'></div></div>","null","pos","CS","CS","3","category3/CS8.png","","","","",""
"","html-keyboard-response","57","297309","0.0-6.0-4.0-0.9","ldamhxqdo6","many_one","0","indirect_first","0","er09er23","1","20","1","0","3","2","","0","0","0","null","","","<div class = 'row'><div class = 'column'><img src = 'category2/CS6.png' width = '70%;'></div><div class = 'column'><img src = 'usneg/9560.bmp' width = '100%;'></div></div>","null","neg","CS","CS","2","category2/CS6.png","","","","",""
"","html-keyboard-response","58","299828","0.0-6.0-4.0-0.10","ldamhxqdo6","many_one","0","indirect_first","0","er09er23","1","20","1","0","3","2","","0","0","0","null","","","<div class = 'row'><div class = 'column'><img src = 'category3/CS2.png' width = '70%;'></div><div class = 'column'><img src = 'uspos/2550.bmp' width = '100%;'></div></div>","null","pos","CS","CS","3","category3/CS2.png","","","","",""
"","html-keyboard-response","59","302348","0.0-6.0-4.0-0.11","ldamhxqdo6","many_one","0","indirect_first","0","er09er23","1","20","1","0","3","2","","0","0","0","null","","","<div class = 'row'><div class = 'column'><img src = 'category2/CS10.png' width = '70%;'></div><div class = 'column'><img src = 'usneg/9635.2.bmp' width = '100%;'></div></div>","null","neg","CS","CS","2","category2/CS10.png","","","","",""
"","html-keyboard-response","60","304862","0.0-6.0-4.0-0.12","ldamhxqdo6","many_one","0","indirect_first","0","er09er23","1","20","1","0","3","2","","0","0","0","null","","","<div class = 'row'><div class = 'column'><img src = 'category2/CS4.png' width = '70%;'></div><div class = 'column'><img src = 'usneg/9584.bmp' width = '100%;'></div></div>","null","neg","CS","CS","2","category2/CS4.png","","","","",""
"","html-keyboard-response","61","307384","0.0-6.0-4.0-0.13","ldamhxqdo6","many_one","0","indirect_first","0","er09er23","1","20","1","0","3","2","","0","0","0","null","","","<div class = 'row'><div class = 'column'><img src = 'uspos/2340.bmp' width = '100%;'></div><div class = 'column'><img src = 'category4/CS1.png' width = '70%;'></div></div>","null","pos","CS","CS","4","category4/CS1.png","","","","",""
"","html-keyboard-response","62","309906","0.0-6.0-4.0-0.14","ldamhxqdo6","many_one","0","indirect_first","0","er09er23","1","20","1","0","3","2","","0","0","0","null","","","<div class = 'row'><div class = 'column'><img src = 'uspos/2057.bmp' width = '100%;'></div><div class = 'column'><img src = 'category4/CS7.png' width = '70%;'></div></div>","null","pos","CS","CS","4","category4/CS7.png","","","","",""
"","html-keyboard-response","63","312423","0.0-6.0-4.0-0.15","ldamhxqdo6","many_one","0","indirect_first","0","er09er23","1","20","1","0","3","2","","0","0","0","null","","","<div class = 'row'><div class = 'column'><img src = 'uspos/5629.bmp' width = '100%;'></div><div class = 'column'><img src = 'category4/CS3.png' width = '70%;'></div></div>","null","pos","CS","CS","4","category4/CS3.png","","","","",""
"","html-keyboard-response","64","314933","0.0-6.0-4.0-0.16","ldamhxqdo6","many_one","0","indirect_first","0","er09er23","1","20","1","0","3","2","","0","0","0","null","","","<div class = 'row'><div class = 'column'><img src = 'usneg/3160.bmp' width = '100%;'></div><div class = 'column'><img src = 'category2/CS7.png' width = '70%;'></div></div>","null","neg","CS","CS","2","category2/CS7.png","","","","",""
"","html-keyboard-response","65","317443","0.0-6.0-4.0-0.17","ldamhxqdo6","many_one","0","indirect_first","0","er09er23","1","20","1","0","3","2","","0","0","0","null","","","<div class = 'row'><div class = 'column'><img src = 'usneg/2205.bmp' width = '100%;'></div><div class = 'column'><img src = 'category1/CS6.png' width = '70%;'></div></div>","null","neg","CS","CS","1","category1/CS6.png","","","","",""
"","html-keyboard-response","66","319967","0.0-6.0-4.0-0.18","ldamhxqdo6","many_one","0","indirect_first","0","er09er23","1","20","1","0","3","2","","0","0","0","null","","","<div class = 'row'><div class = 'column'><img src = 'category2/CS2.png' width = '70%;'></div><div class = 'column'><img src = 'usneg/9181.bmp' width = '100%;'></div></div>","null","neg","CS","CS","2","category2/CS2.png","","","","",""
"","html-keyboard-response","67","322496","0.0-6.0-4.0-0.19","ldamhxqdo6","many_one","0","indirect_first","0","er09er23","1","20","1","0","3","2","","0","0","0","null","","","<div class = 'row'><div class = 'column'><img src = 'category1/CS7.png' width = '70%;'></div><div class = 'column'><img src = 'usneg/6570.1.bmp' width = '100%;'></div></div>","null","neg","CS","CS","1","category1/CS7.png","","","","",""
"","survey-html-form","68","324280","0.0-6.0-5.0","ldamhxqdo6","many_one","0","indirect_first","0","er09er23","1","20","1","0","3","2","","0","0","0","1273.9599999040365","","{}","","","","","","","","","","","",""
"","html-keyboard-response","69","328311","0.0-6.0-6.0-0.0","ldamhxqdo6","many_one","0","indirect_first","0","er09er23","1","20","1","0","3","2","","0","0","0","null","","","<div class = 'row'><div class = 'column'><img src = 'usneg/2141.bmp' width = '100%;'></div><div class = 'column'><img src = 'category1/CS1.png' width = '70%;'></div></div>","null","neg","CS","CS","1","category1/CS1.png","","","","",""
"","html-keyboard-response","70","330833","0.0-6.0-6.0-0.1","ldamhxqdo6","many_one","0","indirect_first","0","er09er23","1","20","1","0","3","2","","0","0","0","null","","","<div class = 'row'><div class = 'column'><img src = 'category1/CS7.png' width = '70%;'></div><div class = 'column'><img src = 'usneg/6570.1.bmp' width = '100%;'></div></div>","null","neg","CS","CS","1","category1/CS7.png","","","","",""
"","html-keyboard-response","71","333352","0.0-6.0-6.0-0.2","ldamhxqdo6","many_one","0","indirect_first","0","er09er23","1","20","1","0","3","2","","0","0","0","null","","","<div class = 'row'><div class = 'column'><img src = 'category2/CS6.png' width = '70%;'></div><div class = 'column'><img src = 'usneg/9560.bmp' width = '100%;'></div></div>","null","neg","CS","CS","2","category2/CS6.png","","","","",""
"","html-keyboard-response","72","335866","0.0-6.0-6.0-0.3","ldamhxqdo6","many_one","0","indirect_first","0","er09er23","1","20","1","0","3","2","","0","0","0","null","","","<div class = 'row'><div class = 'column'><img src = 'usneg/9635.2.bmp' width = '100%;'></div><div class = 'column'><img src = 'category2/CS10.png' width = '70%;'></div></div>","null","neg","CS","CS","2","category2/CS10.png","","","","",""
"","html-keyboard-response","73","338389","0.0-6.0-6.0-0.4","ldamhxqdo6","many_one","0","indirect_first","0","er09er23","1","20","1","0","3","2","","0","0","0","null","","","<div class = 'row'><div class = 'column'><img src = 'uspos/2040.bmp' width = '100%;'></div><div class = 'column'><img src = 'category3/CS8.png' width = '70%;'></div></div>","null","pos","CS","CS","3","category3/CS8.png","","","","",""
"","html-keyboard-response","74","340910","0.0-6.0-6.0-0.5","ldamhxqdo6","many_one","0","indirect_first","0","er09er23","1","20","1","0","3","2","","0","0","0","null","","","<div class = 'row'><div class = 'column'><img src = 'category2/CS7.png' width = '70%;'></div><div class = 'column'><img src = 'usneg/3160.bmp' width = '100%;'></div></div>","null","neg","CS","CS","2","category2/CS7.png","","","","",""
"","html-keyboard-response","75","343443","0.0-6.0-6.0-0.6","ldamhxqdo6","many_one","0","indirect_first","0","er09er23","1","20","1","0","3","2","","0","0","0","null","","","<div class = 'row'><div class = 'column'><img src = 'category4/CS6.png' width = '70%;'></div><div class = 'column'><img src = 'uspos/2360.bmp' width = '100%;'></div></div>","null","pos","CS","CS","4","category4/CS6.png","","","","",""
"","html-keyboard-response","76","345962","0.0-6.0-6.0-0.7","ldamhxqdo6","many_one","0","indirect_first","0","er09er23","1","20","1","0","3","2","","0","0","0","null","","","<div class = 'row'><div class = 'column'><img src = 'category1/CS2.png' width = '70%;'></div><div class = 'column'><img src = 'usneg/6020.bmp' width = '100%;'></div></div>","null","neg","CS","CS","1","category1/CS2.png","","","","",""
"","html-keyboard-response","77","348482","0.0-6.0-6.0-0.8","ldamhxqdo6","many_one","0","indirect_first","0","er09er23","1","20","1","0","3","2","","0","0","0","null","","","<div class = 'row'><div class = 'column'><img src = 'category3/CS10.png' width = '70%;'></div><div class = 'column'><img src = 'uspos/2058.bmp' width = '100%;'></div></div>","null","pos","CS","CS","3","category3/CS10.png","","","","",""
"","html-keyboard-response","78","350997","0.0-6.0-6.0-0.9","ldamhxqdo6","many_one","0","indirect_first","0","er09er23","1","20","1","0","3","2","","0","0","0","null","","","<div class = 'row'><div class = 'column'><img src = 'uspos/8461.bmp' width = '100%;'></div><div class = 'column'><img src = 'category3/CS9.png' width = '70%;'></div></div>","null","pos","CS","CS","3","category3/CS9.png","","","","",""
"","html-keyboard-response","79","353509","0.0-6.0-6.0-0.10","ldamhxqdo6","many_one","0","indirect_first","0","er09er23","1","20","1","0","3","2","","0","0","0","null","","","<div class = 'row'><div class = 'column'><img src = 'category4/CS2.png' width = '70%;'></div><div class = 'column'><img src = 'uspos/7580.bmp' width = '100%;'></div></div>","null","pos","CS","CS","4","category4/CS2.png","","","","",""
"","html-keyboard-response","80","356031","0.0-6.0-6.0-0.11","ldamhxqdo6","many_one","0","indirect_first","0","er09er23","1","20","1","0","3","2","","0","0","0","null","","","<div class = 'row'><div class = 'column'><img src = 'uspos/5629.bmp' width = '100%;'></div><div class = 'column'><img src = 'category4/CS3.png' width = '70%;'></div></div>","null","pos","CS","CS","4","category4/CS3.png","","","","",""
"","html-keyboard-response","81","358548","0.0-6.0-6.0-0.12","ldamhxqdo6","many_one","0","indirect_first","0","er09er23","1","20","1","0","3","2","","0","0","0","null","","","<div class = 'row'><div class = 'column'><img src = 'category2/CS2.png' width = '70%;'></div><div class = 'column'><img src = 'usneg/9181.bmp' width = '100%;'></div></div>","null","neg","CS","CS","2","category2/CS2.png","","","","",""
"","html-keyboard-response","82","361055","0.0-6.0-6.0-0.13","ldamhxqdo6","many_one","0","indirect_first","0","er09er23","1","20","1","0","3","2","","0","0","0","null","","","<div class = 'row'><div class = 'column'><img src = 'usneg/9340.bmp' width = '100%;'></div><div class = 'column'><img src = 'category1/CS8.png' width = '70%;'></div></div>","null","neg","CS","CS","1","category1/CS8.png","","","","",""
"","html-keyboard-response","83","363574","0.0-6.0-6.0-0.14","ldamhxqdo6","many_one","0","indirect_first","0","er09er23","1","20","1","0","3","2","","0","0","0","null","","","<div class = 'row'><div class = 'column'><img src = 'uspos/2057.bmp' width = '100%;'></div><div class = 'column'><img src = 'category4/CS7.png' width = '70%;'></div></div>","null","pos","CS","CS","4","category4/CS7.png","","","","",""
"","html-keyboard-response","84","366096","0.0-6.0-6.0-0.15","ldamhxqdo6","many_one","0","indirect_first","0","er09er23","1","20","1","0","3","2","","0","0","0","null","","","<div class = 'row'><div class = 'column'><img src = 'category4/CS1.png' width = '70%;'></div><div class = 'column'><img src = 'uspos/2340.bmp' width = '100%;'></div></div>","null","pos","CS","CS","4","category4/CS1.png","","","","",""
"","html-keyboard-response","85","368616","0.0-6.0-6.0-0.16","ldamhxqdo6","many_one","0","indirect_first","0","er09er23","1","20","1","0","3","2","","0","0","0","null","","","<div class = 'row'><div class = 'column'><img src = 'uspos/2550.bmp' width = '100%;'></div><div class = 'column'><img src = 'category3/CS2.png' width = '70%;'></div></div>","null","pos","CS","CS","3","category3/CS2.png","","","","",""
"","html-keyboard-response","86","371134","0.0-6.0-6.0-0.17","ldamhxqdo6","many_one","0","indirect_first","0","er09er23","1","20","1","0","3","2","","0","0","0","null","","","<div class = 'row'><div class = 'column'><img src = 'category1/CS6.png' width = '70%;'></div><div class = 'column'><img src = 'usneg/2205.bmp' width = '100%;'></div></div>","null","neg","CS","CS","1","category1/CS6.png","","","","",""
"","html-keyboard-response","87","373643","0.0-6.0-6.0-0.18","ldamhxqdo6","many_one","0","indirect_first","0","er09er23","1","20","1","0","3","2","","0","0","0","null","","","<div class = 'row'><div class = 'column'><img src = 'category2/CS4.png' width = '70%;'></div><div class = 'column'><img src = 'usneg/9584.bmp' width = '100%;'></div></div>","null","neg","CS","CS","2","category2/CS4.png","","","","",""
"","html-keyboard-response","88","376173","0.0-6.0-6.0-0.19","ldamhxqdo6","many_one","0","indirect_first","0","er09er23","1","20","1","0","3","2","","0","0","0","null","","","<div class = 'row'><div class = 'column'><img src = 'uspos/2150.bmp' width = '100%;'></div><div class = 'column'><img src = 'category3/CS4.png' width = '70%;'></div></div>","null","pos","CS","CS","3","category3/CS4.png","","","","",""
"","html-keyboard-response","89","406408","0.0-7.0","ldamhxqdo6","many_one","0","indirect_first","0","er09er23","1","20","1","0","3","2","","0","0","0","29726.494999602437","","","<p>Sie sehen nun die chinesischen Zeichen nur ganz kurz. Danach sehen Sie die jeweilige Aussprache der Zeichen als Silbe auf dem Bildschrim. Ihre Aufgabe ist es, für jede Silbe anzugeben, ob diese etwas angenehmes, oder unangenehmes bedeuten könnte. Verlassen Sie sich hier vor allem auf Ihre Intuition.<br><br>Die Zeichen werden nur zur Orientierung dargestellt, beachten Sie sie deshalb nicht. Konzentrieren Sie sich vor allem auf die Silben. <br>Reagieren Sie mit folgenden zwei Tasten: <br><br><b>'D' </b> wenn die Silbe etwas <b>unangenehmes</b> bedeuten könnte. <br><b>'K'</b> wenn die Silbe etwas <b>angenehmes</b> bedeuten könnte. <br><br>Bitte legen Sie nun den Zeigefinger der linken Hand auf die Taste 'D' und den Zeigefinger der rechten Hand auf die Taste 'K'. <br>Reagieren Sie auf jede Silbe so schnell wie möglich. Uns interessiert Ihre spontane Reaktion. <br> <br> <br>Drücken Sie 'D' oder 'K', um die nächste Aufgabe zu starten. </p>","68","","","","","","","","","",""
"","html-keyboard-response","90","409412","0.0-8.0-0.0","ldamhxqdo6","many_one","0","indirect_first","0","er09er23","1","20","1","0","3","2","","0","0","0","null","","","<div style=""font-size:60px;"">+</div>","null","","","","","","","","","",""
"","html-keyboard-response","91","409520","0.0-8.0-1.0","ldamhxqdo6","many_one","0","indirect_first","0","er09er23","1","20","1","0","3","2","","0","0","0","null","","","<img src = 'category2/CS5.png' width = '100%;'>","null","","","","","","","","","",""
"","html-keyboard-response","92","409785","0.0-8.0-2.0","ldamhxqdo6","many_one","0","indirect_first","0","er09er23","1","20","1","0","3","2","","0","0","0","null","","","<img src = 'targets/6.png' width = '100%;'>","null","","","","","","","","","",""
"","html-keyboard-response","93","409888","0.0-8.0-3.0","ldamhxqdo6","many_one","0","indirect_first","0","er09er23","1","20","1","0","3","2","","0","0","0","101.54000017791986","","","<img src = 'targets/mask.png' width = '100%;'>","68","neg","GS","GSold","2","category2/CS5.png","targets/6.png","0","indirect","0",""
"","html-keyboard-response","94","411409","0.0-8.0-0.1","ldamhxqdo6","many_one","0","indirect_first","0","er09er23","1","20","1","0","3","2","","0","0","0","null","","","<div style=""font-size:60px;"">+</div>","null","","","","","","","","","",""
"","html-keyboard-response","95","411504","0.0-8.0-1.1","ldamhxqdo6","many_one","0","indirect_first","0","er09er23","1","20","1","0","3","2","","0","0","0","null","","","<img src = 'category2/CS2.png' width = '100%;'>","null","","","","","","","","","",""
"","html-keyboard-response","96","411768","0.0-8.0-2.1","ldamhxqdo6","many_one","0","indirect_first","0","er09er23","1","20","1","0","3","2","","0","0","0","null","","","<img src = 'targets/29.png' width = '100%;'>","null","","","","","","","","","",""
"","html-keyboard-response","97","413913","0.0-8.0-3.1","ldamhxqdo6","many_one","0","indirect_first","0","er09er23","1","20","1","0","3","2","","0","0","0","2142.974999733269","","","<img src = 'targets/mask.png' width = '100%;'>","75","neg","CS","CS","2","category2/CS2.png","targets/29.png","1","indirect","1",""
"","html-keyboard-response","98","415429","0.0-8.0-0.2","ldamhxqdo6","many_one","0","indirect_first","0","er09er23","1","20","1","0","3","2","","0","0","0","null","","","<div style=""font-size:60px;"">+</div>","null","","","","","","","","","",""
"","html-keyboard-response","99","415521","0.0-8.0-1.2","ldamhxqdo6","many_one","0","indirect_first","0","er09er23","1","20","1","0","3","2","","0","0","0","null","","","<img src = 'category2/CS4.png' width = '100%;'>","null","","","","","","","","","",""
"","html-keyboard-response","100","415785","0.0-8.0-2.2","ldamhxqdo6","many_one","0","indirect_first","0","er09er23","1","20","1","0","3","2","","0","0","0","null","","","<img src = 'targets/30.png' width = '100%;'>","null","","","","","","","","","",""
"","html-keyboard-response","101","418008","0.0-8.0-3.2","ldamhxqdo6","many_one","0","indirect_first","0","er09er23","1","20","1","0","3","2","","0","0","0","2219.705000054091","","","<img src = 'targets/mask.png' width = '100%;'>","68","neg","CS","CS","2","category2/CS4.png","targets/30.png","0","indirect","2",""
"","html-keyboard-response","102","419520","0.0-8.0-0.3","ldamhxqdo6","many_one","0","indirect_first","0","er09er23","1","20","1","0","3","2","","0","0","0","null","","","<div style=""font-size:60px;"">+</div>","null","","","","","","","","","",""
"","html-keyboard-response","103","419620","0.0-8.0-1.3","ldamhxqdo6","many_one","0","indirect_first","0","er09er23","1","20","1","0","3","2","","0","0","0","null","","","<img src = 'category2/CS3.png' width = '100%;'>","null","","","","","","","","","",""
"","html-keyboard-response","104","419884","0.0-8.0-2.3","ldamhxqdo6","many_one","0","indirect_first","0","er09er23","1","20","1","0","3","2","","0","0","0","null","","","<img src = 'targets/18.png' width = '100%;'>","null","","","","","","","","","",""
"","html-keyboard-response","105","420572","0.0-8.0-3.3","ldamhxqdo6","many_one","0","indirect_first","0","er09er23","1","20","1","0","3","2","","0","0","0","684.4399999827147","","","<img src = 'targets/mask.png' width = '100%;'>","68","neg","GS","GSold","2","category2/CS3.png","targets/18.png","0","indirect","3",""
"","html-keyboard-response","106","422079","0.0-8.0-0.4","ldamhxqdo6","many_one","0","indirect_first","0","er09er23","1","20","1","0","3","2","","0","0","0","null","","","<div style=""font-size:60px;"">+</div>","null","","","","","","","","","",""
"","html-keyboard-response","107","422186","0.0-8.0-1.4","ldamhxqdo6","many_one","0","indirect_first","0","er09er23","1","20","1","0","3","2","","0","0","0","null","","","<img src = 'category2/CS6.png' width = '100%;'>","null","","","","","","","","","",""
"","html-keyboard-response","108","422451","0.0-8.0-2.4","ldamhxqdo6","many_one","0","indirect_first","0","er09er23","1","20","1","0","3","2","","0","0","0","null","","","<img src = 'targets/33.png' width = '100%;'>","null","","","","","","","","","",""
"","html-keyboard-response","109","423879","0.0-8.0-3.4","ldamhxqdo6","many_one","0","indirect_first","0","er09er23","1","20","1","0","3","2","","0","0","0","1426.135000307113","","","<img src = 'targets/mask.png' width = '100%;'>","75","neg","CS","CS","2","category2/CS6.png","targets/33.png","1","indirect","4",""
"","html-keyboard-response","110","425390","0.0-8.0-0.5","ldamhxqdo6","many_one","0","indirect_first","0","er09er23","1","20","1","0","3","2","","0","0","0","null","","","<div style=""font-size:60px;"">+</div>","null","","","","","","","","","",""
"","html-keyboard-response","111","425487","0.0-8.0-1.5","ldamhxqdo6","many_one","0","indirect_first","0","er09er23","1","20","1","0","3","2","","0","0","0","null","","","<img src = 'category2/CS10.png' width = '100%;'>","null","","","","","","","","","",""
"","html-keyboard-response","112","425750","0.0-8.0-2.5","ldamhxqdo6","many_one","0","indirect_first","0","er09er23","1","20","1","0","3","2","","0","0","0","null","","","<img src = 'targets/48.png' width = '100%;'>","null","","","","","","","","","",""
"","html-keyboard-response","113","426564","0.0-8.0-3.5","ldamhxqdo6","many_one","0","indirect_first","0","er09er23","1","20","1","0","3","2","","0","0","0","810.7650000602007","","","<img src = 'targets/mask.png' width = '100%;'>","75","neg","CS","CS","2","category2/CS10.png","targets/48.png","1","indirect","5",""
"","html-keyboard-response","114","428092","0.0-8.0-0.6","ldamhxqdo6","many_one","0","indirect_first","0","er09er23","1","20","1","0","3","2","","0","0","0","null","","","<div style=""font-size:60px;"">+</div>","null","","","","","","","","","",""
"","html-keyboard-response","115","428187","0.0-8.0-1.6","ldamhxqdo6","many_one","0","indirect_first","0","er09er23","1","20","1","0","3","2","","0","0","0","null","","","<img src = 'category4/CS5.png' width = '100%;'>","null","","","","","","","","","",""
"","html-keyboard-response","116","428451","0.0-8.0-2.6","ldamhxqdo6","many_one","0","indirect_first","0","er09er23","1","20","1","0","3","2","","0","0","0","null","","","<img src = 'targets/1.png' width = '100%;'>","null","","","","","","","","","",""
"","html-keyboard-response","117","429222","0.0-8.0-3.6","ldamhxqdo6","many_one","0","indirect_first","0","er09er23","1","20","1","0","3","2","","0","0","0","768.6299998313189","","","<img src = 'targets/mask.png' width = '100%;'>","68","pos","GS","GSold","4","category4/CS5.png","targets/1.png","0","indirect","6",""
"","html-keyboard-response","118","430735","0.0-8.0-0.7","ldamhxqdo6","many_one","0","indirect_first","0","er09er23","1","20","1","0","3","2","","0","0","0","null","","","<div style=""font-size:60px;"">+</div>","null","","","","","","","","","",""
"","html-keyboard-response","119","430836","0.0-8.0-1.7","ldamhxqdo6","many_one","0","indirect_first","0","er09er23","1","20","1","0","3","2","","0","0","0","null","","","<img src = 'category4/CS2.png' width = '100%;'>","null","","","","","","","","","",""
"","html-keyboard-response","120","431094","0.0-8.0-2.7","ldamhxqdo6","many_one","0","indirect_first","0","er09er23","1","20","1","0","3","2","","0","0","0","null","","","<img src = 'targets/27.png' width = '100%;'>","null","","","","","","","","","",""
"","html-keyboard-response","121","431606","0.0-8.0-3.7","ldamhxqdo6","many_one","0","indirect_first","0","er09er23","1","20","1","0","3","2","","0","0","0","504.8100003041327","","","<img src = 'targets/mask.png' width = '100%;'>","75","pos","CS","CS","4","category4/CS2.png","targets/27.png","1","indirect","7",""
"","html-keyboard-response","122","433133","0.0-8.0-0.8","ldamhxqdo6","many_one","0","indirect_first","0","er09er23","1","20","1","0","3","2","","0","0","0","null","","","<div style=""font-size:60px;"">+</div>","null","","","","","","","","","",""
"","html-keyboard-response","123","433236","0.0-8.0-1.8","ldamhxqdo6","many_one","0","indirect_first","0","er09er23","1","20","1","0","3","2","","0","0","0","null","","","<img src = 'category4/CS6.png' width = '100%;'>","null","","","","","","","","","",""
"","html-keyboard-response","124","433501","0.0-8.0-2.8","ldamhxqdo6","many_one","0","indirect_first","0","er09er23","1","20","1","0","3","2","","0","0","0","null","","","<img src = 'targets/14.png' width = '100%;'>","null","","","","","","","","","",""
"","html-keyboard-response","125","435508","0.0-8.0-3.8","ldamhxqdo6","many_one","0","indirect_first","0","er09er23","1","20","1","0","3","2","","0","0","0","2005.1500000990927","","","<img src = 'targets/mask.png' width = '100%;'>","75","pos","CS","CS","4","category4/CS6.png","targets/14.png","1","indirect","8",""
"","html-keyboard-response","126","437028","0.0-8.0-0.9","ldamhxqdo6","many_one","0","indirect_first","0","er09er23","1","20","1","0","3","2","","0","0","0","null","","","<div style=""font-size:60px;"">+</div>","null","","","","","","","","","",""
"","html-keyboard-response","127","437134","0.0-8.0-1.9","ldamhxqdo6","many_one","0","indirect_first","0","er09er23","1","20","1","0","3","2","","0","0","0","null","","","<img src = 'category4/CS7.png' width = '100%;'>","null","","","","","","","","","",""
"","html-keyboard-response","128","437400","0.0-8.0-2.9","ldamhxqdo6","many_one","0","indirect_first","0","er09er23","1","20","1","0","3","2","","0","0","0","null","","","<img src = 'targets/3.png' width = '100%;'>","null","","","","","","","","","",""
"","html-keyboard-response","129","437947","0.0-8.0-3.9","ldamhxqdo6","many_one","0","indirect_first","0","er09er23","1","20","1","0","3","2","","0","0","0","543.4650001116097","","","<img src = 'targets/mask.png' width = '100%;'>","75","pos","CS","CS","4","category4/CS7.png","targets/3.png","1","indirect","9",""
"","html-keyboard-response","130","439461","0.0-8.0-0.10","ldamhxqdo6","many_one","0","indirect_first","0","er09er23","1","20","1","0","3","2","","0","0","0","null","","","<div style=""font-size:60px;"">+</div>","null","","","","","","","","","",""
"","html-keyboard-response","131","439568","0.0-8.0-1.10","ldamhxqdo6","many_one","0","indirect_first","0","er09er23","1","20","1","0","3","2","","0","0","0","null","","","<img src = 'category3/CS8.png' width = '100%;'>","null","","","","","","","","","",""
"","html-keyboard-response","132","439834","0.0-8.0-2.10","ldamhxqdo6","many_one","0","indirect_first","0","er09er23","1","20","1","0","3","2","","0","0","0","null","","","<img src = 'targets/22.png' width = '100%;'>","null","","","","","","","","","",""
"","html-keyboard-response","133","441354","0.0-8.0-3.10","ldamhxqdo6","many_one","0","indirect_first","0","er09er23","1","20","1","0","3","2","","0","0","0","1517.7649999968708","","","<img src = 'targets/mask.png' width = '100%;'>","75","pos","CS","CS","3","category3/CS8.png","targets/22.png","1","indirect","10",""
"","html-keyboard-response","134","442885","0.0-8.0-0.11","ldamhxqdo6","many_one","0","indirect_first","0","er09er23","1","20","1","0","3","2","","0","0","0","null","","","<div style=""font-size:60px;"">+</div>","null","","","","","","","","","",""
"","html-keyboard-response","135","442985","0.0-8.0-1.11","ldamhxqdo6","many_one","0","indirect_first","0","er09er23","1","20","1","0","3","2","","0","0","0","null","","","<img src = 'category1/CS2.png' width = '100%;'>","null","","","","","","","","","",""
"","html-keyboard-response","136","443250","0.0-8.0-2.11","ldamhxqdo6","many_one","0","indirect_first","0","er09er23","1","20","1","0","3","2","","0","0","0","null","","","<img src = 'targets/23.png' width = '100%;'>","null","","","","","","","","","",""
"","html-keyboard-response","137","445932","0.0-8.0-3.11","ldamhxqdo6","many_one","0","indirect_first","0","er09er23","1","20","1","0","3","2","","0","0","0","2679.3349999934435","","","<img src = 'targets/mask.png' width = '100%;'>","68","neg","CS","CS","1","category1/CS2.png","targets/23.png","0","indirect","11",""
"","html-keyboard-response","138","447455","0.0-8.0-0.12","ldamhxqdo6","many_one","0","indirect_first","0","er09er23","1","20","1","0","3","2","","0","0","0","null","","","<div style=""font-size:60px;"">+</div>","null","","","","","","","","","",""
"","html-keyboard-response","139","447552","0.0-8.0-1.12","ldamhxqdo6","many_one","0","indirect_first","0","er09er23","1","20","1","0","3","2","","0","0","0","null","","","<img src = 'category1/CS7.png' width = '100%;'>","null","","","","","","","","","",""
"","html-keyboard-response","140","447817","0.0-8.0-2.12","ldamhxqdo6","many_one","0","indirect_first","0","er09er23","1","20","1","0","3","2","","0","0","0","null","","","<img src = 'targets/41.png' width = '100%;'>","null","","","","","","","","","",""
"","html-keyboard-response","141","448091","0.0-8.0-3.12","ldamhxqdo6","many_one","0","indirect_first","0","er09er23","1","20","1","0","3","2","","0","0","0","270.98500030115247","","","<img src = 'targets/mask.png' width = '100%;'>","68","neg","CS","CS","1","category1/CS7.png","targets/41.png","0","indirect","12",""
"","html-keyboard-response","142","449615","0.0-8.0-0.13","ldamhxqdo6","many_one","0","indirect_first","0","er09er23","1","20","1","0","3","2","","0","0","0","null","","","<div style=""font-size:60px;"">+</div>","null","","","","","","","","","",""
"","html-keyboard-response","143","449719","0.0-8.0-1.13","ldamhxqdo6","many_one","0","indirect_first","0","er09er23","1","20","1","0","3","2","","0","0","0","null","","","<img src = 'category1/CS6.png' width = '100%;'>","null","","","","","","","","","",""
"","html-keyboard-response","144","449983","0.0-8.0-2.13","ldamhxqdo6","many_one","0","indirect_first","0","er09er23","1","20","1","0","3","2","","0","0","0","null","","","<img src = 'targets/15.png' width = '100%;'>","null","","","","","","","","","",""
"","html-keyboard-response","145","450557","0.0-8.0-3.13","ldamhxqdo6","many_one","0","indirect_first","0","er09er23","1","20","1","0","3","2","","0","0","0","571.1799999698997","","","<img src = 'targets/mask.png' width = '100%;'>","75","neg","CS","CS","1","category1/CS6.png","targets/15.png","1","indirect","13",""
"","html-keyboard-response","146","452074","0.0-8.0-0.14","ldamhxqdo6","many_one","0","indirect_first","0","er09er23","1","20","1","0","3","2","","0","0","0","null","","","<div style=""font-size:60px;"">+</div>","null","","","","","","","","","",""
"","html-keyboard-response","147","452169","0.0-8.0-1.14","ldamhxqdo6","many_one","0","indirect_first","0","er09er23","1","20","1","0","3","2","","0","0","0","null","","","<img src = 'category3/CS10.png' width = '100%;'>","null","","","","","","","","","",""
"","html-keyboard-response","148","452433","0.0-8.0-2.14","ldamhxqdo6","many_one","0","indirect_first","0","er09er23","1","20","1","0","3","2","","0","0","0","null","","","<img src = 'targets/10.png' width = '100%;'>","null","","","","","","","","","",""
"","html-keyboard-response","149","452903","0.0-8.0-3.14","ldamhxqdo6","many_one","0","indirect_first","0","er09er23","1","20","1","0","3","2","","0","0","0","467.98000019043684","","","<img src = 'targets/mask.png' width = '100%;'>","75","pos","CS","CS","3","category3/CS10.png","targets/10.png","1","indirect","14",""
"","html-keyboard-response","150","454431","0.0-8.0-0.15","ldamhxqdo6","many_one","0","indirect_first","0","er09er23","1","20","1","0","3","2","","0","0","0","null","","","<div style=""font-size:60px;"">+</div>","null","","","","","","","","","",""
"","html-keyboard-response","151","454533","0.0-8.0-1.15","ldamhxqdo6","many_one","0","indirect_first","0","er09er23","1","20","1","0","3","2","","0","0","0","null","","","<img src = 'category2/CS7.png' width = '100%;'>","null","","","","","","","","","",""
"","html-keyboard-response","152","454800","0.0-8.0-2.15","ldamhxqdo6","many_one","0","indirect_first","0","er09er23","1","20","1","0","3","2","","0","0","0","null","","","<img src = 'targets/44.png' width = '100%;'>","null","","","","","","","","","",""
"","html-keyboard-response","153","455575","0.0-8.0-3.15","ldamhxqdo6","many_one","0","indirect_first","0","er09er23","1","20","1","0","3","2","","0","0","0","771.8799998983741","","","<img src = 'targets/mask.png' width = '100%;'>","68","neg","CS","CS","2","category2/CS7.png","targets/44.png","0","indirect","15",""
"","html-keyboard-response","154","457095","0.0-8.0-0.16","ldamhxqdo6","many_one","0","indirect_first","0","er09er23","1","20","1","0","3","2","","0","0","0","null","","","<div style=""font-size:60px;"">+</div>","null","","","","","","","","","",""
"","html-keyboard-response","155","457201","0.0-8.0-1.16","ldamhxqdo6","many_one","0","indirect_first","0","er09er23","1","20","1","0","3","2","","0","0","0","null","","","<img src = 'category3/CS2.png' width = '100%;'>","null","","","","","","","","","",""
"","html-keyboard-response","156","457466","0.0-8.0-2.16","ldamhxqdo6","many_one","0","indirect_first","0","er09er23","1","20","1","0","3","2","","0","0","0","null","","","<img src = 'targets/4.png' width = '100%;'>","null","","","","","","","","","",""
"","html-keyboard-response","157","458286","0.0-8.0-3.16","ldamhxqdo6","many_one","0","indirect_first","0","er09er23","1","20","1","0","3","2","","0","0","0","817.5849998369813","","","<img src = 'targets/mask.png' width = '100%;'>","68","pos","CS","CS","3","category3/CS2.png","targets/4.png","0","indirect","16",""
"","html-keyboard-response","158","459814","0.0-8.0-0.17","ldamhxqdo6","many_one","0","indirect_first","0","er09er23","1","20","1","0","3","2","","0","0","0","null","","","<div style=""font-size:60px;"">+</div>","null","","","","","","","","","",""
"","html-keyboard-response","159","459916","0.0-8.0-1.17","ldamhxqdo6","many_one","0","indirect_first","0","er09er23","1","20","1","0","3","2","","0","0","0","null","","","<img src = 'category1/CS1.png' width = '100%;'>","null","","","","","","","","","",""
"","html-keyboard-response","160","460182","0.0-8.0-2.17","ldamhxqdo6","many_one","0","indirect_first","0","er09er23","1","20","1","0","3","2","","0","0","0","null","","","<img src = 'targets/42.png' width = '100%;'>","null","","","","","","","","","",""
"","html-keyboard-response","161","460924","0.0-8.0-3.17","ldamhxqdo6","many_one","0","indirect_first","0","er09er23","1","20","1","0","3","2","","0","0","0","739.510000217706","","","<img src = 'targets/mask.png' width = '100%;'>","75","neg","CS","CS","1","category1/CS1.png","targets/42.png","1","indirect","17",""
"","html-keyboard-response","162","462454","0.0-8.0-0.18","ldamhxqdo6","many_one","0","indirect_first","0","er09er23","1","20","1","0","3","2","","0","0","0","null","","","<div style=""font-size:60px;"">+</div>","null","","","","","","","","","",""
"","html-keyboard-response","163","462551","0.0-8.0-1.18","ldamhxqdo6","many_one","0","indirect_first","0","er09er23","1","20","1","0","3","2","","0","0","0","null","","","<img src = 'category2/CS1.png' width = '100%;'>","null","","","","","","","","","",""
"","html-keyboard-response","164","462816","0.0-8.0-2.18","ldamhxqdo6","many_one","0","indirect_first","0","er09er23","1","20","1","0","3","2","","0","0","0","null","","","<img src = 'targets/24.png' width = '100%;'>","null","","","","","","","","","",""
"","html-keyboard-response","165","463315","0.0-8.0-3.18","ldamhxqdo6","many_one","0","indirect_first","0","er09er23","1","20","1","0","3","2","","0","0","0","496.32499972358346","","","<img src = 'targets/mask.png' width = '100%;'>","75","neg","GS","GSold","2","category2/CS1.png","targets/24.png","1","indirect","18",""
"","html-keyboard-response","166","464835","0.0-8.0-0.19","ldamhxqdo6","many_one","0","indirect_first","0","er09er23","1","20","1","0","3","2","","0","0","0","null","","","<div style=""font-size:60px;"">+</div>","null","","","","","","","","","",""
"","html-keyboard-response","167","464937","0.0-8.0-1.19","ldamhxqdo6","many_one","0","indirect_first","0","er09er23","1","20","1","0","3","2","","0","0","0","null","","","<img src = 'category3/CS4.png' width = '100%;'>","null","","","","","","","","","",""
"","html-keyboard-response","168","465201","0.0-8.0-2.19","ldamhxqdo6","many_one","0","indirect_first","0","er09er23","1","20","1","0","3","2","","0","0","0","null","","","<img src = 'targets/28.png' width = '100%;'>","null","","","","","","","","","",""
"","html-keyboard-response","169","465478","0.0-8.0-3.19","ldamhxqdo6","many_one","0","indirect_first","0","er09er23","1","20","1","0","3","2","","0","0","0","274.3700002320111","","","<img src = 'targets/mask.png' width = '100%;'>","75","pos","CS","CS","3","category3/CS4.png","targets/28.png","1","indirect","19",""
"","html-keyboard-response","170","466999","0.0-8.0-0.20","ldamhxqdo6","many_one","0","indirect_first","0","er09er23","1","20","1","0","3","2","","0","0","0","null","","","<div style=""font-size:60px;"">+</div>","null","","","","","","","","","",""
"","html-keyboard-response","171","467101","0.0-8.0-1.20","ldamhxqdo6","many_one","0","indirect_first","0","er09er23","1","20","1","0","3","2","","0","0","0","null","","","<img src = 'category1/CS8.png' width = '100%;'>","null","","","","","","","","","",""
"","html-keyboard-response","172","467366","0.0-8.0-2.20","ldamhxqdo6","many_one","0","indirect_first","0","er09er23","1","20","1","0","3","2","","0","0","0","null","","","<img src = 'targets/5.png' width = '100%;'>","null","","","","","","","","","",""
"","html-keyboard-response","173","467941","0.0-8.0-3.20","ldamhxqdo6","many_one","0","indirect_first","0","er09er23","1","20","1","0","3","2","","0","0","0","572.5150001235306","","","<img src = 'targets/mask.png' width = '100%;'>","75","neg","CS","CS","1","category1/CS8.png","targets/5.png","1","indirect","20",""
"","html-keyboard-response","174","469455","0.0-8.0-0.21","ldamhxqdo6","many_one","0","indirect_first","0","er09er23","1","20","1","0","3","2","","0","0","0","null","","","<div style=""font-size:60px;"">+</div>","null","","","","","","","","","",""
"","html-keyboard-response","175","469551","0.0-8.0-1.21","ldamhxqdo6","many_one","0","indirect_first","0","er09er23","1","20","1","0","3","2","","0","0","0","null","","","<img src = 'category4/CS3.png' width = '100%;'>","null","","","","","","","","","",""
"","html-keyboard-response","176","469816","0.0-8.0-2.21","ldamhxqdo6","many_one","0","indirect_first","0","er09er23","1","20","1","0","3","2","","0","0","0","null","","","<img src = 'targets/17.png' width = '100%;'>","null","","","","","","","","","",""
"","html-keyboard-response","177","470682","0.0-8.0-3.21","ldamhxqdo6","many_one","0","indirect_first","0","er09er23","1","20","1","0","3","2","","0","0","0","860.164999961853","","","<img src = 'targets/mask.png' width = '100%;'>","75","pos","CS","CS","4","category4/CS3.png","targets/17.png","1","indirect","21",""
"","html-keyboard-response","178","472203","0.0-8.0-0.22","ldamhxqdo6","many_one","0","indirect_first","0","er09er23","1","20","1","0","3","2","","0","0","0","null","","","<div style=""font-size:60px;"">+</div>","null","","","","","","","","","",""
"","html-keyboard-response","179","472300","0.0-8.0-1.22","ldamhxqdo6","many_one","0","indirect_first","0","er09er23","1","20","1","0","3","2","","0","0","0","null","","","<img src = 'category3/CS9.png' width = '100%;'>","null","","","","","","","","","",""
"","html-keyboard-response","180","472565","0.0-8.0-2.22","ldamhxqdo6","many_one","0","indirect_first","0","er09er23","1","20","1","0","3","2","","0","0","0","null","","","<img src = 'targets/9.png' width = '100%;'>","null","","","","","","","","","",""
"","html-keyboard-response","181","473077","0.0-8.0-3.22","ldamhxqdo6","many_one","0","indirect_first","0","er09er23","1","20","1","0","3","2","","0","0","0","509.7550000064075","","","<img src = 'targets/mask.png' width = '100%;'>","68","pos","CS","CS","3","category3/CS9.png","targets/9.png","0","indirect","22",""
"","html-keyboard-response","182","474596","0.0-8.0-0.23","ldamhxqdo6","many_one","0","indirect_first","0","er09er23","1","20","1","0","3","2","","0","0","0","null","","","<div style=""font-size:60px;"">+</div>","null","","","","","","","","","",""
"","html-keyboard-response","183","474700","0.0-8.0-1.23","ldamhxqdo6","many_one","0","indirect_first","0","er09er23","1","20","1","0","3","2","","0","0","0","null","","","<img src = 'category4/CS1.png' width = '100%;'>","null","","","","","","","","","",""
"","html-keyboard-response","184","474965","0.0-8.0-2.23","ldamhxqdo6","many_one","0","indirect_first","0","er09er23","1","20","1","0","3","2","","0","0","0","null","","","<img src = 'targets/45.png' width = '100%;'>","null","","","","","","","","","",""
"","html-keyboard-response","185","475610","0.0-8.0-3.23","ldamhxqdo6","many_one","0","indirect_first","0","er09er23","1","20","1","0","3","2","","0","0","0","642.0250004157424","","","<img src = 'targets/mask.png' width = '100%;'>","68","pos","CS","CS","4","category4/CS1.png","targets/45.png","0","indirect","23",""
"","survey-html-form","186","480088","0.0-9.0","ldamhxqdo6","many_one","0","indirect_first","0","er09er23","1","20","1","0","3","2","","0","0","0","3974.425000138581","","{}","","","","","","","","","","","",""
"","html-keyboard-response","187","483100","0.0-10.0-0.0","ldamhxqdo6","many_one","0","indirect_first","0","er09er23","1","20","1","0","3","2","","0","0","0","null","","","<div style=""font-size:60px;"">+</div>","null","","","","","","","","","",""
"","html-keyboard-response","188","483200","0.0-10.0-1.0","ldamhxqdo6","many_one","0","indirect_first","0","er09er23","1","20","1","0","3","2","","0","0","0","null","","","<img src = 'category4/GS1.png' width = '100%;'>","null","","","","","","","","","",""
"","html-keyboard-response","189","483465","0.0-10.0-2.0","ldamhxqdo6","many_one","0","indirect_first","0","er09er23","1","20","1","0","3","2","","0","0","0","null","","","<img src = 'targets/46.png' width = '100%;'>","null","","","","","","","","","",""
"","html-keyboard-response","190","485140","0.0-10.0-3.0","ldamhxqdo6","many_one","0","indirect_first","0","er09er23","1","20","1","0","3","2","","0","0","0","1671.4800000190735","","","<img src = 'targets/mask.png' width = '100%;'>","75","pos","GS","GSnew","4","category4/GS1.png","targets/46.png","1","indirect","24",""
"","html-keyboard-response","191","486653","0.0-10.0-0.1","ldamhxqdo6","many_one","0","indirect_first","0","er09er23","1","20","1","0","3","2","","0","0","0","null","","","<div style=""font-size:60px;"">+</div>","null","","","","","","","","","",""
"","html-keyboard-response","192","486750","0.0-10.0-1.1","ldamhxqdo6","many_one","0","indirect_first","0","er09er23","1","20","1","0","3","2","","0","0","0","null","","","<img src = 'category1/GS1.png' width = '100%;'>","null","","","","","","","","","",""
"","html-keyboard-response","193","487015","0.0-10.0-2.1","ldamhxqdo6","many_one","0","indirect_first","0","er09er23","1","20","1","0","3","2","","0","0","0","null","","","<img src = 'targets/37.png' width = '100%;'>","null","","","","","","","","","",""
"","html-keyboard-response","194","488256","0.0-10.0-3.1","ldamhxqdo6","many_one","0","indirect_first","0","er09er23","1","20","1","0","3","2","","0","0","0","1237.7200000919402","","","<img src = 'targets/mask.png' width = '100%;'>","68","neg","GS","GSnew","1","category1/GS1.png","targets/37.png","0","indirect","25",""
"","html-keyboard-response","195","489785","0.0-10.0-0.2","ldamhxqdo6","many_one","0","indirect_first","0","er09er23","1","20","1","0","3","2","","0","0","0","null","","","<div style=""font-size:60px;"">+</div>","null","","","","","","","","","",""
"","html-keyboard-response","196","489886","0.0-10.0-1.2","ldamhxqdo6","many_one","0","indirect_first","0","er09er23","1","20","1","0","3","2","","0","0","0","null","","","<img src = 'category3/GS1.png' width = '100%;'>","null","","","","","","","","","",""
"","html-keyboard-response","197","490148","0.0-10.0-2.2","ldamhxqdo6","many_one","0","indirect_first","0","er09er23","1","20","1","0","3","2","","0","0","0","null","","","<img src = 'targets/39.png' width = '100%;'>","null","","","","","","","","","",""
"","html-keyboard-response","198","492534","0.0-10.0-3.2","ldamhxqdo6","many_one","0","indirect_first","0","er09er23","1","20","1","0","3","2","","0","0","0","2383.3249998278916","","","<img src = 'targets/mask.png' width = '100%;'>","75","pos","GS","GSnew","3","category3/GS1.png","targets/39.png","1","indirect","26",""
"","html-keyboard-response","199","494052","0.0-10.0-0.3","ldamhxqdo6","many_one","0","indirect_first","0","er09er23","1","20","1","0","3","2","","0","0","0","null","","","<div style=""font-size:60px;"">+</div>","null","","","","","","","","","",""
"","html-keyboard-response","200","494145","0.0-10.0-1.3","ldamhxqdo6","many_one","0","indirect_first","0","er09er23","1","20","1","0","3","2","","0","0","0","null","","","<img src = 'category3/wang.png' width = '100%;'>","null","","","","","","","","","",""
"","html-keyboard-response","201","494415","0.0-10.0-2.3","ldamhxqdo6","many_one","0","indirect_first","0","er09er23","1","20","1","0","3","2","","0","0","0","null","","","<img src = 'targets/38.png' width = '100%;'>","null","","","","","","","","","",""
"","html-keyboard-response","202","497678","0.0-10.0-3.3","ldamhxqdo6","many_one","0","indirect_first","0","er09er23","1","20","1","0","3","2","","0","0","0","3260.2699999697506","","","<img src = 'targets/mask.png' width = '100%;'>","75","pos","GS","abstract","3","category3/wang.png","targets/38.png","1","indirect","27",""
"","html-keyboard-response","203","499197","0.0-10.0-0.4","ldamhxqdo6","many_one","0","indirect_first","0","er09er23","1","20","1","0","3","2","","0","0","0","null","","","<div style=""font-size:60px;"">+</div>","null","","","","","","","","","",""
"","html-keyboard-response","204","499300","0.0-10.0-1.4","ldamhxqdo6","many_one","0","indirect_first","0","er09er23","1","20","1","0","3","2","","0","0","0","null","","","<img src = 'category3/GS2.png' width = '100%;'>","null","","","","","","","","","",""
"","html-keyboard-response","205","499564","0.0-10.0-2.4","ldamhxqdo6","many_one","0","indirect_first","0","er09er23","1","20","1","0","3","2","","0","0","0","null","","","<img src = 'targets/8.png' width = '100%;'>","null","","","","","","","","","",""
"","html-keyboard-response","206","499987","0.0-10.0-3.4","ldamhxqdo6","many_one","0","indirect_first","0","er09er23","1","20","1","0","3","2","","0","0","0","419.99500012025237","","","<img src = 'targets/mask.png' width = '100%;'>","68","pos","GS","GSnew","3","category3/GS2.png","targets/8.png","0","indirect","28",""
"","html-keyboard-response","207","501508","0.0-10.0-0.5","ldamhxqdo6","many_one","0","indirect_first","0","er09er23","1","20","1","0","3","2","","0","0","0","null","","","<div style=""font-size:60px;"">+</div>","null","","","","","","","","","",""
"","html-keyboard-response","208","501600","0.0-10.0-1.5","ldamhxqdo6","many_one","0","indirect_first","0","er09er23","1","20","1","0","3","2","","0","0","0","null","","","<img src = 'category1/CS10.png' width = '100%;'>","null","","","","","","","","","",""
"","html-keyboard-response","209","501864","0.0-10.0-2.5","ldamhxqdo6","many_one","0","indirect_first","0","er09er23","1","20","1","0","3","2","","0","0","0","null","","","<img src = 'targets/43.png' width = '100%;'>","null","","","","","","","","","",""
"","html-keyboard-response","210","502007","0.0-10.0-3.5","ldamhxqdo6","many_one","0","indirect_first","0","er09er23","1","20","1","0","3","2","","0","0","0","140.00000013038516","","","<img src = 'targets/mask.png' width = '100%;'>","75","neg","GS","GSold","1","category1/CS10.png","targets/43.png","1","indirect","29",""
"","html-keyboard-response","211","503530","0.0-10.0-0.6","ldamhxqdo6","many_one","0","indirect_first","0","er09er23","1","20","1","0","3","2","","0","0","0","null","","","<div style=""font-size:60px;"">+</div>","null","","","","","","","","","",""
"","html-keyboard-response","212","503632","0.0-10.0-1.6","ldamhxqdo6","many_one","0","indirect_first","0","er09er23","1","20","1","0","3","2","","0","0","0","null","","","<img src = 'category1/CS4.png' width = '100%;'>","null","","","","","","","","","",""
"","html-keyboard-response","213","503897","0.0-10.0-2.6","ldamhxqdo6","many_one","0","indirect_first","0","er09er23","1","20","1","0","3","2","","0","0","0","null","","","<img src = 'targets/19.png' width = '100%;'>","null","","","","","","","","","",""
"","html-keyboard-response","214","503982","0.0-10.0-3.6","ldamhxqdo6","many_one","0","indirect_first","0","er09er23","1","20","1","0","3","2","","0","0","0","82.89999980479479","","","<img src = 'targets/mask.png' width = '100%;'>","68","neg","GS","GSold","1","category1/CS4.png","targets/19.png","0","indirect","30",""
"","html-keyboard-response","215","505499","0.0-10.0-0.7","ldamhxqdo6","many_one","0","indirect_first","0","er09er23","1","20","1","0","3","2","","0","0","0","null","","","<div style=""font-size:60px;"">+</div>","null","","","","","","","","","",""
"","html-keyboard-response","216","505599","0.0-10.0-1.7","ldamhxqdo6","many_one","0","indirect_first","0","er09er23","1","20","1","0","3","2","","0","0","0","null","","","<img src = 'category4/GS2.png' width = '100%;'>","null","","","","","","","","","",""
"","html-keyboard-response","217","505864","0.0-10.0-2.7","ldamhxqdo6","many_one","0","indirect_first","0","er09er23","1","20","1","0","3","2","","0","0","0","null","","","<img src = 'targets/25.png' width = '100%;'>","null","","","","","","","","","",""
"","html-keyboard-response","218","506244","0.0-10.0-3.7","ldamhxqdo6","many_one","0","indirect_first","0","er09er23","1","20","1","0","3","2","","0","0","0","377.89499992504716","","","<img src = 'targets/mask.png' width = '100%;'>","75","pos","GS","GSnew","4","category4/GS2.png","targets/25.png","1","indirect","31",""
"","html-keyboard-response","219","507766","0.0-10.0-0.8","ldamhxqdo6","many_one","0","indirect_first","0","er09er23","1","20","1","0","3","2","","0","0","0","null","","","<div style=""font-size:60px;"">+</div>","null","","","","","","","","","",""
"","html-keyboard-response","220","507865","0.0-10.0-1.8","ldamhxqdo6","many_one","0","indirect_first","0","er09er23","1","20","1","0","3","2","","0","0","0","null","","","<img src = 'category1/GS3.png' width = '100%;'>","null","","","","","","","","","",""
"","html-keyboard-response","221","508130","0.0-10.0-2.8","ldamhxqdo6","many_one","0","indirect_first","0","er09er23","1","20","1","0","3","2","","0","0","0","null","","","<img src = 'targets/11.png' width = '100%;'>","null","","","","","","","","","",""
"","html-keyboard-response","222","508331","0.0-10.0-3.8","ldamhxqdo6","many_one","0","indirect_first","0","er09er23","1","20","1","0","3","2","","0","0","0","198.43500014394522","","","<img src = 'targets/mask.png' width = '100%;'>","75","neg","GS","GSnew","1","category1/GS3.png","targets/11.png","1","indirect","32",""
"","html-keyboard-response","223","509855","0.0-10.0-0.9","ldamhxqdo6","many_one","0","indirect_first","0","er09er23","1","20","1","0","3","2","","0","0","0","null","","","<div style=""font-size:60px;"">+</div>","null","","","","","","","","","",""
"","html-keyboard-response","224","509949","0.0-10.0-1.9","ldamhxqdo6","many_one","0","indirect_first","0","er09er23","1","20","1","0","3","2","","0","0","0","null","","","<img src = 'category4/CS10.png' width = '100%;'>","null","","","","","","","","","",""
"","html-keyboard-response","225","510214","0.0-10.0-2.9","ldamhxqdo6","many_one","0","indirect_first","0","er09er23","1","20","1","0","3","2","","0","0","0","null","","","<img src = 'targets/40.png' width = '100%;'>","null","","","","","","","","","",""
"","html-keyboard-response","226","510483","0.0-10.0-3.9","ldamhxqdo6","many_one","0","indirect_first","0","er09er23","1","20","1","0","3","2","","0","0","0","267.01500033959746","","","<img src = 'targets/mask.png' width = '100%;'>","68","pos","GS","GSold","4","category4/CS10.png","targets/40.png","0","indirect","33",""
"","html-keyboard-response","227","512008","0.0-10.0-0.10","ldamhxqdo6","many_one","0","indirect_first","0","er09er23","1","20","1","0","3","2","","0","0","0","null","","","<div style=""font-size:60px;"">+</div>","null","","","","","","","","","",""
"","html-keyboard-response","228","512115","0.0-10.0-1.10","ldamhxqdo6","many_one","0","indirect_first","0","er09er23","1","20","1","0","3","2","","0","0","0","null","","","<img src = 'category3/CS7.png' width = '100%;'>","null","","","","","","","","","",""
"","html-keyboard-response","229","512380","0.0-10.0-2.10","ldamhxqdo6","many_one","0","indirect_first","0","er09er23","1","20","1","0","3","2","","0","0","0","null","","","<img src = 'targets/35.png' width = '100%;'>","null","","","","","","","","","",""
"","html-keyboard-response","230","512575","0.0-10.0-3.10","ldamhxqdo6","many_one","0","indirect_first","0","er09er23","1","20","1","0","3","2","","0","0","0","192.10000010207295","","","<img src = 'targets/mask.png' width = '100%;'>","75","pos","GS","GSold","3","category3/CS7.png","targets/35.png","1","indirect","34",""
"","html-keyboard-response","231","514081","0.0-10.0-0.11","ldamhxqdo6","many_one","0","indirect_first","0","er09er23","1","20","1","0","3","2","","0","0","0","null","","","<div style=""font-size:60px;"">+</div>","null","","","","","","","","","",""
"","html-keyboard-response","232","514182","0.0-10.0-1.11","ldamhxqdo6","many_one","0","indirect_first","0","er09er23","1","20","1","0","3","2","","0","0","0","null","","","<img src = 'category2/GS1.png' width = '100%;'>","null","","","","","","","","","",""
"","html-keyboard-response","233","514447","0.0-10.0-2.11","ldamhxqdo6","many_one","0","indirect_first","0","er09er23","1","20","1","0","3","2","","0","0","0","null","","","<img src = 'targets/31.png' width = '100%;'>","null","","","","","","","","","",""
"","html-keyboard-response","234","514724","0.0-10.0-3.11","ldamhxqdo6","many_one","0","indirect_first","0","er09er23","1","20","1","0","3","2","","0","0","0","274.7450000606477","","","<img src = 'targets/mask.png' width = '100%;'>","68","neg","GS","GSnew","2","category2/GS1.png","targets/31.png","0","indirect","35",""
"","html-keyboard-response","235","516239","0.0-10.0-0.12","ldamhxqdo6","many_one","0","indirect_first","0","er09er23","1","20","1","0","3","2","","0","0","0","null","","","<div style=""font-size:60px;"">+</div>","null","","","","","","","","","",""
"","html-keyboard-response","236","516347","0.0-10.0-1.12","ldamhxqdo6","many_one","0","indirect_first","0","er09er23","1","20","1","0","3","2","","0","0","0","null","","","<img src = 'category1/GS2.png' width = '100%;'>","null","","","","","","","","","",""
"","html-keyboard-response","237","516613","0.0-10.0-2.12","ldamhxqdo6","many_one","0","indirect_first","0","er09er23","1","20","1","0","3","2","","0","0","0","null","","","<img src = 'targets/36.png' width = '100%;'>","null","","","","","","","","","",""
"","html-keyboard-response","238","516829","0.0-10.0-3.12","ldamhxqdo6","many_one","0","indirect_first","0","er09er23","1","20","1","0","3","2","","0","0","0","214.28499976173043","","","<img src = 'targets/mask.png' width = '100%;'>","75","neg","GS","GSnew","1","category1/GS2.png","targets/36.png","1","indirect","36",""
"","html-keyboard-response","239","518355","0.0-10.0-0.13","ldamhxqdo6","many_one","0","indirect_first","0","er09er23","1","20","1","0","3","2","","0","0","0","null","","","<div style=""font-size:60px;"">+</div>","null","","","","","","","","","",""
"","html-keyboard-response","240","518448","0.0-10.0-1.13","ldamhxqdo6","many_one","0","indirect_first","0","er09er23","1","20","1","0","3","2","","0","0","0","null","","","<img src = 'category3/GS3.png' width = '100%;'>","null","","","","","","","","","",""
"","html-keyboard-response","241","518713","0.0-10.0-2.13","ldamhxqdo6","many_one","0","indirect_first","0","er09er23","1","20","1","0","3","2","","0","0","0","null","","","<img src = 'targets/16.png' width = '100%;'>","null","","","","","","","","","",""
"","html-keyboard-response","242","519471","0.0-10.0-3.13","ldamhxqdo6","many_one","0","indirect_first","0","er09er23","1","20","1","0","3","2","","0","0","0","755.7199997827411","","","<img src = 'targets/mask.png' width = '100%;'>","75","pos","GS","GSnew","3","category3/GS3.png","targets/16.png","1","indirect","37",""
"","html-keyboard-response","243","520998","0.0-10.0-0.14","ldamhxqdo6","many_one","0","indirect_first","0","er09er23","1","20","1","0","3","2","","0","0","0","null","","","<div style=""font-size:60px;"">+</div>","null","","","","","","","","","",""
"","html-keyboard-response","244","521098","0.0-10.0-1.14","ldamhxqdo6","many_one","0","indirect_first","0","er09er23","1","20","1","0","3","2","","0","0","0","null","","","<img src = 'category2/men.png' width = '100%;'>","null","","","","","","","","","",""
"","html-keyboard-response","245","521361","0.0-10.0-2.14","ldamhxqdo6","many_one","0","indirect_first","0","er09er23","1","20","1","0","3","2","","0","0","0","null","","","<img src = 'targets/7.png' width = '100%;'>","null","","","","","","","","","",""
"","html-keyboard-response","246","521855","0.0-10.0-3.14","ldamhxqdo6","many_one","0","indirect_first","0","er09er23","1","20","1","0","3","2","","0","0","0","491.06499971821904","","","<img src = 'targets/mask.png' width = '100%;'>","75","neg","GS","abstract","2","category2/men.png","targets/7.png","1","indirect","38",""
"","html-keyboard-response","247","523372","0.0-10.0-0.15","ldamhxqdo6","many_one","0","indirect_first","0","er09er23","1","20","1","0","3","2","","0","0","0","null","","","<div style=""font-size:60px;"">+</div>","null","","","","","","","","","",""
"","html-keyboard-response","248","523479","0.0-10.0-1.15","ldamhxqdo6","many_one","0","indirect_first","0","er09er23","1","20","1","0","3","2","","0","0","0","null","","","<img src = 'category3/CS3.png' width = '100%;'>","null","","","","","","","","","",""
"","html-keyboard-response","249","523746","0.0-10.0-2.15","ldamhxqdo6","many_one","0","indirect_first","0","er09er23","1","20","1","0","3","2","","0","0","0","null","","","<img src = 'targets/20.png' width = '100%;'>","null","","","","","","","","","",""
"","html-keyboard-response","250","523847","0.0-10.0-3.15","ldamhxqdo6","many_one","0","indirect_first","0","er09er23","1","20","1","0","3","2","","0","0","0","98.59499987214804","","","<img src = 'targets/mask.png' width = '100%;'>","68","pos","GS","GSold","3","category3/CS3.png","targets/20.png","0","indirect","39",""
"","html-keyboard-response","251","525364","0.0-10.0-0.16","ldamhxqdo6","many_one","0","indirect_first","0","er09er23","1","20","1","0","3","2","","0","0","0","null","","","<div style=""font-size:60px;"">+</div>","null","","","","","","","","","",""
"","html-keyboard-response","252","525465","0.0-10.0-1.16","ldamhxqdo6","many_one","0","indirect_first","0","er09er23","1","20","1","0","3","2","","0","0","0","null","","","<img src = 'category1/CS3.png' width = '100%;'>","null","","","","","","","","","",""
"","html-keyboard-response","253","525729","0.0-10.0-2.16","ldamhxqdo6","many_one","0","indirect_first","0","er09er23","1","20","1","0","3","2","","0","0","0","null","","","<img src = 'targets/32.png' width = '100%;'>","null","","","","","","","","","",""
"","html-keyboard-response","254","525750","0.0-10.0-3.16","ldamhxqdo6","many_one","0","indirect_first","0","er09er23","1","20","1","0","3","2","","0","0","0","18.6149999499321","","","<img src = 'targets/mask.png' width = '100%;'>","75","neg","GS","GSold","1","category1/CS3.png","targets/32.png","1","indirect","40",""
"","html-keyboard-response","255","527266","0.0-10.0-0.17","ldamhxqdo6","many_one","0","indirect_first","0","er09er23","1","20","1","0","3","2","","0","0","0","null","","","<div style=""font-size:60px;"">+</div>","null","","","","","","","","","",""
"","html-keyboard-response","256","527357","0.0-10.0-1.17","ldamhxqdo6","many_one","0","indirect_first","0","er09er23","1","20","1","0","3","2","","0","0","0","null","","","<img src = 'category1/ma.png' width = '100%;'>","null","","","","","","","","","",""
"","html-keyboard-response","257","527630","0.0-10.0-2.17","ldamhxqdo6","many_one","0","indirect_first","0","er09er23","1","20","1","0","3","2","","0","0","0","null","","","<img src = 'targets/26.png' width = '100%;'>","null","","","","","","","","","",""
"","html-keyboard-response","258","527783","0.0-10.0-3.17","ldamhxqdo6","many_one","0","indirect_first","0","er09er23","1","20","1","0","3","2","","0","0","0","150.9649995714426","","","<img src = 'targets/mask.png' width = '100%;'>","68","neg","GS","abstract","1","category1/ma.png","targets/26.png","0","indirect","41",""
"","html-keyboard-response","259","529294","0.0-10.0-0.18","ldamhxqdo6","many_one","0","indirect_first","0","er09er23","1","20","1","0","3","2","","0","0","0","null","","","<div style=""font-size:60px;"">+</div>","null","","","","","","","","","",""
"","html-keyboard-response","260","529398","0.0-10.0-1.18","ldamhxqdo6","many_one","0","indirect_first","0","er09er23","1","20","1","0","3","2","","0","0","0","null","","","<img src = 'category4/GS3.png' width = '100%;'>","null","","","","","","","","","",""
"","html-keyboard-response","261","529662","0.0-10.0-2.18","ldamhxqdo6","many_one","0","indirect_first","0","er09er23","1","20","1","0","3","2","","0","0","0","null","","","<img src = 'targets/12.png' width = '100%;'>","null","","","","","","","","","",""
"","html-keyboard-response","262","529719","0.0-10.0-3.18","ldamhxqdo6","many_one","0","indirect_first","0","er09er23","1","20","1","0","3","2","","0","0","0","54.41500013694167","","","<img src = 'targets/mask.png' width = '100%;'>","68","pos","GS","GSnew","4","category4/GS3.png","targets/12.png","0","indirect","42",""
"","html-keyboard-response","263","531242","0.0-10.0-0.19","ldamhxqdo6","many_one","0","indirect_first","0","er09er23","1","20","1","0","3","2","","0","0","0","null","","","<div style=""font-size:60px;"">+</div>","null","","","","","","","","","",""
"","html-keyboard-response","264","531334","0.0-10.0-1.19","ldamhxqdo6","many_one","0","indirect_first","0","er09er23","1","20","1","0","3","2","","0","0","0","null","","","<img src = 'category4/lin.png' width = '100%;'>","null","","","","","","","","","",""
"","html-keyboard-response","265","531596","0.0-10.0-2.19","ldamhxqdo6","many_one","0","indirect_first","0","er09er23","1","20","1","0","3","2","","0","0","0","null","","","<img src = 'targets/13.png' width = '100%;'>","null","","","","","","","","","",""
"","html-keyboard-response","266","531719","0.0-10.0-3.19","ldamhxqdo6","many_one","0","indirect_first","0","er09er23","1","20","1","0","3","2","","0","0","0","120.5000001937151","","","<img src = 'targets/mask.png' width = '100%;'>","75","pos","GS","abstract","4","category4/lin.png","targets/13.png","1","indirect","43",""
"","html-keyboard-response","267","533235","0.0-10.0-0.20","ldamhxqdo6","many_one","0","indirect_first","0","er09er23","1","20","1","0","3","2","","0","0","0","null","","","<div style=""font-size:60px;"">+</div>","null","","","","","","","","","",""
"","html-keyboard-response","268","533331","0.0-10.0-1.20","ldamhxqdo6","many_one","0","indirect_first","0","er09er23","1","20","1","0","3","2","","0","0","0","null","","","<img src = 'category3/CS6.png' width = '100%;'>","null","","","","","","","","","",""
"","html-keyboard-response","269","533595","0.0-10.0-2.20","ldamhxqdo6","many_one","0","indirect_first","0","er09er23","1","20","1","0","3","2","","0","0","0","null","","","<img src = 'targets/47.png' width = '100%;'>","null","","","","","","","","","",""
"","html-keyboard-response","270","533722","0.0-10.0-3.20","ldamhxqdo6","many_one","0","indirect_first","0","er09er23","1","20","1","0","3","2","","0","0","0","124.36500005424023","","","<img src = 'targets/mask.png' width = '100%;'>","68","pos","GS","GSold","3","category3/CS6.png","targets/47.png","0","indirect","44",""
"","html-keyboard-response","271","535241","0.0-10.0-0.21","ldamhxqdo6","many_one","0","indirect_first","0","er09er23","1","20","1","0","3","2","","0","0","0","null","","","<div style=""font-size:60px;"">+</div>","null","","","","","","","","","",""
"","html-keyboard-response","272","535346","0.0-10.0-1.21","ldamhxqdo6","many_one","0","indirect_first","0","er09er23","1","20","1","0","3","2","","0","0","0","null","","","<img src = 'category2/GS2.png' width = '100%;'>","null","","","","","","","","","",""
"","html-keyboard-response","273","535612","0.0-10.0-2.21","ldamhxqdo6","many_one","0","indirect_first","0","er09er23","1","20","1","0","3","2","","0","0","0","null","","","<img src = 'targets/34.png' width = '100%;'>","null","","","","","","","","","",""
"","html-keyboard-response","274","537050","0.0-10.0-3.21","ldamhxqdo6","many_one","0","indirect_first","0","er09er23","1","20","1","0","3","2","","0","0","0","1436.0349997878075","","","<img src = 'targets/mask.png' width = '100%;'>","75","neg","GS","GSnew","2","category2/GS2.png","targets/34.png","1","indirect","45",""
"","html-keyboard-response","275","538556","0.0-10.0-0.22","ldamhxqdo6","many_one","0","indirect_first","0","er09er23","1","20","1","0","3","2","","0","0","0","null","","","<div style=""font-size:60px;"">+</div>","null","","","","","","","","","",""
"","html-keyboard-response","276","538662","0.0-10.0-1.22","ldamhxqdo6","many_one","0","indirect_first","0","er09er23","1","20","1","0","3","2","","0","0","0","null","","","<img src = 'category4/CS9.png' width = '100%;'>","null","","","","","","","","","",""
"","html-keyboard-response","277","538929","0.0-10.0-2.22","ldamhxqdo6","many_one","0","indirect_first","0","er09er23","1","20","1","0","3","2","","0","0","0","null","","","<img src = 'targets/2.png' width = '100%;'>","null","","","","","","","","","",""
"","html-keyboard-response","278","539406","0.0-10.0-3.22","ldamhxqdo6","many_one","0","indirect_first","0","er09er23","1","20","1","0","3","2","","0","0","0","486.2249996513128","","","<img src = 'targets/mask.png' width = '100%;'>","75","pos","GS","GSold","4","category4/CS9.png","targets/2.png","1","indirect","46",""
"","html-keyboard-response","279","540929","0.0-10.0-0.23","ldamhxqdo6","many_one","0","indirect_first","0","er09er23","1","20","1","0","3","2","","0","0","0","null","","","<div style=""font-size:60px;"">+</div>","null","","","","","","","","","",""
"","html-keyboard-response","280","541033","0.0-10.0-1.23","ldamhxqdo6","many_one","0","indirect_first","0","er09er23","1","20","1","0","3","2","","0","0","0","null","","","<img src = 'category2/GS3.png' width = '100%;'>","null","","","","","","","","","",""
"","html-keyboard-response","281","541301","0.0-10.0-2.23","ldamhxqdo6","many_one","0","indirect_first","0","er09er23","1","20","1","0","3","2","","0","0","0","null","","","<img src = 'targets/21.png' width = '100%;'>","null","","","","","","","","","",""
"","html-keyboard-response","282","541349","0.0-10.0-3.23","ldamhxqdo6","many_one","0","indirect_first","0","er09er23","1","20","1","0","3","2","","0","0","0","46.21000029146671","","","<img src = 'targets/mask.png' width = '100%;'>","75","neg","GS","GSnew","2","category2/GS3.png","targets/21.png","1","indirect","47",""
"","survey-html-form","283","549844","0.0-11.0","ldamhxqdo6","many_one","0","indirect_first","0","er09er23","1","20","1","0","3","2","","0","0","0","7978.349999990314","","{}","","","","","","","","","","","",""
"","image-slider-response","284","556972","0.0-12.0-0.0","ldamhxqdo6","many_one","0","indirect_first","0","er09er23","1","20","1","0","3","2","","0","0","0","5114.035000093281","","","","","neg","GS","abstract","1","category1/ma.png","targets/26.png","","direct","","-72"
"","image-slider-response","285","559267","0.0-12.0-0.1","ldamhxqdo6","many_one","0","indirect_first","0","er09er23","1","20","1","0","3","2","","0","0","0","2293.2100002653897","","","","","pos","GS","GSnew","4","category4/GS1.png","targets/46.png","","direct","","36"
"","image-slider-response","286","563003","0.0-12.0-0.2","ldamhxqdo6","many_one","0","indirect_first","0","er09er23","1","20","1","0","3","2","","0","0","0","3734.1649997979403","","","","","neg","GS","GSnew","1","category1/GS3.png","targets/11.png","","direct","","97"
"","image-slider-response","287","565155","0.0-12.0-0.3","ldamhxqdo6","many_one","0","indirect_first","0","er09er23","1","20","1","0","3","2","","0","0","0","2149.730000179261","","","","","pos","CS","CS","4","category4/CS3.png","targets/17.png","","direct","","-24"
"","image-slider-response","288","567532","0.0-12.0-0.4","ldamhxqdo6","many_one","0","indirect_first","0","er09er23","1","20","1","0","3","2","","0","0","0","2374.76500030607","","","","","pos","CS","CS","3","category3/CS8.png","targets/22.png","","direct","","-34"
"","image-slider-response","289","569547","0.0-12.0-0.5","ldamhxqdo6","many_one","0","indirect_first","0","er09er23","1","20","1","0","3","2","","0","0","0","2013.8699999079108","","","","","pos","GS","GSnew","3","category3/GS1.png","targets/39.png","","direct","","27"
"","image-slider-response","290","571611","0.0-12.0-0.6","ldamhxqdo6","many_one","0","indirect_first","0","er09er23","1","20","1","0","3","2","","0","0","0","2062.3900000937283","","","","","pos","GS","GSold","3","category3/CS6.png","targets/47.png","","direct","","-27"
"","image-slider-response","291","574243","0.0-12.0-0.7","ldamhxqdo6","many_one","0","indirect_first","0","er09er23","1","20","1","0","3","2","","0","0","0","2630.2649998106062","","","","","neg","GS","GSnew","2","category2/GS2.png","targets/34.png","","direct","","50"
"","image-slider-response","292","576011","0.0-12.0-0.8","ldamhxqdo6","many_one","0","indirect_first","0","er09er23","1","20","1","0","3","2","","0","0","0","1765.7900000922382","","","","","pos","GS","GSnew","3","category3/GS3.png","targets/16.png","","direct","","-37"
"","image-slider-response","293","578411","0.0-12.0-0.9","ldamhxqdo6","many_one","0","indirect_first","0","er09er23","1","20","1","0","3","2","","0","0","0","2398.07500038296","","","","","neg","CS","CS","1","category1/CS6.png","targets/15.png","","direct","","-67"
"","image-slider-response","294","580916","0.0-12.0-0.10","ldamhxqdo6","many_one","0","indirect_first","0","er09er23","1","20","1","0","3","2","","0","0","0","2502.709999680519","","","","","neg","CS","CS","2","category2/CS10.png","targets/48.png","","direct","","-29"
"","image-slider-response","295","582739","0.0-12.0-0.11","ldamhxqdo6","many_one","0","indirect_first","0","er09er23","1","20","1","0","3","2","","0","0","0","1821.7950002290308","","","","","neg","GS","GSnew","2","category2/GS1.png","targets/31.png","","direct","","29"
"","image-slider-response","296","584988","0.0-12.0-0.12","ldamhxqdo6","many_one","0","indirect_first","0","er09er23","1","20","1","0","3","2","","0","0","0","2246.7549997381866","","","","","neg","GS","GSold","1","category1/CS3.png","targets/32.png","","direct","","-38"
"","image-slider-response","297","587147","0.0-12.0-0.13","ldamhxqdo6","many_one","0","indirect_first","0","er09er23","1","20","1","0","3","2","","0","0","0","2157.5250001624227","","","","","pos","GS","GSold","4","category4/CS5.png","targets/1.png","","direct","","27"
"","image-slider-response","298","588907","0.0-12.0-0.14","ldamhxqdo6","many_one","0","indirect_first","0","er09er23","1","20","1","0","3","2","","0","0","0","1758.670000359416","","","","","neg","GS","GSold","2","category2/CS1.png","targets/24.png","","direct","","-31"
"","image-slider-response","299","590971","0.0-12.0-0.15","ldamhxqdo6","many_one","0","indirect_first","0","er09er23","1","20","1","0","3","2","","0","0","0","2062.249999959022","","","","","pos","CS","CS","4","category4/CS7.png","targets/3.png","","direct","","31"
"","image-slider-response","300","592771","0.0-12.0-0.16","ldamhxqdo6","many_one","0","indirect_first","0","er09er23","1","20","1","0","3","2","","0","0","0","1798.1799999251962","","","","","neg","GS","GSold","2","category2/CS5.png","targets/6.png","","direct","","-42"
"","image-slider-response","301","594396","0.0-12.0-0.17","ldamhxqdo6","many_one","0","indirect_first","0","er09er23","1","20","1","0","3","2","","0","0","0","1622.1949998289347","","","","","pos","GS","GSold","4","category4/CS9.png","targets/2.png","","direct","","30"
"","image-slider-response","302","596027","0.0-12.0-0.18","ldamhxqdo6","many_one","0","indirect_first","0","er09er23","1","20","1","0","3","2","","0","0","0","1629.175000358373","","","","","neg","CS","CS","1","category1/CS1.png","targets/42.png","","direct","","-27"
"","image-slider-response","303","598027","0.0-12.0-0.19","ldamhxqdo6","many_one","0","indirect_first","0","er09er23","1","20","1","0","3","2","","0","0","0","1998.4500003047287","","","","","pos","GS","abstract","3","category3/wang.png","targets/38.png","","direct","","-12"
"","image-slider-response","304","600320","0.0-12.0-0.20","ldamhxqdo6","many_one","0","indirect_first","0","er09er23","1","20","1","0","3","2","","0","0","0","2278.2100001350045","","","","","neg","CS","CS","2","category2/CS4.png","targets/30.png","","direct","","-51"
"","image-slider-response","305","602304","0.0-12.0-0.21","ldamhxqdo6","many_one","0","indirect_first","0","er09er23","1","20","1","0","3","2","","0","0","0","1982.2799996472895","","","","","pos","GS","GSold","3","category3/CS7.png","targets/35.png","","direct","","20"
"","image-slider-response","306","603960","0.0-12.0-0.22","ldamhxqdo6","many_one","0","indirect_first","0","er09er23","1","20","1","0","3","2","","0","0","0","1654.1450000368059","","","","","neg","CS","CS","1","category1/CS8.png","targets/5.png","","direct","","-23"
"","image-slider-response","307","606448","0.0-12.0-0.23","ldamhxqdo6","many_one","0","indirect_first","0","er09er23","1","20","1","0","3","2","","0","0","0","2486.0999998636544","","","","","pos","GS","GSnew","4","category4/GS3.png","targets/12.png","","direct","","41"
"","image-slider-response","308","608456","0.0-12.0-0.24","ldamhxqdo6","many_one","0","indirect_first","0","er09er23","1","20","1","0","3","2","","0","0","0","2005.6199999526143","","","","","pos","CS","CS","3","category3/CS10.png","targets/10.png","","direct","","-52"
"","image-slider-response","309","610064","0.0-12.0-0.25","ldamhxqdo6","many_one","0","indirect_first","0","er09er23","1","20","1","0","3","2","","0","0","0","1606.5350002609193","","","","","neg","CS","CS","2","category2/CS6.png","targets/33.png","","direct","","-35"
"","image-slider-response","310","611320","0.0-12.0-0.26","ldamhxqdo6","many_one","0","indirect_first","0","er09er23","1","20","1","0","3","2","","0","0","0","1254.0500001050532","","","","","pos","CS","CS","4","category4/CS1.png","targets/45.png","","direct","","31"
"","image-slider-response","311","613080","0.0-12.0-0.27","ldamhxqdo6","many_one","0","indirect_first","0","er09er23","1","20","1","0","3","2","","0","0","0","1758.4250001236796","","","","","pos","CS","CS","3","category3/CS4.png","targets/28.png","","direct","","-21"
"","image-slider-response","312","614600","0.0-12.0-0.28","ldamhxqdo6","many_one","0","indirect_first","0","er09er23","1","20","1","0","3","2","","0","0","0","1518.3299998752773","","","","","pos","GS","GSold","3","category3/CS3.png","targets/20.png","","direct","","34"
"","image-slider-response","313","616776","0.0-12.0-0.29","ldamhxqdo6","many_one","0","indirect_first","0","er09er23","1","20","1","0","3","2","","0","0","0","2174.1450000554323","","","","","neg","GS","GSnew","1","category1/GS1.png","targets/37.png","","direct","","-57"
"","image-slider-response","314","619600","0.0-12.0-0.30","ldamhxqdo6","many_one","0","indirect_first","0","er09er23","1","20","1","0","3","2","","0","0","0","2821.9749997369945","","","","","neg","CS","CS","2","category2/CS7.png","targets/44.png","","direct","","-24"
"","image-slider-response","315","621360","0.0-12.0-0.31","ldamhxqdo6","many_one","0","indirect_first","0","er09er23","1","20","1","0","3","2","","0","0","0","1758.1200003623962","","","","","neg","CS","CS","1","category1/CS2.png","targets/23.png","","direct","","-67"
"","image-slider-response","316","623088","0.0-12.0-0.32","ldamhxqdo6","many_one","0","indirect_first","0","er09er23","1","20","1","0","3","2","","0","0","0","1726.445000153035","","","","","neg","GS","abstract","2","category2/men.png","targets/7.png","","direct","","45"
"","image-slider-response","317","625400","0.0-12.0-0.33","ldamhxqdo6","many_one","0","indirect_first","0","er09er23","1","20","1","0","3","2","","0","0","0","2310.6849999167025","","","","","pos","GS","abstract","4","category4/lin.png","targets/13.png","","direct","","87"
"","image-slider-response","318","628000","0.0-12.0-0.34","ldamhxqdo6","many_one","0","indirect_first","0","er09er23","1","20","1","0","3","2","","0","0","0","2598.165000323206","","","","","neg","CS","CS","2","category2/CS2.png","targets/29.png","","direct","","-45"
"","image-slider-response","319","629560","0.0-12.0-0.35","ldamhxqdo6","many_one","0","indirect_first","0","er09er23","1","20","1","0","3","2","","0","0","0","1558.4599999710917","","","","","pos","GS","GSnew","3","category3/GS2.png","targets/8.png","","direct","","-16"
"","image-slider-response","320","632016","0.0-12.0-0.36","ldamhxqdo6","many_one","0","indirect_first","0","er09er23","1","20","1","0","3","2","","0","0","0","2454.080000054091","","","","","pos","GS","GSold","4","category4/CS10.png","targets/40.png","","direct","","33"
"","image-slider-response","321","634656","0.0-12.0-0.37","ldamhxqdo6","many_one","0","indirect_first","0","er09er23","1","20","1","0","3","2","","0","0","0","2637.804999947548","","","","","neg","CS","CS","1","category1/CS7.png","targets/41.png","","direct","","-51"
"","image-slider-response","322","637520","0.0-12.0-0.38","ldamhxqdo6","many_one","0","indirect_first","0","er09er23","1","20","1","0","3","2","","0","0","0","2862.2400001622736","","","","","neg","GS","GSold","2","category2/CS3.png","targets/18.png","","direct","","-26"
"","image-slider-response","323","639928","0.0-12.0-0.39","ldamhxqdo6","many_one","0","indirect_first","0","er09er23","1","20","1","0","3","2","","0","0","0","2406.08000010252","","","","","pos","GS","GSnew","4","category4/GS2.png","targets/25.png","","direct","","22"
"","image-slider-response","324","642096","0.0-12.0-0.40","ldamhxqdo6","many_one","0","indirect_first","0","er09er23","1","20","1","0","3","2","","0","0","0","2166.2900000810623","","","","","pos","CS","CS","4","category4/CS6.png","targets/14.png","","direct","","33"
