"success","trial_type","trial_index","time_elapsed","internal_node_id","subject","condition","condition_code","measure","measure_code","codeword","gender","age","education","chinese","fach","handedness","rt","url","responses","stimulus","key_press","val","type","type_specific","category","cs_selected","response","target","task","indirect","nr_pres"
"true","fullscreen","0","15439","0.0-0.0","6pzartsauw","one_one","1","direct_first","1","ru07rt11","0","21","1","1","3","1","","","","","","","","","","","","","","",""
"","external-html","1","58469","0.0-1.0","6pzartsauw","one_one","1","direct_first","1","ru07rt11","0","21","1","1","3","1","43014","text/information.html","","","","","","","","","","","","",""
"","external-html","2","84605","0.0-2.0","6pzartsauw","one_one","1","direct_first","1","ru07rt11","0","21","1","1","3","1","26110","text/consent.html","","","","","","","","","","","","",""
"","survey-html-form","3","145093","0.0-3.0","6pzartsauw","one_one","1","direct_first","1","ru07rt11","0","21","1","1","3","1","60485","","{""codeword_enter"":""ru07rt11""}","","","","","","","","","","","",""
"","survey-html-form","4","161974","0.0-4.0","6pzartsauw","one_one","1","direct_first","1","ru07rt11","0","21","1","1","3","1","16881","","{""age"":""21"",""education"":""1"",""subject"":""3"",""gender"":""0"",""handedness"":""1"",""chinese"":""1""}","","","","","","","","","","","",""
"","survey-html-form","5","164766","0.0-5.0","6pzartsauw","one_one","1","direct_first","1","ru07rt11","0","21","1","1","3","1","2791","","{}","","","","","","","","","","","",""
"","html-keyboard-response","6","168785","0.0-6.0-0.0-0.0","6pzartsauw","one_one","1","direct_first","1","ru07rt11","0","21","1","1","3","1","null","","","<div class = 'row'><div class = 'column'><img src = 'usneg/9181.bmp' width = '100%;'></div><div class = 'column'><img src = 'category2/CS4.png' width = '70%;'></div></div>","null","neg","CS","CS","2","category2/CS4.png","","","","",""
"","html-keyboard-response","7","171328","0.0-6.0-0.0-0.1","6pzartsauw","one_one","1","direct_first","1","ru07rt11","0","21","1","1","3","1","null","","","<div class = 'row'><div class = 'column'><img src = 'category1/CS10.png' width = '70%;'></div><div class = 'column'><img src = 'uspos/5760.bmp' width = '100%;'></div></div>","null","pos","CS","CS","1","category1/CS10.png","","","","",""
"","html-keyboard-response","8","173866","0.0-6.0-0.0-0.2","6pzartsauw","one_one","1","direct_first","1","ru07rt11","0","21","1","1","3","1","null","","","<div class = 'row'><div class = 'column'><img src = 'usneg/9181.bmp' width = '100%;'></div><div class = 'column'><img src = 'category2/CS4.png' width = '70%;'></div></div>","null","neg","CS","CS","2","category2/CS4.png","","","","",""
"","html-keyboard-response","9","176399","0.0-6.0-0.0-0.3","6pzartsauw","one_one","1","direct_first","1","ru07rt11","0","21","1","1","3","1","null","","","<div class = 'row'><div class = 'column'><img src = 'usneg/2750.bmp' width = '100%;'></div><div class = 'column'><img src = 'category4/CS6.png' width = '70%;'></div></div>","null","neg","CS","CS","4","category4/CS6.png","","","","",""
"","html-keyboard-response","10","178927","0.0-6.0-0.0-0.4","6pzartsauw","one_one","1","direct_first","1","ru07rt11","0","21","1","1","3","1","null","","","<div class = 'row'><div class = 'column'><img src = 'usneg/9181.bmp' width = '100%;'></div><div class = 'column'><img src = 'category2/CS4.png' width = '70%;'></div></div>","null","neg","CS","CS","2","category2/CS4.png","","","","",""
"","html-keyboard-response","11","181467","0.0-6.0-0.0-0.5","6pzartsauw","one_one","1","direct_first","1","ru07rt11","0","21","1","1","3","1","null","","","<div class = 'row'><div class = 'column'><img src = 'uspos/1460.bmp' width = '100%;'></div><div class = 'column'><img src = 'category3/CS3.png' width = '70%;'></div></div>","null","pos","CS","CS","3","category3/CS3.png","","","","",""
"","html-keyboard-response","12","184006","0.0-6.0-0.0-0.6","6pzartsauw","one_one","1","direct_first","1","ru07rt11","0","21","1","1","3","1","null","","","<div class = 'row'><div class = 'column'><img src = 'category4/CS6.png' width = '70%;'></div><div class = 'column'><img src = 'usneg/2750.bmp' width = '100%;'></div></div>","null","neg","CS","CS","4","category4/CS6.png","","","","",""
"","html-keyboard-response","13","186547","0.0-6.0-0.0-0.7","6pzartsauw","one_one","1","direct_first","1","ru07rt11","0","21","1","1","3","1","null","","","<div class = 'row'><div class = 'column'><img src = 'uspos/5760.bmp' width = '100%;'></div><div class = 'column'><img src = 'category1/CS10.png' width = '70%;'></div></div>","null","pos","CS","CS","1","category1/CS10.png","","","","",""
"","html-keyboard-response","14","189087","0.0-6.0-0.0-0.8","6pzartsauw","one_one","1","direct_first","1","ru07rt11","0","21","1","1","3","1","null","","","<div class = 'row'><div class = 'column'><img src = 'category3/CS3.png' width = '70%;'></div><div class = 'column'><img src = 'uspos/1460.bmp' width = '100%;'></div></div>","null","pos","CS","CS","3","category3/CS3.png","","","","",""
"","html-keyboard-response","15","191616","0.0-6.0-0.0-0.9","6pzartsauw","one_one","1","direct_first","1","ru07rt11","0","21","1","1","3","1","null","","","<div class = 'row'><div class = 'column'><img src = 'category4/CS6.png' width = '70%;'></div><div class = 'column'><img src = 'usneg/2750.bmp' width = '100%;'></div></div>","null","neg","CS","CS","4","category4/CS6.png","","","","",""
"","html-keyboard-response","16","194156","0.0-6.0-0.0-0.10","6pzartsauw","one_one","1","direct_first","1","ru07rt11","0","21","1","1","3","1","null","","","<div class = 'row'><div class = 'column'><img src = 'uspos/1460.bmp' width = '100%;'></div><div class = 'column'><img src = 'category3/CS3.png' width = '70%;'></div></div>","null","pos","CS","CS","3","category3/CS3.png","","","","",""
"","html-keyboard-response","17","196697","0.0-6.0-0.0-0.11","6pzartsauw","one_one","1","direct_first","1","ru07rt11","0","21","1","1","3","1","null","","","<div class = 'row'><div class = 'column'><img src = 'category2/CS4.png' width = '70%;'></div><div class = 'column'><img src = 'usneg/9181.bmp' width = '100%;'></div></div>","null","neg","CS","CS","2","category2/CS4.png","","","","",""
"","html-keyboard-response","18","199227","0.0-6.0-0.0-0.12","6pzartsauw","one_one","1","direct_first","1","ru07rt11","0","21","1","1","3","1","null","","","<div class = 'row'><div class = 'column'><img src = 'uspos/5760.bmp' width = '100%;'></div><div class = 'column'><img src = 'category1/CS10.png' width = '70%;'></div></div>","null","pos","CS","CS","1","category1/CS10.png","","","","",""
"","html-keyboard-response","19","201766","0.0-6.0-0.0-0.13","6pzartsauw","one_one","1","direct_first","1","ru07rt11","0","21","1","1","3","1","null","","","<div class = 'row'><div class = 'column'><img src = 'usneg/2750.bmp' width = '100%;'></div><div class = 'column'><img src = 'category4/CS6.png' width = '70%;'></div></div>","null","neg","CS","CS","4","category4/CS6.png","","","","",""
"","html-keyboard-response","20","204307","0.0-6.0-0.0-0.14","6pzartsauw","one_one","1","direct_first","1","ru07rt11","0","21","1","1","3","1","null","","","<div class = 'row'><div class = 'column'><img src = 'category1/CS10.png' width = '70%;'></div><div class = 'column'><img src = 'uspos/5760.bmp' width = '100%;'></div></div>","null","pos","CS","CS","1","category1/CS10.png","","","","",""
"","html-keyboard-response","21","206846","0.0-6.0-0.0-0.15","6pzartsauw","one_one","1","direct_first","1","ru07rt11","0","21","1","1","3","1","null","","","<div class = 'row'><div class = 'column'><img src = 'uspos/1460.bmp' width = '100%;'></div><div class = 'column'><img src = 'category3/CS3.png' width = '70%;'></div></div>","null","pos","CS","CS","3","category3/CS3.png","","","","",""
"","html-keyboard-response","22","209387","0.0-6.0-0.0-0.16","6pzartsauw","one_one","1","direct_first","1","ru07rt11","0","21","1","1","3","1","null","","","<div class = 'row'><div class = 'column'><img src = 'usneg/9181.bmp' width = '100%;'></div><div class = 'column'><img src = 'category2/CS4.png' width = '70%;'></div></div>","null","neg","CS","CS","2","category2/CS4.png","","","","",""
"","html-keyboard-response","23","211927","0.0-6.0-0.0-0.17","6pzartsauw","one_one","1","direct_first","1","ru07rt11","0","21","1","1","3","1","null","","","<div class = 'row'><div class = 'column'><img src = 'usneg/2750.bmp' width = '100%;'></div><div class = 'column'><img src = 'category4/CS6.png' width = '70%;'></div></div>","null","neg","CS","CS","4","category4/CS6.png","","","","",""
"","html-keyboard-response","24","214457","0.0-6.0-0.0-0.18","6pzartsauw","one_one","1","direct_first","1","ru07rt11","0","21","1","1","3","1","null","","","<div class = 'row'><div class = 'column'><img src = 'category1/CS10.png' width = '70%;'></div><div class = 'column'><img src = 'uspos/5760.bmp' width = '100%;'></div></div>","null","pos","CS","CS","1","category1/CS10.png","","","","",""
"","html-keyboard-response","25","216996","0.0-6.0-0.0-0.19","6pzartsauw","one_one","1","direct_first","1","ru07rt11","0","21","1","1","3","1","null","","","<div class = 'row'><div class = 'column'><img src = 'category3/CS3.png' width = '70%;'></div><div class = 'column'><img src = 'uspos/1460.bmp' width = '100%;'></div></div>","null","pos","CS","CS","3","category3/CS3.png","","","","",""
"","survey-html-form","26","220045","0.0-6.0-1.0","6pzartsauw","one_one","1","direct_first","1","ru07rt11","0","21","1","1","3","1","2528","","{}","","","","","","","","","","","",""
"","html-keyboard-response","27","224057","0.0-6.0-2.0-0.0","6pzartsauw","one_one","1","direct_first","1","ru07rt11","0","21","1","1","3","1","null","","","<div class = 'row'><div class = 'column'><img src = 'category4/CS6.png' width = '70%;'></div><div class = 'column'><img src = 'usneg/2750.bmp' width = '100%;'></div></div>","null","neg","CS","CS","4","category4/CS6.png","","","","",""
"","html-keyboard-response","28","226596","0.0-6.0-2.0-0.1","6pzartsauw","one_one","1","direct_first","1","ru07rt11","0","21","1","1","3","1","null","","","<div class = 'row'><div class = 'column'><img src = 'category3/CS3.png' width = '70%;'></div><div class = 'column'><img src = 'uspos/1460.bmp' width = '100%;'></div></div>","null","pos","CS","CS","3","category3/CS3.png","","","","",""
"","html-keyboard-response","29","229132","0.0-6.0-2.0-0.2","6pzartsauw","one_one","1","direct_first","1","ru07rt11","0","21","1","1","3","1","null","","","<div class = 'row'><div class = 'column'><img src = 'usneg/2750.bmp' width = '100%;'></div><div class = 'column'><img src = 'category4/CS6.png' width = '70%;'></div></div>","null","neg","CS","CS","4","category4/CS6.png","","","","",""
"","html-keyboard-response","30","231636","0.0-6.0-2.0-0.3","6pzartsauw","one_one","1","direct_first","1","ru07rt11","0","21","1","1","3","1","null","","","<div class = 'row'><div class = 'column'><img src = 'usneg/9181.bmp' width = '100%;'></div><div class = 'column'><img src = 'category2/CS4.png' width = '70%;'></div></div>","null","neg","CS","CS","2","category2/CS4.png","","","","",""
"","html-keyboard-response","31","234176","0.0-6.0-2.0-0.4","6pzartsauw","one_one","1","direct_first","1","ru07rt11","0","21","1","1","3","1","null","","","<div class = 'row'><div class = 'column'><img src = 'uspos/5760.bmp' width = '100%;'></div><div class = 'column'><img src = 'category1/CS10.png' width = '70%;'></div></div>","null","pos","CS","CS","1","category1/CS10.png","","","","",""
"","html-keyboard-response","32","236697","0.0-6.0-2.0-0.5","6pzartsauw","one_one","1","direct_first","1","ru07rt11","0","21","1","1","3","1","null","","","<div class = 'row'><div class = 'column'><img src = 'usneg/9181.bmp' width = '100%;'></div><div class = 'column'><img src = 'category2/CS4.png' width = '70%;'></div></div>","null","neg","CS","CS","2","category2/CS4.png","","","","",""
"","html-keyboard-response","33","239236","0.0-6.0-2.0-0.6","6pzartsauw","one_one","1","direct_first","1","ru07rt11","0","21","1","1","3","1","null","","","<div class = 'row'><div class = 'column'><img src = 'category1/CS10.png' width = '70%;'></div><div class = 'column'><img src = 'uspos/5760.bmp' width = '100%;'></div></div>","null","pos","CS","CS","1","category1/CS10.png","","","","",""
"","html-keyboard-response","34","241756","0.0-6.0-2.0-0.7","6pzartsauw","one_one","1","direct_first","1","ru07rt11","0","21","1","1","3","1","null","","","<div class = 'row'><div class = 'column'><img src = 'usneg/2750.bmp' width = '100%;'></div><div class = 'column'><img src = 'category4/CS6.png' width = '70%;'></div></div>","null","neg","CS","CS","4","category4/CS6.png","","","","",""
"","html-keyboard-response","35","244296","0.0-6.0-2.0-0.8","6pzartsauw","one_one","1","direct_first","1","ru07rt11","0","21","1","1","3","1","null","","","<div class = 'row'><div class = 'column'><img src = 'usneg/9181.bmp' width = '100%;'></div><div class = 'column'><img src = 'category2/CS4.png' width = '70%;'></div></div>","null","neg","CS","CS","2","category2/CS4.png","","","","",""
"","html-keyboard-response","36","246835","0.0-6.0-2.0-0.9","6pzartsauw","one_one","1","direct_first","1","ru07rt11","0","21","1","1","3","1","null","","","<div class = 'row'><div class = 'column'><img src = 'category4/CS6.png' width = '70%;'></div><div class = 'column'><img src = 'usneg/2750.bmp' width = '100%;'></div></div>","null","neg","CS","CS","4","category4/CS6.png","","","","",""
"","html-keyboard-response","37","249356","0.0-6.0-2.0-0.10","6pzartsauw","one_one","1","direct_first","1","ru07rt11","0","21","1","1","3","1","null","","","<div class = 'row'><div class = 'column'><img src = 'category2/CS4.png' width = '70%;'></div><div class = 'column'><img src = 'usneg/9181.bmp' width = '100%;'></div></div>","null","neg","CS","CS","2","category2/CS4.png","","","","",""
"","html-keyboard-response","38","251896","0.0-6.0-2.0-0.11","6pzartsauw","one_one","1","direct_first","1","ru07rt11","0","21","1","1","3","1","null","","","<div class = 'row'><div class = 'column'><img src = 'category3/CS3.png' width = '70%;'></div><div class = 'column'><img src = 'uspos/1460.bmp' width = '100%;'></div></div>","null","pos","CS","CS","3","category3/CS3.png","","","","",""
"","html-keyboard-response","39","254436","0.0-6.0-2.0-0.12","6pzartsauw","one_one","1","direct_first","1","ru07rt11","0","21","1","1","3","1","null","","","<div class = 'row'><div class = 'column'><img src = 'category1/CS10.png' width = '70%;'></div><div class = 'column'><img src = 'uspos/5760.bmp' width = '100%;'></div></div>","null","pos","CS","CS","1","category1/CS10.png","","","","",""
"","html-keyboard-response","40","256977","0.0-6.0-2.0-0.13","6pzartsauw","one_one","1","direct_first","1","ru07rt11","0","21","1","1","3","1","null","","","<div class = 'row'><div class = 'column'><img src = 'uspos/1460.bmp' width = '100%;'></div><div class = 'column'><img src = 'category3/CS3.png' width = '70%;'></div></div>","null","pos","CS","CS","3","category3/CS3.png","","","","",""
"","html-keyboard-response","41","259516","0.0-6.0-2.0-0.14","6pzartsauw","one_one","1","direct_first","1","ru07rt11","0","21","1","1","3","1","null","","","<div class = 'row'><div class = 'column'><img src = 'category4/CS6.png' width = '70%;'></div><div class = 'column'><img src = 'usneg/2750.bmp' width = '100%;'></div></div>","null","neg","CS","CS","4","category4/CS6.png","","","","",""
"","html-keyboard-response","42","262037","0.0-6.0-2.0-0.15","6pzartsauw","one_one","1","direct_first","1","ru07rt11","0","21","1","1","3","1","null","","","<div class = 'row'><div class = 'column'><img src = 'category3/CS3.png' width = '70%;'></div><div class = 'column'><img src = 'uspos/1460.bmp' width = '100%;'></div></div>","null","pos","CS","CS","3","category3/CS3.png","","","","",""
"","html-keyboard-response","43","264556","0.0-6.0-2.0-0.16","6pzartsauw","one_one","1","direct_first","1","ru07rt11","0","21","1","1","3","1","null","","","<div class = 'row'><div class = 'column'><img src = 'category1/CS10.png' width = '70%;'></div><div class = 'column'><img src = 'uspos/5760.bmp' width = '100%;'></div></div>","null","pos","CS","CS","1","category1/CS10.png","","","","",""
"","html-keyboard-response","44","267096","0.0-6.0-2.0-0.17","6pzartsauw","one_one","1","direct_first","1","ru07rt11","0","21","1","1","3","1","null","","","<div class = 'row'><div class = 'column'><img src = 'usneg/9181.bmp' width = '100%;'></div><div class = 'column'><img src = 'category2/CS4.png' width = '70%;'></div></div>","null","neg","CS","CS","2","category2/CS4.png","","","","",""
"","html-keyboard-response","45","269626","0.0-6.0-2.0-0.18","6pzartsauw","one_one","1","direct_first","1","ru07rt11","0","21","1","1","3","1","null","","","<div class = 'row'><div class = 'column'><img src = 'uspos/5760.bmp' width = '100%;'></div><div class = 'column'><img src = 'category1/CS10.png' width = '70%;'></div></div>","null","pos","CS","CS","1","category1/CS10.png","","","","",""
"","html-keyboard-response","46","272164","0.0-6.0-2.0-0.19","6pzartsauw","one_one","1","direct_first","1","ru07rt11","0","21","1","1","3","1","null","","","<div class = 'row'><div class = 'column'><img src = 'category3/CS3.png' width = '70%;'></div><div class = 'column'><img src = 'uspos/1460.bmp' width = '100%;'></div></div>","null","pos","CS","CS","3","category3/CS3.png","","","","",""
"","survey-html-form","47","276725","0.0-6.0-3.0","6pzartsauw","one_one","1","direct_first","1","ru07rt11","0","21","1","1","3","1","4058","","{}","","","","","","","","","","","",""
"","html-keyboard-response","48","280746","0.0-6.0-4.0-0.0","6pzartsauw","one_one","1","direct_first","1","ru07rt11","0","21","1","1","3","1","null","","","<div class = 'row'><div class = 'column'><img src = 'category2/CS4.png' width = '70%;'></div><div class = 'column'><img src = 'usneg/9181.bmp' width = '100%;'></div></div>","null","neg","CS","CS","2","category2/CS4.png","","","","",""
"","html-keyboard-response","49","283286","0.0-6.0-4.0-0.1","6pzartsauw","one_one","1","direct_first","1","ru07rt11","0","21","1","1","3","1","null","","","<div class = 'row'><div class = 'column'><img src = 'usneg/2750.bmp' width = '100%;'></div><div class = 'column'><img src = 'category4/CS6.png' width = '70%;'></div></div>","null","neg","CS","CS","4","category4/CS6.png","","","","",""
"","html-keyboard-response","50","285826","0.0-6.0-4.0-0.2","6pzartsauw","one_one","1","direct_first","1","ru07rt11","0","21","1","1","3","1","null","","","<div class = 'row'><div class = 'column'><img src = 'uspos/1460.bmp' width = '100%;'></div><div class = 'column'><img src = 'category3/CS3.png' width = '70%;'></div></div>","null","pos","CS","CS","3","category3/CS3.png","","","","",""
"","html-keyboard-response","51","288366","0.0-6.0-4.0-0.3","6pzartsauw","one_one","1","direct_first","1","ru07rt11","0","21","1","1","3","1","null","","","<div class = 'row'><div class = 'column'><img src = 'category4/CS6.png' width = '70%;'></div><div class = 'column'><img src = 'usneg/2750.bmp' width = '100%;'></div></div>","null","neg","CS","CS","4","category4/CS6.png","","","","",""
"","html-keyboard-response","52","290906","0.0-6.0-4.0-0.4","6pzartsauw","one_one","1","direct_first","1","ru07rt11","0","21","1","1","3","1","null","","","<div class = 'row'><div class = 'column'><img src = 'uspos/1460.bmp' width = '100%;'></div><div class = 'column'><img src = 'category3/CS3.png' width = '70%;'></div></div>","null","pos","CS","CS","3","category3/CS3.png","","","","",""
"","html-keyboard-response","53","293446","0.0-6.0-4.0-0.5","6pzartsauw","one_one","1","direct_first","1","ru07rt11","0","21","1","1","3","1","null","","","<div class = 'row'><div class = 'column'><img src = 'usneg/9181.bmp' width = '100%;'></div><div class = 'column'><img src = 'category2/CS4.png' width = '70%;'></div></div>","null","neg","CS","CS","2","category2/CS4.png","","","","",""
"","html-keyboard-response","54","295986","0.0-6.0-4.0-0.6","6pzartsauw","one_one","1","direct_first","1","ru07rt11","0","21","1","1","3","1","null","","","<div class = 'row'><div class = 'column'><img src = 'category4/CS6.png' width = '70%;'></div><div class = 'column'><img src = 'usneg/2750.bmp' width = '100%;'></div></div>","null","neg","CS","CS","4","category4/CS6.png","","","","",""
"","html-keyboard-response","55","298507","0.0-6.0-4.0-0.7","6pzartsauw","one_one","1","direct_first","1","ru07rt11","0","21","1","1","3","1","null","","","<div class = 'row'><div class = 'column'><img src = 'category1/CS10.png' width = '70%;'></div><div class = 'column'><img src = 'uspos/5760.bmp' width = '100%;'></div></div>","null","pos","CS","CS","1","category1/CS10.png","","","","",""
"","html-keyboard-response","56","301046","0.0-6.0-4.0-0.8","6pzartsauw","one_one","1","direct_first","1","ru07rt11","0","21","1","1","3","1","null","","","<div class = 'row'><div class = 'column'><img src = 'usneg/9181.bmp' width = '100%;'></div><div class = 'column'><img src = 'category2/CS4.png' width = '70%;'></div></div>","null","neg","CS","CS","2","category2/CS4.png","","","","",""
"","html-keyboard-response","57","303586","0.0-6.0-4.0-0.9","6pzartsauw","one_one","1","direct_first","1","ru07rt11","0","21","1","1","3","1","null","","","<div class = 'row'><div class = 'column'><img src = 'usneg/2750.bmp' width = '100%;'></div><div class = 'column'><img src = 'category4/CS6.png' width = '70%;'></div></div>","null","neg","CS","CS","4","category4/CS6.png","","","","",""
"","html-keyboard-response","58","306126","0.0-6.0-4.0-0.10","6pzartsauw","one_one","1","direct_first","1","ru07rt11","0","21","1","1","3","1","null","","","<div class = 'row'><div class = 'column'><img src = 'uspos/5760.bmp' width = '100%;'></div><div class = 'column'><img src = 'category1/CS10.png' width = '70%;'></div></div>","null","pos","CS","CS","1","category1/CS10.png","","","","",""
"","html-keyboard-response","59","308646","0.0-6.0-4.0-0.11","6pzartsauw","one_one","1","direct_first","1","ru07rt11","0","21","1","1","3","1","null","","","<div class = 'row'><div class = 'column'><img src = 'category3/CS3.png' width = '70%;'></div><div class = 'column'><img src = 'uspos/1460.bmp' width = '100%;'></div></div>","null","pos","CS","CS","3","category3/CS3.png","","","","",""
"","html-keyboard-response","60","311183","0.0-6.0-4.0-0.12","6pzartsauw","one_one","1","direct_first","1","ru07rt11","0","21","1","1","3","1","null","","","<div class = 'row'><div class = 'column'><img src = 'usneg/9181.bmp' width = '100%;'></div><div class = 'column'><img src = 'category2/CS4.png' width = '70%;'></div></div>","null","neg","CS","CS","2","category2/CS4.png","","","","",""
"","html-keyboard-response","61","313716","0.0-6.0-4.0-0.13","6pzartsauw","one_one","1","direct_first","1","ru07rt11","0","21","1","1","3","1","null","","","<div class = 'row'><div class = 'column'><img src = 'uspos/1460.bmp' width = '100%;'></div><div class = 'column'><img src = 'category3/CS3.png' width = '70%;'></div></div>","null","pos","CS","CS","3","category3/CS3.png","","","","",""
"","html-keyboard-response","62","316236","0.0-6.0-4.0-0.14","6pzartsauw","one_one","1","direct_first","1","ru07rt11","0","21","1","1","3","1","null","","","<div class = 'row'><div class = 'column'><img src = 'category2/CS4.png' width = '70%;'></div><div class = 'column'><img src = 'usneg/9181.bmp' width = '100%;'></div></div>","null","neg","CS","CS","2","category2/CS4.png","","","","",""
"","html-keyboard-response","63","318776","0.0-6.0-4.0-0.15","6pzartsauw","one_one","1","direct_first","1","ru07rt11","0","21","1","1","3","1","null","","","<div class = 'row'><div class = 'column'><img src = 'uspos/5760.bmp' width = '100%;'></div><div class = 'column'><img src = 'category1/CS10.png' width = '70%;'></div></div>","null","pos","CS","CS","1","category1/CS10.png","","","","",""
"","html-keyboard-response","64","321296","0.0-6.0-4.0-0.16","6pzartsauw","one_one","1","direct_first","1","ru07rt11","0","21","1","1","3","1","null","","","<div class = 'row'><div class = 'column'><img src = 'category3/CS3.png' width = '70%;'></div><div class = 'column'><img src = 'uspos/1460.bmp' width = '100%;'></div></div>","null","pos","CS","CS","3","category3/CS3.png","","","","",""
"","html-keyboard-response","65","323834","0.0-6.0-4.0-0.17","6pzartsauw","one_one","1","direct_first","1","ru07rt11","0","21","1","1","3","1","null","","","<div class = 'row'><div class = 'column'><img src = 'category1/CS10.png' width = '70%;'></div><div class = 'column'><img src = 'uspos/5760.bmp' width = '100%;'></div></div>","null","pos","CS","CS","1","category1/CS10.png","","","","",""
"","html-keyboard-response","66","326356","0.0-6.0-4.0-0.18","6pzartsauw","one_one","1","direct_first","1","ru07rt11","0","21","1","1","3","1","null","","","<div class = 'row'><div class = 'column'><img src = 'usneg/2750.bmp' width = '100%;'></div><div class = 'column'><img src = 'category4/CS6.png' width = '70%;'></div></div>","null","neg","CS","CS","4","category4/CS6.png","","","","",""
"","html-keyboard-response","67","328886","0.0-6.0-4.0-0.19","6pzartsauw","one_one","1","direct_first","1","ru07rt11","0","21","1","1","3","1","null","","","<div class = 'row'><div class = 'column'><img src = 'uspos/5760.bmp' width = '100%;'></div><div class = 'column'><img src = 'category1/CS10.png' width = '70%;'></div></div>","null","pos","CS","CS","1","category1/CS10.png","","","","",""
"","survey-html-form","68","333245","0.0-6.0-5.0","6pzartsauw","one_one","1","direct_first","1","ru07rt11","0","21","1","1","3","1","3839","","{}","","","","","","","","","","","",""
"","html-keyboard-response","69","337266","0.0-6.0-6.0-0.0","6pzartsauw","one_one","1","direct_first","1","ru07rt11","0","21","1","1","3","1","null","","","<div class = 'row'><div class = 'column'><img src = 'usneg/2750.bmp' width = '100%;'></div><div class = 'column'><img src = 'category4/CS6.png' width = '70%;'></div></div>","null","neg","CS","CS","4","category4/CS6.png","","","","",""
"","html-keyboard-response","70","339806","0.0-6.0-6.0-0.1","6pzartsauw","one_one","1","direct_first","1","ru07rt11","0","21","1","1","3","1","null","","","<div class = 'row'><div class = 'column'><img src = 'category2/CS4.png' width = '70%;'></div><div class = 'column'><img src = 'usneg/9181.bmp' width = '100%;'></div></div>","null","neg","CS","CS","2","category2/CS4.png","","","","",""
"","html-keyboard-response","71","342347","0.0-6.0-6.0-0.2","6pzartsauw","one_one","1","direct_first","1","ru07rt11","0","21","1","1","3","1","null","","","<div class = 'row'><div class = 'column'><img src = 'category3/CS3.png' width = '70%;'></div><div class = 'column'><img src = 'uspos/1460.bmp' width = '100%;'></div></div>","null","pos","CS","CS","3","category3/CS3.png","","","","",""
"","html-keyboard-response","72","344886","0.0-6.0-6.0-0.3","6pzartsauw","one_one","1","direct_first","1","ru07rt11","0","21","1","1","3","1","null","","","<div class = 'row'><div class = 'column'><img src = 'uspos/5760.bmp' width = '100%;'></div><div class = 'column'><img src = 'category1/CS10.png' width = '70%;'></div></div>","null","pos","CS","CS","1","category1/CS10.png","","","","",""
"","html-keyboard-response","73","347426","0.0-6.0-6.0-0.4","6pzartsauw","one_one","1","direct_first","1","ru07rt11","0","21","1","1","3","1","null","","","<div class = 'row'><div class = 'column'><img src = 'uspos/1460.bmp' width = '100%;'></div><div class = 'column'><img src = 'category3/CS3.png' width = '70%;'></div></div>","null","pos","CS","CS","3","category3/CS3.png","","","","",""
"","html-keyboard-response","74","349956","0.0-6.0-6.0-0.5","6pzartsauw","one_one","1","direct_first","1","ru07rt11","0","21","1","1","3","1","null","","","<div class = 'row'><div class = 'column'><img src = 'uspos/5760.bmp' width = '100%;'></div><div class = 'column'><img src = 'category1/CS10.png' width = '70%;'></div></div>","null","pos","CS","CS","1","category1/CS10.png","","","","",""
"","html-keyboard-response","75","352487","0.0-6.0-6.0-0.6","6pzartsauw","one_one","1","direct_first","1","ru07rt11","0","21","1","1","3","1","null","","","<div class = 'row'><div class = 'column'><img src = 'category4/CS6.png' width = '70%;'></div><div class = 'column'><img src = 'usneg/2750.bmp' width = '100%;'></div></div>","null","neg","CS","CS","4","category4/CS6.png","","","","",""
"","html-keyboard-response","76","355023","0.0-6.0-6.0-0.7","6pzartsauw","one_one","1","direct_first","1","ru07rt11","0","21","1","1","3","1","null","","","<div class = 'row'><div class = 'column'><img src = 'category3/CS3.png' width = '70%;'></div><div class = 'column'><img src = 'uspos/1460.bmp' width = '100%;'></div></div>","null","pos","CS","CS","3","category3/CS3.png","","","","",""
"","html-keyboard-response","77","357526","0.0-6.0-6.0-0.8","6pzartsauw","one_one","1","direct_first","1","ru07rt11","0","21","1","1","3","1","null","","","<div class = 'row'><div class = 'column'><img src = 'uspos/5760.bmp' width = '100%;'></div><div class = 'column'><img src = 'category1/CS10.png' width = '70%;'></div></div>","null","pos","CS","CS","1","category1/CS10.png","","","","",""
"","html-keyboard-response","78","360046","0.0-6.0-6.0-0.9","6pzartsauw","one_one","1","direct_first","1","ru07rt11","0","21","1","1","3","1","null","","","<div class = 'row'><div class = 'column'><img src = 'category2/CS4.png' width = '70%;'></div><div class = 'column'><img src = 'usneg/9181.bmp' width = '100%;'></div></div>","null","neg","CS","CS","2","category2/CS4.png","","","","",""
"","html-keyboard-response","79","362577","0.0-6.0-6.0-0.10","6pzartsauw","one_one","1","direct_first","1","ru07rt11","0","21","1","1","3","1","null","","","<div class = 'row'><div class = 'column'><img src = 'category1/CS10.png' width = '70%;'></div><div class = 'column'><img src = 'uspos/5760.bmp' width = '100%;'></div></div>","null","pos","CS","CS","1","category1/CS10.png","","","","",""
"","html-keyboard-response","80","365115","0.0-6.0-6.0-0.11","6pzartsauw","one_one","1","direct_first","1","ru07rt11","0","21","1","1","3","1","null","","","<div class = 'row'><div class = 'column'><img src = 'category4/CS6.png' width = '70%;'></div><div class = 'column'><img src = 'usneg/2750.bmp' width = '100%;'></div></div>","null","neg","CS","CS","4","category4/CS6.png","","","","",""
"","html-keyboard-response","81","367636","0.0-6.0-6.0-0.12","6pzartsauw","one_one","1","direct_first","1","ru07rt11","0","21","1","1","3","1","null","","","<div class = 'row'><div class = 'column'><img src = 'usneg/9181.bmp' width = '100%;'></div><div class = 'column'><img src = 'category2/CS4.png' width = '70%;'></div></div>","null","neg","CS","CS","2","category2/CS4.png","","","","",""
"","html-keyboard-response","82","370177","0.0-6.0-6.0-0.13","6pzartsauw","one_one","1","direct_first","1","ru07rt11","0","21","1","1","3","1","null","","","<div class = 'row'><div class = 'column'><img src = 'category3/CS3.png' width = '70%;'></div><div class = 'column'><img src = 'uspos/1460.bmp' width = '100%;'></div></div>","null","pos","CS","CS","3","category3/CS3.png","","","","",""
"","html-keyboard-response","83","372716","0.0-6.0-6.0-0.14","6pzartsauw","one_one","1","direct_first","1","ru07rt11","0","21","1","1","3","1","null","","","<div class = 'row'><div class = 'column'><img src = 'usneg/2750.bmp' width = '100%;'></div><div class = 'column'><img src = 'category4/CS6.png' width = '70%;'></div></div>","null","neg","CS","CS","4","category4/CS6.png","","","","",""
"","html-keyboard-response","84","375257","0.0-6.0-6.0-0.15","6pzartsauw","one_one","1","direct_first","1","ru07rt11","0","21","1","1","3","1","null","","","<div class = 'row'><div class = 'column'><img src = 'category2/CS4.png' width = '70%;'></div><div class = 'column'><img src = 'usneg/9181.bmp' width = '100%;'></div></div>","null","neg","CS","CS","2","category2/CS4.png","","","","",""
"","html-keyboard-response","85","377796","0.0-6.0-6.0-0.16","6pzartsauw","one_one","1","direct_first","1","ru07rt11","0","21","1","1","3","1","null","","","<div class = 'row'><div class = 'column'><img src = 'category4/CS6.png' width = '70%;'></div><div class = 'column'><img src = 'usneg/2750.bmp' width = '100%;'></div></div>","null","neg","CS","CS","4","category4/CS6.png","","","","",""
"","html-keyboard-response","86","380307","0.0-6.0-6.0-0.17","6pzartsauw","one_one","1","direct_first","1","ru07rt11","0","21","1","1","3","1","null","","","<div class = 'row'><div class = 'column'><img src = 'category3/CS3.png' width = '70%;'></div><div class = 'column'><img src = 'uspos/1460.bmp' width = '100%;'></div></div>","null","pos","CS","CS","3","category3/CS3.png","","","","",""
"","html-keyboard-response","87","382846","0.0-6.0-6.0-0.18","6pzartsauw","one_one","1","direct_first","1","ru07rt11","0","21","1","1","3","1","null","","","<div class = 'row'><div class = 'column'><img src = 'category2/CS4.png' width = '70%;'></div><div class = 'column'><img src = 'usneg/9181.bmp' width = '100%;'></div></div>","null","neg","CS","CS","2","category2/CS4.png","","","","",""
"","html-keyboard-response","88","385386","0.0-6.0-6.0-0.19","6pzartsauw","one_one","1","direct_first","1","ru07rt11","0","21","1","1","3","1","null","","","<div class = 'row'><div class = 'column'><img src = 'uspos/5760.bmp' width = '100%;'></div><div class = 'column'><img src = 'category1/CS10.png' width = '70%;'></div></div>","null","pos","CS","CS","1","category1/CS10.png","","","","",""
"","survey-html-form","89","396109","0.0-7.0","6pzartsauw","one_one","1","direct_first","1","ru07rt11","0","21","1","1","3","1","10203","","{}","","","","","","","","","","","",""
"","image-slider-response","90","404108","0.0-8.0-0.0","6pzartsauw","one_one","1","direct_first","1","ru07rt11","0","21","1","1","3","1","5975","","","","","pos","GS","GSnew","1","category1/GS2.png","-37","targets/34.png","direct","",""
"","image-slider-response","91","406860","0.0-8.0-0.1","6pzartsauw","one_one","1","direct_first","1","ru07rt11","0","21","1","1","3","1","2752","","","","","pos","GS","GSold","3","category3/CS7.png","37","targets/38.png","direct","",""
"","image-slider-response","92","410077","0.0-8.0-0.2","6pzartsauw","one_one","1","direct_first","1","ru07rt11","0","21","1","1","3","1","3214","","","","","pos","GS","GSnew","1","category1/GS3.png","-50","targets/20.png","direct","",""
"","image-slider-response","93","412372","0.0-8.0-0.3","6pzartsauw","one_one","1","direct_first","1","ru07rt11","0","21","1","1","3","1","2295","","","","","neg","GS","GSold","4","category4/CS2.png","23","targets/26.png","direct","",""
"","image-slider-response","94","414788","0.0-8.0-0.4","6pzartsauw","one_one","1","direct_first","1","ru07rt11","0","21","1","1","3","1","2414","","","","","neg","GS","GSnew","4","category4/GS3.png","77","targets/41.png","direct","",""
"","image-slider-response","95","417884","0.0-8.0-0.5","6pzartsauw","one_one","1","direct_first","1","ru07rt11","0","21","1","1","3","1","3095","","","","","pos","GS","GSold","1","category1/CS5.png","-74","targets/35.png","direct","",""
"","image-slider-response","96","421780","0.0-8.0-0.6","6pzartsauw","one_one","1","direct_first","1","ru07rt11","0","21","1","1","3","1","3894","","","","","pos","GS","GSold","3","category3/CS2.png","71","targets/45.png","direct","",""
"","image-slider-response","97","424285","0.0-8.0-0.7","6pzartsauw","one_one","1","direct_first","1","ru07rt11","0","21","1","1","3","1","2503","","","","","pos","GS","GSnew","3","category3/GS2.png","-37","targets/19.png","direct","",""
"","image-slider-response","98","426924","0.0-8.0-0.8","6pzartsauw","one_one","1","direct_first","1","ru07rt11","0","21","1","1","3","1","2638","","","","","neg","GS","GSold","4","category4/CS9.png","52","targets/3.png","direct","",""
"","image-slider-response","99","429084","0.0-8.0-0.9","6pzartsauw","one_one","1","direct_first","1","ru07rt11","0","21","1","1","3","1","2160","","","","","neg","GS","GSnew","2","category2/GS1.png","-86","targets/31.png","direct","",""
"","image-slider-response","100","430844","0.0-8.0-0.10","6pzartsauw","one_one","1","direct_first","1","ru07rt11","0","21","1","1","3","1","1758","","","","","pos","GS","GSold","1","category1/CS8.png","-30","targets/48.png","direct","",""
"","image-slider-response","101","433220","0.0-8.0-0.11","6pzartsauw","one_one","1","direct_first","1","ru07rt11","0","21","1","1","3","1","2374","","","","","neg","GS","GSnew","4","category4/GS2.png","-43","targets/21.png","direct","",""
"","image-slider-response","102","435540","0.0-8.0-0.12","6pzartsauw","one_one","1","direct_first","1","ru07rt11","0","21","1","1","3","1","2319","","","","","pos","CS","CS","1","category1/CS10.png","59","targets/11.png","direct","",""
"","image-slider-response","103","438980","0.0-8.0-0.13","6pzartsauw","one_one","1","direct_first","1","ru07rt11","0","21","1","1","3","1","3439","","","","","neg","GS","GSold","2","category2/CS1.png","64","targets/15.png","direct","",""
"","image-slider-response","104","441125","0.0-8.0-0.14","6pzartsauw","one_one","1","direct_first","1","ru07rt11","0","21","1","1","3","1","2143","","","","","pos","GS","abstract","1","category1/ma.png","-39","targets/4.png","direct","",""
"","image-slider-response","105","443356","0.0-8.0-0.15","6pzartsauw","one_one","1","direct_first","1","ru07rt11","0","21","1","1","3","1","2231","","","","","pos","GS","GSold","3","category3/CS5.png","40","targets/12.png","direct","",""
"","image-slider-response","106","445749","0.0-8.0-0.16","6pzartsauw","one_one","1","direct_first","1","ru07rt11","0","21","1","1","3","1","2390","","","","","neg","GS","abstract","2","category2/men.png","80","targets/10.png","direct","",""
"","image-slider-response","107","447524","0.0-8.0-0.17","6pzartsauw","one_one","1","direct_first","1","ru07rt11","0","21","1","1","3","1","1776","","","","","neg","GS","GSold","4","category4/CS8.png","-32","targets/29.png","direct","",""
"","image-slider-response","108","449925","0.0-8.0-0.18","6pzartsauw","one_one","1","direct_first","1","ru07rt11","0","21","1","1","3","1","2399","","","","","neg","GS","abstract","4","category4/lin.png","83","targets/6.png","direct","",""
"","image-slider-response","109","452068","0.0-8.0-0.19","6pzartsauw","one_one","1","direct_first","1","ru07rt11","0","21","1","1","3","1","2144","","","","","pos","CS","CS","3","category3/CS3.png","34","targets/1.png","direct","",""
"","image-slider-response","110","454116","0.0-8.0-0.20","6pzartsauw","one_one","1","direct_first","1","ru07rt11","0","21","1","1","3","1","2048","","","","","neg","GS","GSnew","2","category2/GS3.png","26","targets/5.png","direct","",""
"","image-slider-response","111","456588","0.0-8.0-0.21","6pzartsauw","one_one","1","direct_first","1","ru07rt11","0","21","1","1","3","1","2472","","","","","neg","GS","GSold","2","category2/CS5.png","80","targets/46.png","direct","",""
"","image-slider-response","112","458613","0.0-8.0-0.22","6pzartsauw","one_one","1","direct_first","1","ru07rt11","0","21","1","1","3","1","2022","","","","","neg","GS","GSnew","2","category2/GS2.png","-52","targets/18.png","direct","",""
"","image-slider-response","113","460724","0.0-8.0-0.23","6pzartsauw","one_one","1","direct_first","1","ru07rt11","0","21","1","1","3","1","2111","","","","","neg","GS","GSold","2","category2/CS3.png","59","targets/8.png","direct","",""
"","image-slider-response","114","463604","0.0-8.0-0.24","6pzartsauw","one_one","1","direct_first","1","ru07rt11","0","21","1","1","3","1","2879","","","","","neg","CS","CS","4","category4/CS6.png","20","targets/30.png","direct","",""
"","image-slider-response","115","465661","0.0-8.0-0.25","6pzartsauw","one_one","1","direct_first","1","ru07rt11","0","21","1","1","3","1","2054","","","","","pos","GS","GSnew","1","category1/GS1.png","-50","targets/7.png","direct","",""
"","image-slider-response","116","468125","0.0-8.0-0.26","6pzartsauw","one_one","1","direct_first","1","ru07rt11","0","21","1","1","3","1","2463","","","","","neg","CS","CS","2","category2/CS4.png","20","targets/14.png","direct","",""
"","image-slider-response","117","470277","0.0-8.0-0.27","6pzartsauw","one_one","1","direct_first","1","ru07rt11","0","21","1","1","3","1","2151","","","","","pos","GS","GSnew","3","category3/GS3.png","37","targets/13.png","direct","",""
"","image-slider-response","118","472428","0.0-8.0-0.28","6pzartsauw","one_one","1","direct_first","1","ru07rt11","0","21","1","1","3","1","2151","","","","","pos","GS","GSnew","3","category3/GS1.png","-61","targets/47.png","direct","",""
"","image-slider-response","119","474365","0.0-8.0-0.29","6pzartsauw","one_one","1","direct_first","1","ru07rt11","0","21","1","1","3","1","1934","","","","","pos","GS","GSold","1","category1/CS6.png","-44","targets/36.png","direct","",""
"","image-slider-response","120","476653","0.0-8.0-0.30","6pzartsauw","one_one","1","direct_first","1","ru07rt11","0","21","1","1","3","1","2286","","","","","pos","GS","abstract","3","category3/wang.png","98","targets/27.png","direct","",""
"","image-slider-response","121","478813","0.0-8.0-0.31","6pzartsauw","one_one","1","direct_first","1","ru07rt11","0","21","1","1","3","1","2159","","","","","neg","GS","GSnew","4","category4/GS1.png","63","targets/9.png","direct","",""
"","html-keyboard-response","122","518223","0.0-9.0","6pzartsauw","one_one","1","direct_first","1","ru07rt11","0","21","1","1","3","1","39409","","","<p>Sie sehen nun die chinesischen Zeichen nur ganz kurz. Danach sehen Sie die jeweilige Aussprache der Zeichen als Silbe auf dem Bildschrim. Ihre Aufgabe ist es, für jede Silbe anzugeben, ob diese etwas angenehmes, oder unangenehmes bedeuten könnte. Verlassen Sie sich hier vor allem auf Ihre Intuition.<br><br>Die Zeichen werden nur zur Orientierung dargestellt, beachten Sie sie deshalb nicht. Konzentrieren Sie sich vor allem auf die Silben. <br>Reagieren Sie mit folgenden zwei Tasten: <br><br><b>'D' </b> wenn die Silbe etwas <b>unangenehmes</b> bedeuten könnte. <br><b>'K'</b> wenn die Silbe etwas <b>angenehmes</b> bedeuten könnte. <br><br>Bitte legen Sie nun den Zeigefinger der linken Hand auf die Taste 'D' und den Zeigefinger der rechten Hand auf die Taste 'K'. <br>Reagieren Sie auf jede Silbe so schnell wie möglich. Uns interessiert Ihre spontane Reaktion. <br> <br> <br>Drücken Sie 'D' oder 'K', um die nächste Aufgabe zu starten. </p>","75","","","","","","","","","",""
"","html-keyboard-response","123","521251","0.0-10.0-0.0","6pzartsauw","one_one","1","direct_first","1","ru07rt11","0","21","1","1","3","1","null","","","<div style=""font-size:60px;"">+</div>","null","","","","","","","","","",""
"","html-keyboard-response","124","521352","0.0-10.0-1.0","6pzartsauw","one_one","1","direct_first","1","ru07rt11","0","21","1","1","3","1","null","","","<img src = 'category1/CS5.png' width = '100%;'>","null","","","","","","","","","",""
"","html-keyboard-response","125","521636","0.0-10.0-2.0","6pzartsauw","one_one","1","direct_first","1","ru07rt11","0","21","1","1","3","1","null","","","<img src = 'targets/35.png' width = '100%;'>","null","","","","","","","","","",""
"","html-keyboard-response","126","522877","0.0-10.0-3.0","6pzartsauw","one_one","1","direct_first","1","ru07rt11","0","21","1","1","3","1","1240","","","<img src = 'targets/mask.png' width = '100%;'>","75","pos","GS","GSold","1","category1/CS5.png","","targets/35.png","indirect","1","0"
"","html-keyboard-response","127","524416","0.0-10.0-0.1","6pzartsauw","one_one","1","direct_first","1","ru07rt11","0","21","1","1","3","1","null","","","<div style=""font-size:60px;"">+</div>","null","","","","","","","","","",""
"","html-keyboard-response","128","524515","0.0-10.0-1.1","6pzartsauw","one_one","1","direct_first","1","ru07rt11","0","21","1","1","3","1","null","","","<img src = 'category4/CS2.png' width = '100%;'>","null","","","","","","","","","",""
"","html-keyboard-response","129","524796","0.0-10.0-2.1","6pzartsauw","one_one","1","direct_first","1","ru07rt11","0","21","1","1","3","1","null","","","<img src = 'targets/26.png' width = '100%;'>","null","","","","","","","","","",""
"","html-keyboard-response","130","525782","0.0-10.0-3.1","6pzartsauw","one_one","1","direct_first","1","ru07rt11","0","21","1","1","3","1","984","","","<img src = 'targets/mask.png' width = '100%;'>","68","neg","GS","GSold","4","category4/CS2.png","","targets/26.png","indirect","0","1"
"","html-keyboard-response","131","527296","0.0-10.0-0.2","6pzartsauw","one_one","1","direct_first","1","ru07rt11","0","21","1","1","3","1","null","","","<div style=""font-size:60px;"">+</div>","null","","","","","","","","","",""
"","html-keyboard-response","132","527396","0.0-10.0-1.2","6pzartsauw","one_one","1","direct_first","1","ru07rt11","0","21","1","1","3","1","null","","","<img src = 'category1/CS8.png' width = '100%;'>","null","","","","","","","","","",""
"","html-keyboard-response","133","527677","0.0-10.0-2.2","6pzartsauw","one_one","1","direct_first","1","ru07rt11","0","21","1","1","3","1","null","","","<img src = 'targets/48.png' width = '100%;'>","null","","","","","","","","","",""
"","html-keyboard-response","134","528542","0.0-10.0-3.2","6pzartsauw","one_one","1","direct_first","1","ru07rt11","0","21","1","1","3","1","864","","","<img src = 'targets/mask.png' width = '100%;'>","75","pos","GS","GSold","1","category1/CS8.png","","targets/48.png","indirect","1","2"
"","html-keyboard-response","135","530066","0.0-10.0-0.3","6pzartsauw","one_one","1","direct_first","1","ru07rt11","0","21","1","1","3","1","null","","","<div style=""font-size:60px;"">+</div>","null","","","","","","","","","",""
"","html-keyboard-response","136","530167","0.0-10.0-1.3","6pzartsauw","one_one","1","direct_first","1","ru07rt11","0","21","1","1","3","1","null","","","<img src = 'category2/CS1.png' width = '100%;'>","null","","","","","","","","","",""
"","html-keyboard-response","137","530446","0.0-10.0-2.3","6pzartsauw","one_one","1","direct_first","1","ru07rt11","0","21","1","1","3","1","null","","","<img src = 'targets/15.png' width = '100%;'>","null","","","","","","","","","",""
"","html-keyboard-response","138","531158","0.0-10.0-3.3","6pzartsauw","one_one","1","direct_first","1","ru07rt11","0","21","1","1","3","1","711","","","<img src = 'targets/mask.png' width = '100%;'>","75","neg","GS","GSold","2","category2/CS1.png","","targets/15.png","indirect","1","3"
"","html-keyboard-response","139","532676","0.0-10.0-0.4","6pzartsauw","one_one","1","direct_first","1","ru07rt11","0","21","1","1","3","1","null","","","<div style=""font-size:60px;"">+</div>","null","","","","","","","","","",""
"","html-keyboard-response","140","532777","0.0-10.0-1.4","6pzartsauw","one_one","1","direct_first","1","ru07rt11","0","21","1","1","3","1","null","","","<img src = 'category4/CS9.png' width = '100%;'>","null","","","","","","","","","",""
"","html-keyboard-response","141","533056","0.0-10.0-2.4","6pzartsauw","one_one","1","direct_first","1","ru07rt11","0","21","1","1","3","1","null","","","<img src = 'targets/3.png' width = '100%;'>","null","","","","","","","","","",""
"","html-keyboard-response","142","533822","0.0-10.0-3.4","6pzartsauw","one_one","1","direct_first","1","ru07rt11","0","21","1","1","3","1","763","","","<img src = 'targets/mask.png' width = '100%;'>","75","neg","GS","GSold","4","category4/CS9.png","","targets/3.png","indirect","1","4"
"","html-keyboard-response","143","535356","0.0-10.0-0.5","6pzartsauw","one_one","1","direct_first","1","ru07rt11","0","21","1","1","3","1","null","","","<div style=""font-size:60px;"">+</div>","null","","","","","","","","","",""
"","html-keyboard-response","144","535456","0.0-10.0-1.5","6pzartsauw","one_one","1","direct_first","1","ru07rt11","0","21","1","1","3","1","null","","","<img src = 'category3/CS5.png' width = '100%;'>","null","","","","","","","","","",""
"","html-keyboard-response","145","535736","0.0-10.0-2.5","6pzartsauw","one_one","1","direct_first","1","ru07rt11","0","21","1","1","3","1","null","","","<img src = 'targets/12.png' width = '100%;'>","null","","","","","","","","","",""
"","html-keyboard-response","146","536237","0.0-10.0-3.5","6pzartsauw","one_one","1","direct_first","1","ru07rt11","0","21","1","1","3","1","501","","","<img src = 'targets/mask.png' width = '100%;'>","75","pos","GS","GSold","3","category3/CS5.png","","targets/12.png","indirect","1","5"
"","html-keyboard-response","147","537776","0.0-10.0-0.6","6pzartsauw","one_one","1","direct_first","1","ru07rt11","0","21","1","1","3","1","null","","","<div style=""font-size:60px;"">+</div>","null","","","","","","","","","",""
"","html-keyboard-response","148","537877","0.0-10.0-1.6","6pzartsauw","one_one","1","direct_first","1","ru07rt11","0","21","1","1","3","1","null","","","<img src = 'category2/CS4.png' width = '100%;'>","null","","","","","","","","","",""
"","html-keyboard-response","149","538156","0.0-10.0-2.6","6pzartsauw","one_one","1","direct_first","1","ru07rt11","0","21","1","1","3","1","null","","","<img src = 'targets/14.png' width = '100%;'>","null","","","","","","","","","",""
"","html-keyboard-response","150","538701","0.0-10.0-3.6","6pzartsauw","one_one","1","direct_first","1","ru07rt11","0","21","1","1","3","1","545","","","<img src = 'targets/mask.png' width = '100%;'>","75","neg","CS","CS","2","category2/CS4.png","","targets/14.png","indirect","1","6"
"","html-keyboard-response","151","540236","0.0-10.0-0.7","6pzartsauw","one_one","1","direct_first","1","ru07rt11","0","21","1","1","3","1","null","","","<div style=""font-size:60px;"">+</div>","null","","","","","","","","","",""
"","html-keyboard-response","152","540337","0.0-10.0-1.7","6pzartsauw","one_one","1","direct_first","1","ru07rt11","0","21","1","1","3","1","null","","","<img src = 'category4/CS6.png' width = '100%;'>","null","","","","","","","","","",""
"","html-keyboard-response","153","540616","0.0-10.0-2.7","6pzartsauw","one_one","1","direct_first","1","ru07rt11","0","21","1","1","3","1","null","","","<img src = 'targets/30.png' width = '100%;'>","null","","","","","","","","","",""
"","html-keyboard-response","154","541278","0.0-10.0-3.7","6pzartsauw","one_one","1","direct_first","1","ru07rt11","0","21","1","1","3","1","659","","","<img src = 'targets/mask.png' width = '100%;'>","75","neg","CS","CS","4","category4/CS6.png","","targets/30.png","indirect","1","7"
"","html-keyboard-response","155","542806","0.0-10.0-0.8","6pzartsauw","one_one","1","direct_first","1","ru07rt11","0","21","1","1","3","1","null","","","<div style=""font-size:60px;"">+</div>","null","","","","","","","","","",""
"","html-keyboard-response","156","542907","0.0-10.0-1.8","6pzartsauw","one_one","1","direct_first","1","ru07rt11","0","21","1","1","3","1","null","","","<img src = 'category2/CS5.png' width = '100%;'>","null","","","","","","","","","",""
"","html-keyboard-response","157","543186","0.0-10.0-2.8","6pzartsauw","one_one","1","direct_first","1","ru07rt11","0","21","1","1","3","1","null","","","<img src = 'targets/46.png' width = '100%;'>","null","","","","","","","","","",""
"","html-keyboard-response","158","543629","0.0-10.0-3.8","6pzartsauw","one_one","1","direct_first","1","ru07rt11","0","21","1","1","3","1","442","","","<img src = 'targets/mask.png' width = '100%;'>","75","neg","GS","GSold","2","category2/CS5.png","","targets/46.png","indirect","1","8"
"","html-keyboard-response","159","545166","0.0-10.0-0.9","6pzartsauw","one_one","1","direct_first","1","ru07rt11","0","21","1","1","3","1","null","","","<div style=""font-size:60px;"">+</div>","null","","","","","","","","","",""
"","html-keyboard-response","160","545266","0.0-10.0-1.9","6pzartsauw","one_one","1","direct_first","1","ru07rt11","0","21","1","1","3","1","null","","","<img src = 'category2/CS3.png' width = '100%;'>","null","","","","","","","","","",""
"","html-keyboard-response","161","545546","0.0-10.0-2.9","6pzartsauw","one_one","1","direct_first","1","ru07rt11","0","21","1","1","3","1","null","","","<img src = 'targets/8.png' width = '100%;'>","null","","","","","","","","","",""
"","html-keyboard-response","162","546181","0.0-10.0-3.9","6pzartsauw","one_one","1","direct_first","1","ru07rt11","0","21","1","1","3","1","635","","","<img src = 'targets/mask.png' width = '100%;'>","75","neg","GS","GSold","2","category2/CS3.png","","targets/8.png","indirect","1","9"
"","html-keyboard-response","163","547706","0.0-10.0-0.10","6pzartsauw","one_one","1","direct_first","1","ru07rt11","0","21","1","1","3","1","null","","","<div style=""font-size:60px;"">+</div>","null","","","","","","","","","",""
"","html-keyboard-response","164","547806","0.0-10.0-1.10","6pzartsauw","one_one","1","direct_first","1","ru07rt11","0","21","1","1","3","1","null","","","<img src = 'category3/CS2.png' width = '100%;'>","null","","","","","","","","","",""
"","html-keyboard-response","165","548086","0.0-10.0-2.10","6pzartsauw","one_one","1","direct_first","1","ru07rt11","0","21","1","1","3","1","null","","","<img src = 'targets/45.png' width = '100%;'>","null","","","","","","","","","",""
"","html-keyboard-response","166","548646","0.0-10.0-3.10","6pzartsauw","one_one","1","direct_first","1","ru07rt11","0","21","1","1","3","1","558","","","<img src = 'targets/mask.png' width = '100%;'>","75","pos","GS","GSold","3","category3/CS2.png","","targets/45.png","indirect","1","10"
"","html-keyboard-response","167","550186","0.0-10.0-0.11","6pzartsauw","one_one","1","direct_first","1","ru07rt11","0","21","1","1","3","1","null","","","<div style=""font-size:60px;"">+</div>","null","","","","","","","","","",""
"","html-keyboard-response","168","550287","0.0-10.0-1.11","6pzartsauw","one_one","1","direct_first","1","ru07rt11","0","21","1","1","3","1","null","","","<img src = 'category1/CS6.png' width = '100%;'>","null","","","","","","","","","",""
"","html-keyboard-response","169","550566","0.0-10.0-2.11","6pzartsauw","one_one","1","direct_first","1","ru07rt11","0","21","1","1","3","1","null","","","<img src = 'targets/36.png' width = '100%;'>","null","","","","","","","","","",""
"","html-keyboard-response","170","551389","0.0-10.0-3.11","6pzartsauw","one_one","1","direct_first","1","ru07rt11","0","21","1","1","3","1","823","","","<img src = 'targets/mask.png' width = '100%;'>","68","pos","GS","GSold","1","category1/CS6.png","","targets/36.png","indirect","0","11"
"","html-keyboard-response","171","552926","0.0-10.0-0.12","6pzartsauw","one_one","1","direct_first","1","ru07rt11","0","21","1","1","3","1","null","","","<div style=""font-size:60px;"">+</div>","null","","","","","","","","","",""
"","html-keyboard-response","172","553026","0.0-10.0-1.12","6pzartsauw","one_one","1","direct_first","1","ru07rt11","0","21","1","1","3","1","null","","","<img src = 'category3/CS7.png' width = '100%;'>","null","","","","","","","","","",""
"","html-keyboard-response","173","553307","0.0-10.0-2.12","6pzartsauw","one_one","1","direct_first","1","ru07rt11","0","21","1","1","3","1","null","","","<img src = 'targets/38.png' width = '100%;'>","null","","","","","","","","","",""
"","html-keyboard-response","174","553829","0.0-10.0-3.12","6pzartsauw","one_one","1","direct_first","1","ru07rt11","0","21","1","1","3","1","521","","","<img src = 'targets/mask.png' width = '100%;'>","75","pos","GS","GSold","3","category3/CS7.png","","targets/38.png","indirect","1","12"
"","html-keyboard-response","175","555346","0.0-10.0-0.13","6pzartsauw","one_one","1","direct_first","1","ru07rt11","0","21","1","1","3","1","null","","","<div style=""font-size:60px;"">+</div>","null","","","","","","","","","",""
"","html-keyboard-response","176","555446","0.0-10.0-1.13","6pzartsauw","one_one","1","direct_first","1","ru07rt11","0","21","1","1","3","1","null","","","<img src = 'category1/CS10.png' width = '100%;'>","null","","","","","","","","","",""
"","html-keyboard-response","177","555726","0.0-10.0-2.13","6pzartsauw","one_one","1","direct_first","1","ru07rt11","0","21","1","1","3","1","null","","","<img src = 'targets/11.png' width = '100%;'>","null","","","","","","","","","",""
"","html-keyboard-response","178","556093","0.0-10.0-3.13","6pzartsauw","one_one","1","direct_first","1","ru07rt11","0","21","1","1","3","1","366","","","<img src = 'targets/mask.png' width = '100%;'>","75","pos","CS","CS","1","category1/CS10.png","","targets/11.png","indirect","1","13"
"","html-keyboard-response","179","557626","0.0-10.0-0.14","6pzartsauw","one_one","1","direct_first","1","ru07rt11","0","21","1","1","3","1","null","","","<div style=""font-size:60px;"">+</div>","null","","","","","","","","","",""
"","html-keyboard-response","180","557726","0.0-10.0-1.14","6pzartsauw","one_one","1","direct_first","1","ru07rt11","0","21","1","1","3","1","null","","","<img src = 'category3/CS3.png' width = '100%;'>","null","","","","","","","","","",""
"","html-keyboard-response","181","558006","0.0-10.0-2.14","6pzartsauw","one_one","1","direct_first","1","ru07rt11","0","21","1","1","3","1","null","","","<img src = 'targets/1.png' width = '100%;'>","null","","","","","","","","","",""
"","html-keyboard-response","182","558677","0.0-10.0-3.14","6pzartsauw","one_one","1","direct_first","1","ru07rt11","0","21","1","1","3","1","669","","","<img src = 'targets/mask.png' width = '100%;'>","75","pos","CS","CS","3","category3/CS3.png","","targets/1.png","indirect","1","14"
"","html-keyboard-response","183","560196","0.0-10.0-0.15","6pzartsauw","one_one","1","direct_first","1","ru07rt11","0","21","1","1","3","1","null","","","<div style=""font-size:60px;"">+</div>","null","","","","","","","","","",""
"","html-keyboard-response","184","560296","0.0-10.0-1.15","6pzartsauw","one_one","1","direct_first","1","ru07rt11","0","21","1","1","3","1","null","","","<img src = 'category4/CS8.png' width = '100%;'>","null","","","","","","","","","",""
"","html-keyboard-response","185","560576","0.0-10.0-2.15","6pzartsauw","one_one","1","direct_first","1","ru07rt11","0","21","1","1","3","1","null","","","<img src = 'targets/29.png' width = '100%;'>","null","","","","","","","","","",""
"","html-keyboard-response","186","561862","0.0-10.0-3.15","6pzartsauw","one_one","1","direct_first","1","ru07rt11","0","21","1","1","3","1","1284","","","<img src = 'targets/mask.png' width = '100%;'>","75","neg","GS","GSold","4","category4/CS8.png","","targets/29.png","indirect","1","15"
"","survey-html-form","187","566294","0.0-11.0","6pzartsauw","one_one","1","direct_first","1","ru07rt11","0","21","1","1","3","1","3917","","{}","","","","","","","","","","","",""
"","html-keyboard-response","188","569306","0.0-12.0-0.0","6pzartsauw","one_one","1","direct_first","1","ru07rt11","0","21","1","1","3","1","null","","","<div style=""font-size:60px;"">+</div>","null","","","","","","","","","",""
"","html-keyboard-response","189","569407","0.0-12.0-1.0","6pzartsauw","one_one","1","direct_first","1","ru07rt11","0","21","1","1","3","1","null","","","<img src = 'category3/wang.png' width = '100%;'>","null","","","","","","","","","",""
"","html-keyboard-response","190","569686","0.0-12.0-2.0","6pzartsauw","one_one","1","direct_first","1","ru07rt11","0","21","1","1","3","1","null","","","<img src = 'targets/27.png' width = '100%;'>","null","","","","","","","","","",""
"","html-keyboard-response","191","570566","0.0-12.0-3.0","6pzartsauw","one_one","1","direct_first","1","ru07rt11","0","21","1","1","3","1","879","","","<img src = 'targets/mask.png' width = '100%;'>","68","pos","GS","abstract","3","category3/wang.png","","targets/27.png","indirect","0","16"
"","html-keyboard-response","192","572086","0.0-12.0-0.1","6pzartsauw","one_one","1","direct_first","1","ru07rt11","0","21","1","1","3","1","null","","","<div style=""font-size:60px;"">+</div>","null","","","","","","","","","",""
"","html-keyboard-response","193","572186","0.0-12.0-1.1","6pzartsauw","one_one","1","direct_first","1","ru07rt11","0","21","1","1","3","1","null","","","<img src = 'category3/GS2.png' width = '100%;'>","null","","","","","","","","","",""
"","html-keyboard-response","194","572466","0.0-12.0-2.1","6pzartsauw","one_one","1","direct_first","1","ru07rt11","0","21","1","1","3","1","null","","","<img src = 'targets/19.png' width = '100%;'>","null","","","","","","","","","",""
"","html-keyboard-response","195","572933","0.0-12.0-3.1","6pzartsauw","one_one","1","direct_first","1","ru07rt11","0","21","1","1","3","1","466","","","<img src = 'targets/mask.png' width = '100%;'>","75","pos","GS","GSnew","3","category3/GS2.png","","targets/19.png","indirect","1","17"
"","html-keyboard-response","196","574446","0.0-12.0-0.2","6pzartsauw","one_one","1","direct_first","1","ru07rt11","0","21","1","1","3","1","null","","","<div style=""font-size:60px;"">+</div>","null","","","","","","","","","",""
"","html-keyboard-response","197","574547","0.0-12.0-1.2","6pzartsauw","one_one","1","direct_first","1","ru07rt11","0","21","1","1","3","1","null","","","<img src = 'category1/GS1.png' width = '100%;'>","null","","","","","","","","","",""
"","html-keyboard-response","198","574826","0.0-12.0-2.2","6pzartsauw","one_one","1","direct_first","1","ru07rt11","0","21","1","1","3","1","null","","","<img src = 'targets/7.png' width = '100%;'>","null","","","","","","","","","",""
"","html-keyboard-response","199","575174","0.0-12.0-3.2","6pzartsauw","one_one","1","direct_first","1","ru07rt11","0","21","1","1","3","1","346","","","<img src = 'targets/mask.png' width = '100%;'>","75","pos","GS","GSnew","1","category1/GS1.png","","targets/7.png","indirect","1","18"
"","html-keyboard-response","200","576706","0.0-12.0-0.3","6pzartsauw","one_one","1","direct_first","1","ru07rt11","0","21","1","1","3","1","null","","","<div style=""font-size:60px;"">+</div>","null","","","","","","","","","",""
"","html-keyboard-response","201","576806","0.0-12.0-1.3","6pzartsauw","one_one","1","direct_first","1","ru07rt11","0","21","1","1","3","1","null","","","<img src = 'category3/GS1.png' width = '100%;'>","null","","","","","","","","","",""
"","html-keyboard-response","202","577086","0.0-12.0-2.3","6pzartsauw","one_one","1","direct_first","1","ru07rt11","0","21","1","1","3","1","null","","","<img src = 'targets/47.png' width = '100%;'>","null","","","","","","","","","",""
"","html-keyboard-response","203","577581","0.0-12.0-3.3","6pzartsauw","one_one","1","direct_first","1","ru07rt11","0","21","1","1","3","1","493","","","<img src = 'targets/mask.png' width = '100%;'>","75","pos","GS","GSnew","3","category3/GS1.png","","targets/47.png","indirect","1","19"
"","html-keyboard-response","204","579106","0.0-12.0-0.4","6pzartsauw","one_one","1","direct_first","1","ru07rt11","0","21","1","1","3","1","null","","","<div style=""font-size:60px;"">+</div>","null","","","","","","","","","",""
"","html-keyboard-response","205","579206","0.0-12.0-1.4","6pzartsauw","one_one","1","direct_first","1","ru07rt11","0","21","1","1","3","1","null","","","<img src = 'category4/GS2.png' width = '100%;'>","null","","","","","","","","","",""
"","html-keyboard-response","206","579487","0.0-12.0-2.4","6pzartsauw","one_one","1","direct_first","1","ru07rt11","0","21","1","1","3","1","null","","","<img src = 'targets/21.png' width = '100%;'>","null","","","","","","","","","",""
"","html-keyboard-response","207","579853","0.0-12.0-3.4","6pzartsauw","one_one","1","direct_first","1","ru07rt11","0","21","1","1","3","1","364","","","<img src = 'targets/mask.png' width = '100%;'>","75","neg","GS","GSnew","4","category4/GS2.png","","targets/21.png","indirect","1","20"
"","html-keyboard-response","208","581386","0.0-12.0-0.5","6pzartsauw","one_one","1","direct_first","1","ru07rt11","0","21","1","1","3","1","null","","","<div style=""font-size:60px;"">+</div>","null","","","","","","","","","",""
"","html-keyboard-response","209","581486","0.0-12.0-1.5","6pzartsauw","one_one","1","direct_first","1","ru07rt11","0","21","1","1","3","1","null","","","<img src = 'category1/ma.png' width = '100%;'>","null","","","","","","","","","",""
"","html-keyboard-response","210","581767","0.0-12.0-2.5","6pzartsauw","one_one","1","direct_first","1","ru07rt11","0","21","1","1","3","1","null","","","<img src = 'targets/4.png' width = '100%;'>","null","","","","","","","","","",""
"","html-keyboard-response","211","582206","0.0-12.0-3.5","6pzartsauw","one_one","1","direct_first","1","ru07rt11","0","21","1","1","3","1","438","","","<img src = 'targets/mask.png' width = '100%;'>","68","pos","GS","abstract","1","category1/ma.png","","targets/4.png","indirect","0","21"
"","html-keyboard-response","212","583726","0.0-12.0-0.6","6pzartsauw","one_one","1","direct_first","1","ru07rt11","0","21","1","1","3","1","null","","","<div style=""font-size:60px;"">+</div>","null","","","","","","","","","",""
"","html-keyboard-response","213","583826","0.0-12.0-1.6","6pzartsauw","one_one","1","direct_first","1","ru07rt11","0","21","1","1","3","1","null","","","<img src = 'category2/GS1.png' width = '100%;'>","null","","","","","","","","","",""
"","html-keyboard-response","214","584107","0.0-12.0-2.6","6pzartsauw","one_one","1","direct_first","1","ru07rt11","0","21","1","1","3","1","null","","","<img src = 'targets/31.png' width = '100%;'>","null","","","","","","","","","",""
"","html-keyboard-response","215","584669","0.0-12.0-3.6","6pzartsauw","one_one","1","direct_first","1","ru07rt11","0","21","1","1","3","1","562","","","<img src = 'targets/mask.png' width = '100%;'>","75","neg","GS","GSnew","2","category2/GS1.png","","targets/31.png","indirect","1","22"
"","html-keyboard-response","216","586206","0.0-12.0-0.7","6pzartsauw","one_one","1","direct_first","1","ru07rt11","0","21","1","1","3","1","null","","","<div style=""font-size:60px;"">+</div>","null","","","","","","","","","",""
"","html-keyboard-response","217","586306","0.0-12.0-1.7","6pzartsauw","one_one","1","direct_first","1","ru07rt11","0","21","1","1","3","1","null","","","<img src = 'category3/GS3.png' width = '100%;'>","null","","","","","","","","","",""
"","html-keyboard-response","218","586586","0.0-12.0-2.7","6pzartsauw","one_one","1","direct_first","1","ru07rt11","0","21","1","1","3","1","null","","","<img src = 'targets/13.png' width = '100%;'>","null","","","","","","","","","",""
"","html-keyboard-response","219","587133","0.0-12.0-3.7","6pzartsauw","one_one","1","direct_first","1","ru07rt11","0","21","1","1","3","1","547","","","<img src = 'targets/mask.png' width = '100%;'>","75","pos","GS","GSnew","3","category3/GS3.png","","targets/13.png","indirect","1","23"
"","html-keyboard-response","220","588656","0.0-12.0-0.8","6pzartsauw","one_one","1","direct_first","1","ru07rt11","0","21","1","1","3","1","null","","","<div style=""font-size:60px;"">+</div>","null","","","","","","","","","",""
"","html-keyboard-response","221","588757","0.0-12.0-1.8","6pzartsauw","one_one","1","direct_first","1","ru07rt11","0","21","1","1","3","1","null","","","<img src = 'category2/men.png' width = '100%;'>","null","","","","","","","","","",""
"","html-keyboard-response","222","589035","0.0-12.0-2.8","6pzartsauw","one_one","1","direct_first","1","ru07rt11","0","21","1","1","3","1","null","","","<img src = 'targets/10.png' width = '100%;'>","null","","","","","","","","","",""
"","html-keyboard-response","223","589813","0.0-12.0-3.8","6pzartsauw","one_one","1","direct_first","1","ru07rt11","0","21","1","1","3","1","775","","","<img src = 'targets/mask.png' width = '100%;'>","75","neg","GS","abstract","2","category2/men.png","","targets/10.png","indirect","1","24"
"","html-keyboard-response","224","591336","0.0-12.0-0.9","6pzartsauw","one_one","1","direct_first","1","ru07rt11","0","21","1","1","3","1","null","","","<div style=""font-size:60px;"">+</div>","null","","","","","","","","","",""
"","html-keyboard-response","225","591436","0.0-12.0-1.9","6pzartsauw","one_one","1","direct_first","1","ru07rt11","0","21","1","1","3","1","null","","","<img src = 'category1/GS2.png' width = '100%;'>","null","","","","","","","","","",""
"","html-keyboard-response","226","591716","0.0-12.0-2.9","6pzartsauw","one_one","1","direct_first","1","ru07rt11","0","21","1","1","3","1","null","","","<img src = 'targets/34.png' width = '100%;'>","null","","","","","","","","","",""
"","html-keyboard-response","227","592405","0.0-12.0-3.9","6pzartsauw","one_one","1","direct_first","1","ru07rt11","0","21","1","1","3","1","688","","","<img src = 'targets/mask.png' width = '100%;'>","68","pos","GS","GSnew","1","category1/GS2.png","","targets/34.png","indirect","0","25"
"","html-keyboard-response","228","593946","0.0-12.0-0.10","6pzartsauw","one_one","1","direct_first","1","ru07rt11","0","21","1","1","3","1","null","","","<div style=""font-size:60px;"">+</div>","null","","","","","","","","","",""
"","html-keyboard-response","229","594046","0.0-12.0-1.10","6pzartsauw","one_one","1","direct_first","1","ru07rt11","0","21","1","1","3","1","null","","","<img src = 'category4/GS1.png' width = '100%;'>","null","","","","","","","","","",""
"","html-keyboard-response","230","594327","0.0-12.0-2.10","6pzartsauw","one_one","1","direct_first","1","ru07rt11","0","21","1","1","3","1","null","","","<img src = 'targets/9.png' width = '100%;'>","null","","","","","","","","","",""
"","html-keyboard-response","231","594669","0.0-12.0-3.10","6pzartsauw","one_one","1","direct_first","1","ru07rt11","0","21","1","1","3","1","341","","","<img src = 'targets/mask.png' width = '100%;'>","75","neg","GS","GSnew","4","category4/GS1.png","","targets/9.png","indirect","1","26"
"","html-keyboard-response","232","596184","0.0-12.0-0.11","6pzartsauw","one_one","1","direct_first","1","ru07rt11","0","21","1","1","3","1","null","","","<div style=""font-size:60px;"">+</div>","null","","","","","","","","","",""
"","html-keyboard-response","233","596276","0.0-12.0-1.11","6pzartsauw","one_one","1","direct_first","1","ru07rt11","0","21","1","1","3","1","null","","","<img src = 'category2/GS3.png' width = '100%;'>","null","","","","","","","","","",""
"","html-keyboard-response","234","596547","0.0-12.0-2.11","6pzartsauw","one_one","1","direct_first","1","ru07rt11","0","21","1","1","3","1","null","","","<img src = 'targets/5.png' width = '100%;'>","null","","","","","","","","","",""
"","html-keyboard-response","235","597294","0.0-12.0-3.11","6pzartsauw","one_one","1","direct_first","1","ru07rt11","0","21","1","1","3","1","745","","","<img src = 'targets/mask.png' width = '100%;'>","75","neg","GS","GSnew","2","category2/GS3.png","","targets/5.png","indirect","1","27"
"","html-keyboard-response","236","598826","0.0-12.0-0.12","6pzartsauw","one_one","1","direct_first","1","ru07rt11","0","21","1","1","3","1","null","","","<div style=""font-size:60px;"">+</div>","null","","","","","","","","","",""
"","html-keyboard-response","237","598927","0.0-12.0-1.12","6pzartsauw","one_one","1","direct_first","1","ru07rt11","0","21","1","1","3","1","null","","","<img src = 'category1/GS3.png' width = '100%;'>","null","","","","","","","","","",""
"","html-keyboard-response","238","599206","0.0-12.0-2.12","6pzartsauw","one_one","1","direct_first","1","ru07rt11","0","21","1","1","3","1","null","","","<img src = 'targets/20.png' width = '100%;'>","null","","","","","","","","","",""
"","html-keyboard-response","239","599765","0.0-12.0-3.12","6pzartsauw","one_one","1","direct_first","1","ru07rt11","0","21","1","1","3","1","558","","","<img src = 'targets/mask.png' width = '100%;'>","75","pos","GS","GSnew","1","category1/GS3.png","","targets/20.png","indirect","1","28"
"","html-keyboard-response","240","601306","0.0-12.0-0.13","6pzartsauw","one_one","1","direct_first","1","ru07rt11","0","21","1","1","3","1","null","","","<div style=""font-size:60px;"">+</div>","null","","","","","","","","","",""
"","html-keyboard-response","241","601406","0.0-12.0-1.13","6pzartsauw","one_one","1","direct_first","1","ru07rt11","0","21","1","1","3","1","null","","","<img src = 'category4/GS3.png' width = '100%;'>","null","","","","","","","","","",""
"","html-keyboard-response","242","601675","0.0-12.0-2.13","6pzartsauw","one_one","1","direct_first","1","ru07rt11","0","21","1","1","3","1","null","","","<img src = 'targets/41.png' width = '100%;'>","null","","","","","","","","","",""
"","html-keyboard-response","243","602014","0.0-12.0-3.13","6pzartsauw","one_one","1","direct_first","1","ru07rt11","0","21","1","1","3","1","336","","","<img src = 'targets/mask.png' width = '100%;'>","68","neg","GS","GSnew","4","category4/GS3.png","","targets/41.png","indirect","0","29"
"","html-keyboard-response","244","603536","0.0-12.0-0.14","6pzartsauw","one_one","1","direct_first","1","ru07rt11","0","21","1","1","3","1","null","","","<div style=""font-size:60px;"">+</div>","null","","","","","","","","","",""
"","html-keyboard-response","245","603636","0.0-12.0-1.14","6pzartsauw","one_one","1","direct_first","1","ru07rt11","0","21","1","1","3","1","null","","","<img src = 'category4/lin.png' width = '100%;'>","null","","","","","","","","","",""
"","html-keyboard-response","246","603916","0.0-12.0-2.14","6pzartsauw","one_one","1","direct_first","1","ru07rt11","0","21","1","1","3","1","null","","","<img src = 'targets/6.png' width = '100%;'>","null","","","","","","","","","",""
"","html-keyboard-response","247","604477","0.0-12.0-3.14","6pzartsauw","one_one","1","direct_first","1","ru07rt11","0","21","1","1","3","1","560","","","<img src = 'targets/mask.png' width = '100%;'>","68","neg","GS","abstract","4","category4/lin.png","","targets/6.png","indirect","0","30"
"","html-keyboard-response","248","605996","0.0-12.0-0.15","6pzartsauw","one_one","1","direct_first","1","ru07rt11","0","21","1","1","3","1","null","","","<div style=""font-size:60px;"">+</div>","null","","","","","","","","","",""
"","html-keyboard-response","249","606096","0.0-12.0-1.15","6pzartsauw","one_one","1","direct_first","1","ru07rt11","0","21","1","1","3","1","null","","","<img src = 'category2/GS2.png' width = '100%;'>","null","","","","","","","","","",""
"","html-keyboard-response","250","606376","0.0-12.0-2.15","6pzartsauw","one_one","1","direct_first","1","ru07rt11","0","21","1","1","3","1","null","","","<img src = 'targets/18.png' width = '100%;'>","null","","","","","","","","","",""
"","html-keyboard-response","251","606814","0.0-12.0-3.15","6pzartsauw","one_one","1","direct_first","1","ru07rt11","0","21","1","1","3","1","436","","","<img src = 'targets/mask.png' width = '100%;'>","75","neg","GS","GSnew","2","category2/GS2.png","","targets/18.png","indirect","1","31"
"","survey-html-form","252","615846","0.0-13.0","6pzartsauw","one_one","1","direct_first","1","ru07rt11","0","21","1","1","3","1","8519","","{}","","","","","","","","","","","",""
"","image-slider-response","253","621884","0.0-14.0-0.0","6pzartsauw","one_one","1","direct_first","1","ru07rt11","0","21","1","1","3","1","5014","","","","","pos","All","all","1","category1/ma_all.png","-41","","all","",""
"","image-slider-response","254","623916","0.0-14.0-0.1","6pzartsauw","one_one","1","direct_first","1","ru07rt11","0","21","1","1","3","1","2030","","","","","pos","All","all","3","category3/wang_all.png","37","","all","",""
"","image-slider-response","255","626004","0.0-14.0-0.2","6pzartsauw","one_one","1","direct_first","1","ru07rt11","0","21","1","1","3","1","2087","","","","","neg","All","all","4","category4/lin_all.png","74","","all","",""
"","image-slider-response","256","628324","0.0-14.0-0.3","6pzartsauw","one_one","1","direct_first","1","ru07rt11","0","21","1","1","3","1","2318","","","","","neg","All","all","2","category2/men_all.png","30","","all","",""
"","survey-text","257","637830","0.0-15.0","6pzartsauw","one_one","1","direct_first","1","ru07rt11","0","21","1","1","3","1","9501","","{""Q0"":""Prime war auffällig""}","","","","","","","","","","","",""
