"success","trial_type","trial_index","time_elapsed","internal_node_id","subject","condition","condition_code","measure","measure_code","codeword","gender","age","education","chinese","fach","handedness","comment","hinschauen","ablenkung","gewissenhaft","rt","url","responses","stimulus","key_press","val","type","type_specific","category","cs_selected","target","indirect","task","nr_pres","response"
"true","fullscreen","0","3296","0.0-0.0","zplwc7odzv","many_one","0","indirect_first","0","in08ar17","0","23","1","1","3","1","In der Zeit, in der man sich die Bilder und die Zeichen anschauen soll, habe ich mich selbst dabei erwischt, wie ich mehr auf die Bilder geachtet habe als auf die Zeichen. Manche zeichen konnte ich gar nicht anschauen, da sie so schnell wieder weg waren","0","1","0","","","","","","","","","","","","","","",""
"","external-html","1","9389","0.0-1.0","zplwc7odzv","many_one","0","indirect_first","0","in08ar17","0","23","1","1","3","1","In der Zeit, in der man sich die Bilder und die Zeichen anschauen soll, habe ich mich selbst dabei erwischt, wie ich mehr auf die Bilder geachtet habe als auf die Zeichen. Manche zeichen konnte ich gar nicht anschauen, da sie so schnell wieder weg waren","0","1","0","6056","text/information.html","","","","","","","","","","","","",""
"","external-html","2","29370","0.0-2.0","zplwc7odzv","many_one","0","indirect_first","0","in08ar17","0","23","1","1","3","1","In der Zeit, in der man sich die Bilder und die Zeichen anschauen soll, habe ich mich selbst dabei erwischt, wie ich mehr auf die Bilder geachtet habe als auf die Zeichen. Manche zeichen konnte ich gar nicht anschauen, da sie so schnell wieder weg waren","0","1","0","19920","text/consent.html","","","","","","","","","","","","",""
"","survey-html-form","3","152427","0.0-3.0","zplwc7odzv","many_one","0","indirect_first","0","in08ar17","0","23","1","1","3","1","In der Zeit, in der man sich die Bilder und die Zeichen anschauen soll, habe ich mich selbst dabei erwischt, wie ich mehr auf die Bilder geachtet habe als auf die Zeichen. Manche zeichen konnte ich gar nicht anschauen, da sie so schnell wieder weg waren","0","1","0","123055","","{""codeword_enter"":""in08ar17""}","","","","","","","","","","","",""
"","survey-html-form","4","171094","0.0-4.0","zplwc7odzv","many_one","0","indirect_first","0","in08ar17","0","23","1","1","3","1","In der Zeit, in der man sich die Bilder und die Zeichen anschauen soll, habe ich mich selbst dabei erwischt, wie ich mehr auf die Bilder geachtet habe als auf die Zeichen. Manche zeichen konnte ich gar nicht anschauen, da sie so schnell wieder weg waren","0","1","0","18664","","{""age"":""23"",""education"":""1"",""subject"":""3"",""gender"":""0"",""handedness"":""1"",""chinese"":""1""}","","","","","","","","","","","",""
"","survey-html-form","5","178926","0.0-5.0","zplwc7odzv","many_one","0","indirect_first","0","in08ar17","0","23","1","1","3","1","In der Zeit, in der man sich die Bilder und die Zeichen anschauen soll, habe ich mich selbst dabei erwischt, wie ich mehr auf die Bilder geachtet habe als auf die Zeichen. Manche zeichen konnte ich gar nicht anschauen, da sie so schnell wieder weg waren","0","1","0","7830","","{}","","","","","","","","","","","",""
"","html-keyboard-response","6","182962","0.0-6.0-0.0-0.0","zplwc7odzv","many_one","0","indirect_first","0","in08ar17","0","23","1","1","3","1","In der Zeit, in der man sich die Bilder und die Zeichen anschauen soll, habe ich mich selbst dabei erwischt, wie ich mehr auf die Bilder geachtet habe als auf die Zeichen. Manche zeichen konnte ich gar nicht anschauen, da sie so schnell wieder weg waren","0","1","0","null","","","<div class = 'row'><div class = 'column'><img src = 'category2/CS6.png' width = '70%;'></div><div class = 'column'><img src = 'uspos/8540.bmp' width = '100%;'></div></div>","null","pos","CS","CS","2","category2/CS6.png","","","","",""
"","html-keyboard-response","7","185501","0.0-6.0-0.0-0.1","zplwc7odzv","many_one","0","indirect_first","0","in08ar17","0","23","1","1","3","1","In der Zeit, in der man sich die Bilder und die Zeichen anschauen soll, habe ich mich selbst dabei erwischt, wie ich mehr auf die Bilder geachtet habe als auf die Zeichen. Manche zeichen konnte ich gar nicht anschauen, da sie so schnell wieder weg waren","0","1","0","null","","","<div class = 'row'><div class = 'column'><img src = 'category2/CS4.png' width = '70%;'></div><div class = 'column'><img src = 'uspos/8350.bmp' width = '100%;'></div></div>","null","pos","CS","CS","2","category2/CS4.png","","","","",""
"","html-keyboard-response","8","188041","0.0-6.0-0.0-0.2","zplwc7odzv","many_one","0","indirect_first","0","in08ar17","0","23","1","1","3","1","In der Zeit, in der man sich die Bilder und die Zeichen anschauen soll, habe ich mich selbst dabei erwischt, wie ich mehr auf die Bilder geachtet habe als auf die Zeichen. Manche zeichen konnte ich gar nicht anschauen, da sie so schnell wieder weg waren","0","1","0","null","","","<div class = 'row'><div class = 'column'><img src = 'uspos/2030.bmp' width = '100%;'></div><div class = 'column'><img src = 'category1/CS9.png' width = '70%;'></div></div>","null","pos","CS","CS","1","category1/CS9.png","","","","",""
"","html-keyboard-response","9","190582","0.0-6.0-0.0-0.3","zplwc7odzv","many_one","0","indirect_first","0","in08ar17","0","23","1","1","3","1","In der Zeit, in der man sich die Bilder und die Zeichen anschauen soll, habe ich mich selbst dabei erwischt, wie ich mehr auf die Bilder geachtet habe als auf die Zeichen. Manche zeichen konnte ich gar nicht anschauen, da sie so schnell wieder weg waren","0","1","0","null","","","<div class = 'row'><div class = 'column'><img src = 'category3/CS1.png' width = '70%;'></div><div class = 'column'><img src = 'usneg/1280.bmp' width = '100%;'></div></div>","null","neg","CS","CS","3","category3/CS1.png","","","","",""
"","html-keyboard-response","10","193121","0.0-6.0-0.0-0.4","zplwc7odzv","many_one","0","indirect_first","0","in08ar17","0","23","1","1","3","1","In der Zeit, in der man sich die Bilder und die Zeichen anschauen soll, habe ich mich selbst dabei erwischt, wie ich mehr auf die Bilder geachtet habe als auf die Zeichen. Manche zeichen konnte ich gar nicht anschauen, da sie so schnell wieder weg waren","0","1","0","null","","","<div class = 'row'><div class = 'column'><img src = 'usneg/9041.bmp' width = '100%;'></div><div class = 'column'><img src = 'category4/CS9.png' width = '70%;'></div></div>","null","neg","CS","CS","4","category4/CS9.png","","","","",""
"","html-keyboard-response","11","195661","0.0-6.0-0.0-0.5","zplwc7odzv","many_one","0","indirect_first","0","in08ar17","0","23","1","1","3","1","In der Zeit, in der man sich die Bilder und die Zeichen anschauen soll, habe ich mich selbst dabei erwischt, wie ich mehr auf die Bilder geachtet habe als auf die Zeichen. Manche zeichen konnte ich gar nicht anschauen, da sie so schnell wieder weg waren","0","1","0","null","","","<div class = 'row'><div class = 'column'><img src = 'category4/CS3.png' width = '70%;'></div><div class = 'column'><img src = 'usneg/9561.bmp' width = '100%;'></div></div>","null","neg","CS","CS","4","category4/CS3.png","","","","",""
"","html-keyboard-response","12","198201","0.0-6.0-0.0-0.6","zplwc7odzv","many_one","0","indirect_first","0","in08ar17","0","23","1","1","3","1","In der Zeit, in der man sich die Bilder und die Zeichen anschauen soll, habe ich mich selbst dabei erwischt, wie ich mehr auf die Bilder geachtet habe als auf die Zeichen. Manche zeichen konnte ich gar nicht anschauen, da sie so schnell wieder weg waren","0","1","0","null","","","<div class = 'row'><div class = 'column'><img src = 'uspos/8080.bmp' width = '100%;'></div><div class = 'column'><img src = 'category1/CS1.png' width = '70%;'></div></div>","null","pos","CS","CS","1","category1/CS1.png","","","","",""
"","html-keyboard-response","13","200741","0.0-6.0-0.0-0.7","zplwc7odzv","many_one","0","indirect_first","0","in08ar17","0","23","1","1","3","1","In der Zeit, in der man sich die Bilder und die Zeichen anschauen soll, habe ich mich selbst dabei erwischt, wie ich mehr auf die Bilder geachtet habe als auf die Zeichen. Manche zeichen konnte ich gar nicht anschauen, da sie so schnell wieder weg waren","0","1","0","null","","","<div class = 'row'><div class = 'column'><img src = 'category3/CS5.png' width = '70%;'></div><div class = 'column'><img src = 'usneg/8485.bmp' width = '100%;'></div></div>","null","neg","CS","CS","3","category3/CS5.png","","","","",""
"","html-keyboard-response","14","203281","0.0-6.0-0.0-0.8","zplwc7odzv","many_one","0","indirect_first","0","in08ar17","0","23","1","1","3","1","In der Zeit, in der man sich die Bilder und die Zeichen anschauen soll, habe ich mich selbst dabei erwischt, wie ich mehr auf die Bilder geachtet habe als auf die Zeichen. Manche zeichen konnte ich gar nicht anschauen, da sie so schnell wieder weg waren","0","1","0","null","","","<div class = 'row'><div class = 'column'><img src = 'uspos/5470.bmp' width = '100%;'></div><div class = 'column'><img src = 'category2/CS9.png' width = '70%;'></div></div>","null","pos","CS","CS","2","category2/CS9.png","","","","",""
"","html-keyboard-response","15","205822","0.0-6.0-0.0-0.9","zplwc7odzv","many_one","0","indirect_first","0","in08ar17","0","23","1","1","3","1","In der Zeit, in der man sich die Bilder und die Zeichen anschauen soll, habe ich mich selbst dabei erwischt, wie ich mehr auf die Bilder geachtet habe als auf die Zeichen. Manche zeichen konnte ich gar nicht anschauen, da sie so schnell wieder weg waren","0","1","0","null","","","<div class = 'row'><div class = 'column'><img src = 'category4/CS7.png' width = '70%;'></div><div class = 'column'><img src = 'usneg/9920.bmp' width = '100%;'></div></div>","null","neg","CS","CS","4","category4/CS7.png","","","","",""
"","html-keyboard-response","16","208362","0.0-6.0-0.0-0.10","zplwc7odzv","many_one","0","indirect_first","0","in08ar17","0","23","1","1","3","1","In der Zeit, in der man sich die Bilder und die Zeichen anschauen soll, habe ich mich selbst dabei erwischt, wie ich mehr auf die Bilder geachtet habe als auf die Zeichen. Manche zeichen konnte ich gar nicht anschauen, da sie so schnell wieder weg waren","0","1","0","null","","","<div class = 'row'><div class = 'column'><img src = 'category2/CS8.png' width = '70%;'></div><div class = 'column'><img src = 'uspos/1340.bmp' width = '100%;'></div></div>","null","pos","CS","CS","2","category2/CS8.png","","","","",""
"","html-keyboard-response","17","210901","0.0-6.0-0.0-0.11","zplwc7odzv","many_one","0","indirect_first","0","in08ar17","0","23","1","1","3","1","In der Zeit, in der man sich die Bilder und die Zeichen anschauen soll, habe ich mich selbst dabei erwischt, wie ich mehr auf die Bilder geachtet habe als auf die Zeichen. Manche zeichen konnte ich gar nicht anschauen, da sie so schnell wieder weg waren","0","1","0","null","","","<div class = 'row'><div class = 'column'><img src = 'category1/CS5.png' width = '70%;'></div><div class = 'column'><img src = 'uspos/1710.bmp' width = '100%;'></div></div>","null","pos","CS","CS","1","category1/CS5.png","","","","",""
"","html-keyboard-response","18","213441","0.0-6.0-0.0-0.12","zplwc7odzv","many_one","0","indirect_first","0","in08ar17","0","23","1","1","3","1","In der Zeit, in der man sich die Bilder und die Zeichen anschauen soll, habe ich mich selbst dabei erwischt, wie ich mehr auf die Bilder geachtet habe als auf die Zeichen. Manche zeichen konnte ich gar nicht anschauen, da sie so schnell wieder weg waren","0","1","0","null","","","<div class = 'row'><div class = 'column'><img src = 'usneg/3300.bmp' width = '100%;'></div><div class = 'column'><img src = 'category3/CS7.png' width = '70%;'></div></div>","null","neg","CS","CS","3","category3/CS7.png","","","","",""
"","html-keyboard-response","19","215981","0.0-6.0-0.0-0.13","zplwc7odzv","many_one","0","indirect_first","0","in08ar17","0","23","1","1","3","1","In der Zeit, in der man sich die Bilder und die Zeichen anschauen soll, habe ich mich selbst dabei erwischt, wie ich mehr auf die Bilder geachtet habe als auf die Zeichen. Manche zeichen konnte ich gar nicht anschauen, da sie so schnell wieder weg waren","0","1","0","null","","","<div class = 'row'><div class = 'column'><img src = 'uspos/2165.bmp' width = '100%;'></div><div class = 'column'><img src = 'category2/CS5.png' width = '70%;'></div></div>","null","pos","CS","CS","2","category2/CS5.png","","","","",""
"","html-keyboard-response","20","218521","0.0-6.0-0.0-0.14","zplwc7odzv","many_one","0","indirect_first","0","in08ar17","0","23","1","1","3","1","In der Zeit, in der man sich die Bilder und die Zeichen anschauen soll, habe ich mich selbst dabei erwischt, wie ich mehr auf die Bilder geachtet habe als auf die Zeichen. Manche zeichen konnte ich gar nicht anschauen, da sie so schnell wieder weg waren","0","1","0","null","","","<div class = 'row'><div class = 'column'><img src = 'category4/CS5.png' width = '70%;'></div><div class = 'column'><img src = 'usneg/9180.bmp' width = '100%;'></div></div>","null","neg","CS","CS","4","category4/CS5.png","","","","",""
"","html-keyboard-response","21","221041","0.0-6.0-0.0-0.15","zplwc7odzv","many_one","0","indirect_first","0","in08ar17","0","23","1","1","3","1","In der Zeit, in der man sich die Bilder und die Zeichen anschauen soll, habe ich mich selbst dabei erwischt, wie ich mehr auf die Bilder geachtet habe als auf die Zeichen. Manche zeichen konnte ich gar nicht anschauen, da sie so schnell wieder weg waren","0","1","0","null","","","<div class = 'row'><div class = 'column'><img src = 'category1/CS4.png' width = '70%;'></div><div class = 'column'><img src = 'uspos/8490.bmp' width = '100%;'></div></div>","null","pos","CS","CS","1","category1/CS4.png","","","","",""
"","html-keyboard-response","22","223581","0.0-6.0-0.0-0.16","zplwc7odzv","many_one","0","indirect_first","0","in08ar17","0","23","1","1","3","1","In der Zeit, in der man sich die Bilder und die Zeichen anschauen soll, habe ich mich selbst dabei erwischt, wie ich mehr auf die Bilder geachtet habe als auf die Zeichen. Manche zeichen konnte ich gar nicht anschauen, da sie so schnell wieder weg waren","0","1","0","null","","","<div class = 'row'><div class = 'column'><img src = 'category1/CS3.png' width = '70%;'></div><div class = 'column'><img src = 'uspos/2160.bmp' width = '100%;'></div></div>","null","pos","CS","CS","1","category1/CS3.png","","","","",""
"","html-keyboard-response","23","226121","0.0-6.0-0.0-0.17","zplwc7odzv","many_one","0","indirect_first","0","in08ar17","0","23","1","1","3","1","In der Zeit, in der man sich die Bilder und die Zeichen anschauen soll, habe ich mich selbst dabei erwischt, wie ich mehr auf die Bilder geachtet habe als auf die Zeichen. Manche zeichen konnte ich gar nicht anschauen, da sie so schnell wieder weg waren","0","1","0","null","","","<div class = 'row'><div class = 'column'><img src = 'usneg/9415.bmp' width = '100%;'></div><div class = 'column'><img src = 'category4/CS4.png' width = '70%;'></div></div>","null","neg","CS","CS","4","category4/CS4.png","","","","",""
"","html-keyboard-response","24","228661","0.0-6.0-0.0-0.18","zplwc7odzv","many_one","0","indirect_first","0","in08ar17","0","23","1","1","3","1","In der Zeit, in der man sich die Bilder und die Zeichen anschauen soll, habe ich mich selbst dabei erwischt, wie ich mehr auf die Bilder geachtet habe als auf die Zeichen. Manche zeichen konnte ich gar nicht anschauen, da sie so schnell wieder weg waren","0","1","0","null","","","<div class = 'row'><div class = 'column'><img src = 'category3/CS3.png' width = '70%;'></div><div class = 'column'><img src = 'usneg/9340.bmp' width = '100%;'></div></div>","null","neg","CS","CS","3","category3/CS3.png","","","","",""
"","html-keyboard-response","25","231202","0.0-6.0-0.0-0.19","zplwc7odzv","many_one","0","indirect_first","0","in08ar17","0","23","1","1","3","1","In der Zeit, in der man sich die Bilder und die Zeichen anschauen soll, habe ich mich selbst dabei erwischt, wie ich mehr auf die Bilder geachtet habe als auf die Zeichen. Manche zeichen konnte ich gar nicht anschauen, da sie so schnell wieder weg waren","0","1","0","null","","","<div class = 'row'><div class = 'column'><img src = 'category3/CS10.png' width = '70%;'></div><div class = 'column'><img src = 'usneg/9435.bmp' width = '100%;'></div></div>","null","neg","CS","CS","3","category3/CS10.png","","","","",""
"","survey-html-form","26","235155","0.0-6.0-1.0","zplwc7odzv","many_one","0","indirect_first","0","in08ar17","0","23","1","1","3","1","In der Zeit, in der man sich die Bilder und die Zeichen anschauen soll, habe ich mich selbst dabei erwischt, wie ich mehr auf die Bilder geachtet habe als auf die Zeichen. Manche zeichen konnte ich gar nicht anschauen, da sie so schnell wieder weg waren","0","1","0","3434","","{}","","","","","","","","","","","",""
"","html-keyboard-response","27","239178","0.0-6.0-2.0-0.0","zplwc7odzv","many_one","0","indirect_first","0","in08ar17","0","23","1","1","3","1","In der Zeit, in der man sich die Bilder und die Zeichen anschauen soll, habe ich mich selbst dabei erwischt, wie ich mehr auf die Bilder geachtet habe als auf die Zeichen. Manche zeichen konnte ich gar nicht anschauen, da sie so schnell wieder weg waren","0","1","0","null","","","<div class = 'row'><div class = 'column'><img src = 'category3/CS3.png' width = '70%;'></div><div class = 'column'><img src = 'usneg/9340.bmp' width = '100%;'></div></div>","null","neg","CS","CS","3","category3/CS3.png","","","","",""
"","html-keyboard-response","28","241701","0.0-6.0-2.0-0.1","zplwc7odzv","many_one","0","indirect_first","0","in08ar17","0","23","1","1","3","1","In der Zeit, in der man sich die Bilder und die Zeichen anschauen soll, habe ich mich selbst dabei erwischt, wie ich mehr auf die Bilder geachtet habe als auf die Zeichen. Manche zeichen konnte ich gar nicht anschauen, da sie so schnell wieder weg waren","0","1","0","null","","","<div class = 'row'><div class = 'column'><img src = 'category2/CS8.png' width = '70%;'></div><div class = 'column'><img src = 'uspos/1340.bmp' width = '100%;'></div></div>","null","pos","CS","CS","2","category2/CS8.png","","","","",""
"","html-keyboard-response","29","244241","0.0-6.0-2.0-0.2","zplwc7odzv","many_one","0","indirect_first","0","in08ar17","0","23","1","1","3","1","In der Zeit, in der man sich die Bilder und die Zeichen anschauen soll, habe ich mich selbst dabei erwischt, wie ich mehr auf die Bilder geachtet habe als auf die Zeichen. Manche zeichen konnte ich gar nicht anschauen, da sie so schnell wieder weg waren","0","1","0","null","","","<div class = 'row'><div class = 'column'><img src = 'category1/CS9.png' width = '70%;'></div><div class = 'column'><img src = 'uspos/2030.bmp' width = '100%;'></div></div>","null","pos","CS","CS","1","category1/CS9.png","","","","",""
"","html-keyboard-response","30","246781","0.0-6.0-2.0-0.3","zplwc7odzv","many_one","0","indirect_first","0","in08ar17","0","23","1","1","3","1","In der Zeit, in der man sich die Bilder und die Zeichen anschauen soll, habe ich mich selbst dabei erwischt, wie ich mehr auf die Bilder geachtet habe als auf die Zeichen. Manche zeichen konnte ich gar nicht anschauen, da sie so schnell wieder weg waren","0","1","0","null","","","<div class = 'row'><div class = 'column'><img src = 'category4/CS7.png' width = '70%;'></div><div class = 'column'><img src = 'usneg/9920.bmp' width = '100%;'></div></div>","null","neg","CS","CS","4","category4/CS7.png","","","","",""
"","html-keyboard-response","31","249322","0.0-6.0-2.0-0.4","zplwc7odzv","many_one","0","indirect_first","0","in08ar17","0","23","1","1","3","1","In der Zeit, in der man sich die Bilder und die Zeichen anschauen soll, habe ich mich selbst dabei erwischt, wie ich mehr auf die Bilder geachtet habe als auf die Zeichen. Manche zeichen konnte ich gar nicht anschauen, da sie so schnell wieder weg waren","0","1","0","null","","","<div class = 'row'><div class = 'column'><img src = 'category2/CS6.png' width = '70%;'></div><div class = 'column'><img src = 'uspos/8540.bmp' width = '100%;'></div></div>","null","pos","CS","CS","2","category2/CS6.png","","","","",""
"","html-keyboard-response","32","251861","0.0-6.0-2.0-0.5","zplwc7odzv","many_one","0","indirect_first","0","in08ar17","0","23","1","1","3","1","In der Zeit, in der man sich die Bilder und die Zeichen anschauen soll, habe ich mich selbst dabei erwischt, wie ich mehr auf die Bilder geachtet habe als auf die Zeichen. Manche zeichen konnte ich gar nicht anschauen, da sie so schnell wieder weg waren","0","1","0","null","","","<div class = 'row'><div class = 'column'><img src = 'usneg/1280.bmp' width = '100%;'></div><div class = 'column'><img src = 'category3/CS1.png' width = '70%;'></div></div>","null","neg","CS","CS","3","category3/CS1.png","","","","",""
"","html-keyboard-response","33","254401","0.0-6.0-2.0-0.6","zplwc7odzv","many_one","0","indirect_first","0","in08ar17","0","23","1","1","3","1","In der Zeit, in der man sich die Bilder und die Zeichen anschauen soll, habe ich mich selbst dabei erwischt, wie ich mehr auf die Bilder geachtet habe als auf die Zeichen. Manche zeichen konnte ich gar nicht anschauen, da sie so schnell wieder weg waren","0","1","0","null","","","<div class = 'row'><div class = 'column'><img src = 'usneg/9415.bmp' width = '100%;'></div><div class = 'column'><img src = 'category4/CS4.png' width = '70%;'></div></div>","null","neg","CS","CS","4","category4/CS4.png","","","","",""
"","html-keyboard-response","34","256942","0.0-6.0-2.0-0.7","zplwc7odzv","many_one","0","indirect_first","0","in08ar17","0","23","1","1","3","1","In der Zeit, in der man sich die Bilder und die Zeichen anschauen soll, habe ich mich selbst dabei erwischt, wie ich mehr auf die Bilder geachtet habe als auf die Zeichen. Manche zeichen konnte ich gar nicht anschauen, da sie so schnell wieder weg waren","0","1","0","null","","","<div class = 'row'><div class = 'column'><img src = 'usneg/9561.bmp' width = '100%;'></div><div class = 'column'><img src = 'category4/CS3.png' width = '70%;'></div></div>","null","neg","CS","CS","4","category4/CS3.png","","","","",""
"","html-keyboard-response","35","259482","0.0-6.0-2.0-0.8","zplwc7odzv","many_one","0","indirect_first","0","in08ar17","0","23","1","1","3","1","In der Zeit, in der man sich die Bilder und die Zeichen anschauen soll, habe ich mich selbst dabei erwischt, wie ich mehr auf die Bilder geachtet habe als auf die Zeichen. Manche zeichen konnte ich gar nicht anschauen, da sie so schnell wieder weg waren","0","1","0","null","","","<div class = 'row'><div class = 'column'><img src = 'usneg/9041.bmp' width = '100%;'></div><div class = 'column'><img src = 'category4/CS9.png' width = '70%;'></div></div>","null","neg","CS","CS","4","category4/CS9.png","","","","",""
"","html-keyboard-response","36","262022","0.0-6.0-2.0-0.9","zplwc7odzv","many_one","0","indirect_first","0","in08ar17","0","23","1","1","3","1","In der Zeit, in der man sich die Bilder und die Zeichen anschauen soll, habe ich mich selbst dabei erwischt, wie ich mehr auf die Bilder geachtet habe als auf die Zeichen. Manche zeichen konnte ich gar nicht anschauen, da sie so schnell wieder weg waren","0","1","0","null","","","<div class = 'row'><div class = 'column'><img src = 'uspos/8080.bmp' width = '100%;'></div><div class = 'column'><img src = 'category1/CS1.png' width = '70%;'></div></div>","null","pos","CS","CS","1","category1/CS1.png","","","","",""
"","html-keyboard-response","37","264562","0.0-6.0-2.0-0.10","zplwc7odzv","many_one","0","indirect_first","0","in08ar17","0","23","1","1","3","1","In der Zeit, in der man sich die Bilder und die Zeichen anschauen soll, habe ich mich selbst dabei erwischt, wie ich mehr auf die Bilder geachtet habe als auf die Zeichen. Manche zeichen konnte ich gar nicht anschauen, da sie so schnell wieder weg waren","0","1","0","null","","","<div class = 'row'><div class = 'column'><img src = 'category1/CS4.png' width = '70%;'></div><div class = 'column'><img src = 'uspos/8490.bmp' width = '100%;'></div></div>","null","pos","CS","CS","1","category1/CS4.png","","","","",""
"","html-keyboard-response","38","267101","0.0-6.0-2.0-0.11","zplwc7odzv","many_one","0","indirect_first","0","in08ar17","0","23","1","1","3","1","In der Zeit, in der man sich die Bilder und die Zeichen anschauen soll, habe ich mich selbst dabei erwischt, wie ich mehr auf die Bilder geachtet habe als auf die Zeichen. Manche zeichen konnte ich gar nicht anschauen, da sie so schnell wieder weg waren","0","1","0","null","","","<div class = 'row'><div class = 'column'><img src = 'usneg/9435.bmp' width = '100%;'></div><div class = 'column'><img src = 'category3/CS10.png' width = '70%;'></div></div>","null","neg","CS","CS","3","category3/CS10.png","","","","",""
"","html-keyboard-response","39","269641","0.0-6.0-2.0-0.12","zplwc7odzv","many_one","0","indirect_first","0","in08ar17","0","23","1","1","3","1","In der Zeit, in der man sich die Bilder und die Zeichen anschauen soll, habe ich mich selbst dabei erwischt, wie ich mehr auf die Bilder geachtet habe als auf die Zeichen. Manche zeichen konnte ich gar nicht anschauen, da sie so schnell wieder weg waren","0","1","0","null","","","<div class = 'row'><div class = 'column'><img src = 'usneg/3300.bmp' width = '100%;'></div><div class = 'column'><img src = 'category3/CS7.png' width = '70%;'></div></div>","null","neg","CS","CS","3","category3/CS7.png","","","","",""
"","html-keyboard-response","40","272182","0.0-6.0-2.0-0.13","zplwc7odzv","many_one","0","indirect_first","0","in08ar17","0","23","1","1","3","1","In der Zeit, in der man sich die Bilder und die Zeichen anschauen soll, habe ich mich selbst dabei erwischt, wie ich mehr auf die Bilder geachtet habe als auf die Zeichen. Manche zeichen konnte ich gar nicht anschauen, da sie so schnell wieder weg waren","0","1","0","null","","","<div class = 'row'><div class = 'column'><img src = 'category2/CS9.png' width = '70%;'></div><div class = 'column'><img src = 'uspos/5470.bmp' width = '100%;'></div></div>","null","pos","CS","CS","2","category2/CS9.png","","","","",""
"","html-keyboard-response","41","274722","0.0-6.0-2.0-0.14","zplwc7odzv","many_one","0","indirect_first","0","in08ar17","0","23","1","1","3","1","In der Zeit, in der man sich die Bilder und die Zeichen anschauen soll, habe ich mich selbst dabei erwischt, wie ich mehr auf die Bilder geachtet habe als auf die Zeichen. Manche zeichen konnte ich gar nicht anschauen, da sie so schnell wieder weg waren","0","1","0","null","","","<div class = 'row'><div class = 'column'><img src = 'category2/CS5.png' width = '70%;'></div><div class = 'column'><img src = 'uspos/2165.bmp' width = '100%;'></div></div>","null","pos","CS","CS","2","category2/CS5.png","","","","",""
"","html-keyboard-response","42","277262","0.0-6.0-2.0-0.15","zplwc7odzv","many_one","0","indirect_first","0","in08ar17","0","23","1","1","3","1","In der Zeit, in der man sich die Bilder und die Zeichen anschauen soll, habe ich mich selbst dabei erwischt, wie ich mehr auf die Bilder geachtet habe als auf die Zeichen. Manche zeichen konnte ich gar nicht anschauen, da sie so schnell wieder weg waren","0","1","0","null","","","<div class = 'row'><div class = 'column'><img src = 'category2/CS4.png' width = '70%;'></div><div class = 'column'><img src = 'uspos/8350.bmp' width = '100%;'></div></div>","null","pos","CS","CS","2","category2/CS4.png","","","","",""
"","html-keyboard-response","43","279801","0.0-6.0-2.0-0.16","zplwc7odzv","many_one","0","indirect_first","0","in08ar17","0","23","1","1","3","1","In der Zeit, in der man sich die Bilder und die Zeichen anschauen soll, habe ich mich selbst dabei erwischt, wie ich mehr auf die Bilder geachtet habe als auf die Zeichen. Manche zeichen konnte ich gar nicht anschauen, da sie so schnell wieder weg waren","0","1","0","null","","","<div class = 'row'><div class = 'column'><img src = 'category1/CS5.png' width = '70%;'></div><div class = 'column'><img src = 'uspos/1710.bmp' width = '100%;'></div></div>","null","pos","CS","CS","1","category1/CS5.png","","","","",""
"","html-keyboard-response","44","282342","0.0-6.0-2.0-0.17","zplwc7odzv","many_one","0","indirect_first","0","in08ar17","0","23","1","1","3","1","In der Zeit, in der man sich die Bilder und die Zeichen anschauen soll, habe ich mich selbst dabei erwischt, wie ich mehr auf die Bilder geachtet habe als auf die Zeichen. Manche zeichen konnte ich gar nicht anschauen, da sie so schnell wieder weg waren","0","1","0","null","","","<div class = 'row'><div class = 'column'><img src = 'category3/CS5.png' width = '70%;'></div><div class = 'column'><img src = 'usneg/8485.bmp' width = '100%;'></div></div>","null","neg","CS","CS","3","category3/CS5.png","","","","",""
"","html-keyboard-response","45","284881","0.0-6.0-2.0-0.18","zplwc7odzv","many_one","0","indirect_first","0","in08ar17","0","23","1","1","3","1","In der Zeit, in der man sich die Bilder und die Zeichen anschauen soll, habe ich mich selbst dabei erwischt, wie ich mehr auf die Bilder geachtet habe als auf die Zeichen. Manche zeichen konnte ich gar nicht anschauen, da sie so schnell wieder weg waren","0","1","0","null","","","<div class = 'row'><div class = 'column'><img src = 'category4/CS5.png' width = '70%;'></div><div class = 'column'><img src = 'usneg/9180.bmp' width = '100%;'></div></div>","null","neg","CS","CS","4","category4/CS5.png","","","","",""
"","html-keyboard-response","46","287422","0.0-6.0-2.0-0.19","zplwc7odzv","many_one","0","indirect_first","0","in08ar17","0","23","1","1","3","1","In der Zeit, in der man sich die Bilder und die Zeichen anschauen soll, habe ich mich selbst dabei erwischt, wie ich mehr auf die Bilder geachtet habe als auf die Zeichen. Manche zeichen konnte ich gar nicht anschauen, da sie so schnell wieder weg waren","0","1","0","null","","","<div class = 'row'><div class = 'column'><img src = 'uspos/2160.bmp' width = '100%;'></div><div class = 'column'><img src = 'category1/CS3.png' width = '70%;'></div></div>","null","pos","CS","CS","1","category1/CS3.png","","","","",""
"","survey-html-form","47","292878","0.0-6.0-3.0","zplwc7odzv","many_one","0","indirect_first","0","in08ar17","0","23","1","1","3","1","In der Zeit, in der man sich die Bilder und die Zeichen anschauen soll, habe ich mich selbst dabei erwischt, wie ich mehr auf die Bilder geachtet habe als auf die Zeichen. Manche zeichen konnte ich gar nicht anschauen, da sie so schnell wieder weg waren","0","1","0","4937","","{}","","","","","","","","","","","",""
"","html-keyboard-response","48","296901","0.0-6.0-4.0-0.0","zplwc7odzv","many_one","0","indirect_first","0","in08ar17","0","23","1","1","3","1","In der Zeit, in der man sich die Bilder und die Zeichen anschauen soll, habe ich mich selbst dabei erwischt, wie ich mehr auf die Bilder geachtet habe als auf die Zeichen. Manche zeichen konnte ich gar nicht anschauen, da sie so schnell wieder weg waren","0","1","0","null","","","<div class = 'row'><div class = 'column'><img src = 'category1/CS4.png' width = '70%;'></div><div class = 'column'><img src = 'uspos/8490.bmp' width = '100%;'></div></div>","null","pos","CS","CS","1","category1/CS4.png","","","","",""
"","html-keyboard-response","49","299441","0.0-6.0-4.0-0.1","zplwc7odzv","many_one","0","indirect_first","0","in08ar17","0","23","1","1","3","1","In der Zeit, in der man sich die Bilder und die Zeichen anschauen soll, habe ich mich selbst dabei erwischt, wie ich mehr auf die Bilder geachtet habe als auf die Zeichen. Manche zeichen konnte ich gar nicht anschauen, da sie so schnell wieder weg waren","0","1","0","null","","","<div class = 'row'><div class = 'column'><img src = 'usneg/3300.bmp' width = '100%;'></div><div class = 'column'><img src = 'category3/CS7.png' width = '70%;'></div></div>","null","neg","CS","CS","3","category3/CS7.png","","","","",""
"","html-keyboard-response","50","301981","0.0-6.0-4.0-0.2","zplwc7odzv","many_one","0","indirect_first","0","in08ar17","0","23","1","1","3","1","In der Zeit, in der man sich die Bilder und die Zeichen anschauen soll, habe ich mich selbst dabei erwischt, wie ich mehr auf die Bilder geachtet habe als auf die Zeichen. Manche zeichen konnte ich gar nicht anschauen, da sie so schnell wieder weg waren","0","1","0","null","","","<div class = 'row'><div class = 'column'><img src = 'category2/CS8.png' width = '70%;'></div><div class = 'column'><img src = 'uspos/1340.bmp' width = '100%;'></div></div>","null","pos","CS","CS","2","category2/CS8.png","","","","",""
"","html-keyboard-response","51","304521","0.0-6.0-4.0-0.3","zplwc7odzv","many_one","0","indirect_first","0","in08ar17","0","23","1","1","3","1","In der Zeit, in der man sich die Bilder und die Zeichen anschauen soll, habe ich mich selbst dabei erwischt, wie ich mehr auf die Bilder geachtet habe als auf die Zeichen. Manche zeichen konnte ich gar nicht anschauen, da sie so schnell wieder weg waren","0","1","0","null","","","<div class = 'row'><div class = 'column'><img src = 'category3/CS1.png' width = '70%;'></div><div class = 'column'><img src = 'usneg/1280.bmp' width = '100%;'></div></div>","null","neg","CS","CS","3","category3/CS1.png","","","","",""
"","html-keyboard-response","52","307061","0.0-6.0-4.0-0.4","zplwc7odzv","many_one","0","indirect_first","0","in08ar17","0","23","1","1","3","1","In der Zeit, in der man sich die Bilder und die Zeichen anschauen soll, habe ich mich selbst dabei erwischt, wie ich mehr auf die Bilder geachtet habe als auf die Zeichen. Manche zeichen konnte ich gar nicht anschauen, da sie so schnell wieder weg waren","0","1","0","null","","","<div class = 'row'><div class = 'column'><img src = 'category4/CS7.png' width = '70%;'></div><div class = 'column'><img src = 'usneg/9920.bmp' width = '100%;'></div></div>","null","neg","CS","CS","4","category4/CS7.png","","","","",""
"","html-keyboard-response","53","309600","0.0-6.0-4.0-0.5","zplwc7odzv","many_one","0","indirect_first","0","in08ar17","0","23","1","1","3","1","In der Zeit, in der man sich die Bilder und die Zeichen anschauen soll, habe ich mich selbst dabei erwischt, wie ich mehr auf die Bilder geachtet habe als auf die Zeichen. Manche zeichen konnte ich gar nicht anschauen, da sie so schnell wieder weg waren","0","1","0","null","","","<div class = 'row'><div class = 'column'><img src = 'uspos/2030.bmp' width = '100%;'></div><div class = 'column'><img src = 'category1/CS9.png' width = '70%;'></div></div>","null","pos","CS","CS","1","category1/CS9.png","","","","",""
"","html-keyboard-response","54","312121","0.0-6.0-4.0-0.6","zplwc7odzv","many_one","0","indirect_first","0","in08ar17","0","23","1","1","3","1","In der Zeit, in der man sich die Bilder und die Zeichen anschauen soll, habe ich mich selbst dabei erwischt, wie ich mehr auf die Bilder geachtet habe als auf die Zeichen. Manche zeichen konnte ich gar nicht anschauen, da sie so schnell wieder weg waren","0","1","0","null","","","<div class = 'row'><div class = 'column'><img src = 'category2/CS9.png' width = '70%;'></div><div class = 'column'><img src = 'uspos/5470.bmp' width = '100%;'></div></div>","null","pos","CS","CS","2","category2/CS9.png","","","","",""
"","html-keyboard-response","55","314661","0.0-6.0-4.0-0.7","zplwc7odzv","many_one","0","indirect_first","0","in08ar17","0","23","1","1","3","1","In der Zeit, in der man sich die Bilder und die Zeichen anschauen soll, habe ich mich selbst dabei erwischt, wie ich mehr auf die Bilder geachtet habe als auf die Zeichen. Manche zeichen konnte ich gar nicht anschauen, da sie so schnell wieder weg waren","0","1","0","null","","","<div class = 'row'><div class = 'column'><img src = 'category3/CS10.png' width = '70%;'></div><div class = 'column'><img src = 'usneg/9435.bmp' width = '100%;'></div></div>","null","neg","CS","CS","3","category3/CS10.png","","","","",""
"","html-keyboard-response","56","317201","0.0-6.0-4.0-0.8","zplwc7odzv","many_one","0","indirect_first","0","in08ar17","0","23","1","1","3","1","In der Zeit, in der man sich die Bilder und die Zeichen anschauen soll, habe ich mich selbst dabei erwischt, wie ich mehr auf die Bilder geachtet habe als auf die Zeichen. Manche zeichen konnte ich gar nicht anschauen, da sie so schnell wieder weg waren","0","1","0","null","","","<div class = 'row'><div class = 'column'><img src = 'uspos/1710.bmp' width = '100%;'></div><div class = 'column'><img src = 'category1/CS5.png' width = '70%;'></div></div>","null","pos","CS","CS","1","category1/CS5.png","","","","",""
"","html-keyboard-response","57","319742","0.0-6.0-4.0-0.9","zplwc7odzv","many_one","0","indirect_first","0","in08ar17","0","23","1","1","3","1","In der Zeit, in der man sich die Bilder und die Zeichen anschauen soll, habe ich mich selbst dabei erwischt, wie ich mehr auf die Bilder geachtet habe als auf die Zeichen. Manche zeichen konnte ich gar nicht anschauen, da sie so schnell wieder weg waren","0","1","0","null","","","<div class = 'row'><div class = 'column'><img src = 'category4/CS4.png' width = '70%;'></div><div class = 'column'><img src = 'usneg/9415.bmp' width = '100%;'></div></div>","null","neg","CS","CS","4","category4/CS4.png","","","","",""
"","html-keyboard-response","58","322281","0.0-6.0-4.0-0.10","zplwc7odzv","many_one","0","indirect_first","0","in08ar17","0","23","1","1","3","1","In der Zeit, in der man sich die Bilder und die Zeichen anschauen soll, habe ich mich selbst dabei erwischt, wie ich mehr auf die Bilder geachtet habe als auf die Zeichen. Manche zeichen konnte ich gar nicht anschauen, da sie so schnell wieder weg waren","0","1","0","null","","","<div class = 'row'><div class = 'column'><img src = 'category2/CS5.png' width = '70%;'></div><div class = 'column'><img src = 'uspos/2165.bmp' width = '100%;'></div></div>","null","pos","CS","CS","2","category2/CS5.png","","","","",""
"","html-keyboard-response","59","324821","0.0-6.0-4.0-0.11","zplwc7odzv","many_one","0","indirect_first","0","in08ar17","0","23","1","1","3","1","In der Zeit, in der man sich die Bilder und die Zeichen anschauen soll, habe ich mich selbst dabei erwischt, wie ich mehr auf die Bilder geachtet habe als auf die Zeichen. Manche zeichen konnte ich gar nicht anschauen, da sie so schnell wieder weg waren","0","1","0","null","","","<div class = 'row'><div class = 'column'><img src = 'usneg/8485.bmp' width = '100%;'></div><div class = 'column'><img src = 'category3/CS5.png' width = '70%;'></div></div>","null","neg","CS","CS","3","category3/CS5.png","","","","",""
"","html-keyboard-response","60","327361","0.0-6.0-4.0-0.12","zplwc7odzv","many_one","0","indirect_first","0","in08ar17","0","23","1","1","3","1","In der Zeit, in der man sich die Bilder und die Zeichen anschauen soll, habe ich mich selbst dabei erwischt, wie ich mehr auf die Bilder geachtet habe als auf die Zeichen. Manche zeichen konnte ich gar nicht anschauen, da sie so schnell wieder weg waren","0","1","0","null","","","<div class = 'row'><div class = 'column'><img src = 'category4/CS3.png' width = '70%;'></div><div class = 'column'><img src = 'usneg/9561.bmp' width = '100%;'></div></div>","null","neg","CS","CS","4","category4/CS3.png","","","","",""
"","html-keyboard-response","61","329901","0.0-6.0-4.0-0.13","zplwc7odzv","many_one","0","indirect_first","0","in08ar17","0","23","1","1","3","1","In der Zeit, in der man sich die Bilder und die Zeichen anschauen soll, habe ich mich selbst dabei erwischt, wie ich mehr auf die Bilder geachtet habe als auf die Zeichen. Manche zeichen konnte ich gar nicht anschauen, da sie so schnell wieder weg waren","0","1","0","null","","","<div class = 'row'><div class = 'column'><img src = 'uspos/8540.bmp' width = '100%;'></div><div class = 'column'><img src = 'category2/CS6.png' width = '70%;'></div></div>","null","pos","CS","CS","2","category2/CS6.png","","","","",""
"","html-keyboard-response","62","332441","0.0-6.0-4.0-0.14","zplwc7odzv","many_one","0","indirect_first","0","in08ar17","0","23","1","1","3","1","In der Zeit, in der man sich die Bilder und die Zeichen anschauen soll, habe ich mich selbst dabei erwischt, wie ich mehr auf die Bilder geachtet habe als auf die Zeichen. Manche zeichen konnte ich gar nicht anschauen, da sie so schnell wieder weg waren","0","1","0","null","","","<div class = 'row'><div class = 'column'><img src = 'category1/CS3.png' width = '70%;'></div><div class = 'column'><img src = 'uspos/2160.bmp' width = '100%;'></div></div>","null","pos","CS","CS","1","category1/CS3.png","","","","",""
"","html-keyboard-response","63","334981","0.0-6.0-4.0-0.15","zplwc7odzv","many_one","0","indirect_first","0","in08ar17","0","23","1","1","3","1","In der Zeit, in der man sich die Bilder und die Zeichen anschauen soll, habe ich mich selbst dabei erwischt, wie ich mehr auf die Bilder geachtet habe als auf die Zeichen. Manche zeichen konnte ich gar nicht anschauen, da sie so schnell wieder weg waren","0","1","0","null","","","<div class = 'row'><div class = 'column'><img src = 'uspos/8080.bmp' width = '100%;'></div><div class = 'column'><img src = 'category1/CS1.png' width = '70%;'></div></div>","null","pos","CS","CS","1","category1/CS1.png","","","","",""
"","html-keyboard-response","64","337521","0.0-6.0-4.0-0.16","zplwc7odzv","many_one","0","indirect_first","0","in08ar17","0","23","1","1","3","1","In der Zeit, in der man sich die Bilder und die Zeichen anschauen soll, habe ich mich selbst dabei erwischt, wie ich mehr auf die Bilder geachtet habe als auf die Zeichen. Manche zeichen konnte ich gar nicht anschauen, da sie so schnell wieder weg waren","0","1","0","null","","","<div class = 'row'><div class = 'column'><img src = 'category4/CS5.png' width = '70%;'></div><div class = 'column'><img src = 'usneg/9180.bmp' width = '100%;'></div></div>","null","neg","CS","CS","4","category4/CS5.png","","","","",""
"","html-keyboard-response","65","340061","0.0-6.0-4.0-0.17","zplwc7odzv","many_one","0","indirect_first","0","in08ar17","0","23","1","1","3","1","In der Zeit, in der man sich die Bilder und die Zeichen anschauen soll, habe ich mich selbst dabei erwischt, wie ich mehr auf die Bilder geachtet habe als auf die Zeichen. Manche zeichen konnte ich gar nicht anschauen, da sie so schnell wieder weg waren","0","1","0","null","","","<div class = 'row'><div class = 'column'><img src = 'category4/CS9.png' width = '70%;'></div><div class = 'column'><img src = 'usneg/9041.bmp' width = '100%;'></div></div>","null","neg","CS","CS","4","category4/CS9.png","","","","",""
"","html-keyboard-response","66","342601","0.0-6.0-4.0-0.18","zplwc7odzv","many_one","0","indirect_first","0","in08ar17","0","23","1","1","3","1","In der Zeit, in der man sich die Bilder und die Zeichen anschauen soll, habe ich mich selbst dabei erwischt, wie ich mehr auf die Bilder geachtet habe als auf die Zeichen. Manche zeichen konnte ich gar nicht anschauen, da sie so schnell wieder weg waren","0","1","0","null","","","<div class = 'row'><div class = 'column'><img src = 'usneg/9340.bmp' width = '100%;'></div><div class = 'column'><img src = 'category3/CS3.png' width = '70%;'></div></div>","null","neg","CS","CS","3","category3/CS3.png","","","","",""
"","html-keyboard-response","67","345142","0.0-6.0-4.0-0.19","zplwc7odzv","many_one","0","indirect_first","0","in08ar17","0","23","1","1","3","1","In der Zeit, in der man sich die Bilder und die Zeichen anschauen soll, habe ich mich selbst dabei erwischt, wie ich mehr auf die Bilder geachtet habe als auf die Zeichen. Manche zeichen konnte ich gar nicht anschauen, da sie so schnell wieder weg waren","0","1","0","null","","","<div class = 'row'><div class = 'column'><img src = 'category2/CS4.png' width = '70%;'></div><div class = 'column'><img src = 'uspos/8350.bmp' width = '100%;'></div></div>","null","pos","CS","CS","2","category2/CS4.png","","","","",""
"","survey-html-form","68","347121","0.0-6.0-5.0","zplwc7odzv","many_one","0","indirect_first","0","in08ar17","0","23","1","1","3","1","In der Zeit, in der man sich die Bilder und die Zeichen anschauen soll, habe ich mich selbst dabei erwischt, wie ich mehr auf die Bilder geachtet habe als auf die Zeichen. Manche zeichen konnte ich gar nicht anschauen, da sie so schnell wieder weg waren","0","1","0","1460","","{}","","","","","","","","","","","",""
"","html-keyboard-response","69","351141","0.0-6.0-6.0-0.0","zplwc7odzv","many_one","0","indirect_first","0","in08ar17","0","23","1","1","3","1","In der Zeit, in der man sich die Bilder und die Zeichen anschauen soll, habe ich mich selbst dabei erwischt, wie ich mehr auf die Bilder geachtet habe als auf die Zeichen. Manche zeichen konnte ich gar nicht anschauen, da sie so schnell wieder weg waren","0","1","0","null","","","<div class = 'row'><div class = 'column'><img src = 'category1/CS1.png' width = '70%;'></div><div class = 'column'><img src = 'uspos/8080.bmp' width = '100%;'></div></div>","null","pos","CS","CS","1","category1/CS1.png","","","","",""
"","html-keyboard-response","70","353680","0.0-6.0-6.0-0.1","zplwc7odzv","many_one","0","indirect_first","0","in08ar17","0","23","1","1","3","1","In der Zeit, in der man sich die Bilder und die Zeichen anschauen soll, habe ich mich selbst dabei erwischt, wie ich mehr auf die Bilder geachtet habe als auf die Zeichen. Manche zeichen konnte ich gar nicht anschauen, da sie so schnell wieder weg waren","0","1","0","null","","","<div class = 'row'><div class = 'column'><img src = 'category3/CS10.png' width = '70%;'></div><div class = 'column'><img src = 'usneg/9435.bmp' width = '100%;'></div></div>","null","neg","CS","CS","3","category3/CS10.png","","","","",""
"","html-keyboard-response","71","356220","0.0-6.0-6.0-0.2","zplwc7odzv","many_one","0","indirect_first","0","in08ar17","0","23","1","1","3","1","In der Zeit, in der man sich die Bilder und die Zeichen anschauen soll, habe ich mich selbst dabei erwischt, wie ich mehr auf die Bilder geachtet habe als auf die Zeichen. Manche zeichen konnte ich gar nicht anschauen, da sie so schnell wieder weg waren","0","1","0","null","","","<div class = 'row'><div class = 'column'><img src = 'category3/CS1.png' width = '70%;'></div><div class = 'column'><img src = 'usneg/1280.bmp' width = '100%;'></div></div>","null","neg","CS","CS","3","category3/CS1.png","","","","",""
"","html-keyboard-response","72","358742","0.0-6.0-6.0-0.3","zplwc7odzv","many_one","0","indirect_first","0","in08ar17","0","23","1","1","3","1","In der Zeit, in der man sich die Bilder und die Zeichen anschauen soll, habe ich mich selbst dabei erwischt, wie ich mehr auf die Bilder geachtet habe als auf die Zeichen. Manche zeichen konnte ich gar nicht anschauen, da sie so schnell wieder weg waren","0","1","0","null","","","<div class = 'row'><div class = 'column'><img src = 'category2/CS4.png' width = '70%;'></div><div class = 'column'><img src = 'uspos/8350.bmp' width = '100%;'></div></div>","null","pos","CS","CS","2","category2/CS4.png","","","","",""
"","html-keyboard-response","73","361281","0.0-6.0-6.0-0.4","zplwc7odzv","many_one","0","indirect_first","0","in08ar17","0","23","1","1","3","1","In der Zeit, in der man sich die Bilder und die Zeichen anschauen soll, habe ich mich selbst dabei erwischt, wie ich mehr auf die Bilder geachtet habe als auf die Zeichen. Manche zeichen konnte ich gar nicht anschauen, da sie so schnell wieder weg waren","0","1","0","null","","","<div class = 'row'><div class = 'column'><img src = 'uspos/2030.bmp' width = '100%;'></div><div class = 'column'><img src = 'category1/CS9.png' width = '70%;'></div></div>","null","pos","CS","CS","1","category1/CS9.png","","","","",""
"","html-keyboard-response","74","363821","0.0-6.0-6.0-0.5","zplwc7odzv","many_one","0","indirect_first","0","in08ar17","0","23","1","1","3","1","In der Zeit, in der man sich die Bilder und die Zeichen anschauen soll, habe ich mich selbst dabei erwischt, wie ich mehr auf die Bilder geachtet habe als auf die Zeichen. Manche zeichen konnte ich gar nicht anschauen, da sie so schnell wieder weg waren","0","1","0","null","","","<div class = 'row'><div class = 'column'><img src = 'category2/CS8.png' width = '70%;'></div><div class = 'column'><img src = 'uspos/1340.bmp' width = '100%;'></div></div>","null","pos","CS","CS","2","category2/CS8.png","","","","",""
"","html-keyboard-response","75","366360","0.0-6.0-6.0-0.6","zplwc7odzv","many_one","0","indirect_first","0","in08ar17","0","23","1","1","3","1","In der Zeit, in der man sich die Bilder und die Zeichen anschauen soll, habe ich mich selbst dabei erwischt, wie ich mehr auf die Bilder geachtet habe als auf die Zeichen. Manche zeichen konnte ich gar nicht anschauen, da sie so schnell wieder weg waren","0","1","0","null","","","<div class = 'row'><div class = 'column'><img src = 'category1/CS4.png' width = '70%;'></div><div class = 'column'><img src = 'uspos/8490.bmp' width = '100%;'></div></div>","null","pos","CS","CS","1","category1/CS4.png","","","","",""
"","html-keyboard-response","76","368901","0.0-6.0-6.0-0.7","zplwc7odzv","many_one","0","indirect_first","0","in08ar17","0","23","1","1","3","1","In der Zeit, in der man sich die Bilder und die Zeichen anschauen soll, habe ich mich selbst dabei erwischt, wie ich mehr auf die Bilder geachtet habe als auf die Zeichen. Manche zeichen konnte ich gar nicht anschauen, da sie so schnell wieder weg waren","0","1","0","null","","","<div class = 'row'><div class = 'column'><img src = 'category4/CS9.png' width = '70%;'></div><div class = 'column'><img src = 'usneg/9041.bmp' width = '100%;'></div></div>","null","neg","CS","CS","4","category4/CS9.png","","","","",""
"","html-keyboard-response","77","371440","0.0-6.0-6.0-0.8","zplwc7odzv","many_one","0","indirect_first","0","in08ar17","0","23","1","1","3","1","In der Zeit, in der man sich die Bilder und die Zeichen anschauen soll, habe ich mich selbst dabei erwischt, wie ich mehr auf die Bilder geachtet habe als auf die Zeichen. Manche zeichen konnte ich gar nicht anschauen, da sie so schnell wieder weg waren","0","1","0","null","","","<div class = 'row'><div class = 'column'><img src = 'uspos/2165.bmp' width = '100%;'></div><div class = 'column'><img src = 'category2/CS5.png' width = '70%;'></div></div>","null","pos","CS","CS","2","category2/CS5.png","","","","",""
"","html-keyboard-response","78","373961","0.0-6.0-6.0-0.9","zplwc7odzv","many_one","0","indirect_first","0","in08ar17","0","23","1","1","3","1","In der Zeit, in der man sich die Bilder und die Zeichen anschauen soll, habe ich mich selbst dabei erwischt, wie ich mehr auf die Bilder geachtet habe als auf die Zeichen. Manche zeichen konnte ich gar nicht anschauen, da sie so schnell wieder weg waren","0","1","0","null","","","<div class = 'row'><div class = 'column'><img src = 'category2/CS6.png' width = '70%;'></div><div class = 'column'><img src = 'uspos/8540.bmp' width = '100%;'></div></div>","null","pos","CS","CS","2","category2/CS6.png","","","","",""
"","html-keyboard-response","79","376502","0.0-6.0-6.0-0.10","zplwc7odzv","many_one","0","indirect_first","0","in08ar17","0","23","1","1","3","1","In der Zeit, in der man sich die Bilder und die Zeichen anschauen soll, habe ich mich selbst dabei erwischt, wie ich mehr auf die Bilder geachtet habe als auf die Zeichen. Manche zeichen konnte ich gar nicht anschauen, da sie so schnell wieder weg waren","0","1","0","null","","","<div class = 'row'><div class = 'column'><img src = 'usneg/8485.bmp' width = '100%;'></div><div class = 'column'><img src = 'category3/CS5.png' width = '70%;'></div></div>","null","neg","CS","CS","3","category3/CS5.png","","","","",""
"","html-keyboard-response","80","379041","0.0-6.0-6.0-0.11","zplwc7odzv","many_one","0","indirect_first","0","in08ar17","0","23","1","1","3","1","In der Zeit, in der man sich die Bilder und die Zeichen anschauen soll, habe ich mich selbst dabei erwischt, wie ich mehr auf die Bilder geachtet habe als auf die Zeichen. Manche zeichen konnte ich gar nicht anschauen, da sie so schnell wieder weg waren","0","1","0","null","","","<div class = 'row'><div class = 'column'><img src = 'category2/CS9.png' width = '70%;'></div><div class = 'column'><img src = 'uspos/5470.bmp' width = '100%;'></div></div>","null","pos","CS","CS","2","category2/CS9.png","","","","",""
"","html-keyboard-response","81","381581","0.0-6.0-6.0-0.12","zplwc7odzv","many_one","0","indirect_first","0","in08ar17","0","23","1","1","3","1","In der Zeit, in der man sich die Bilder und die Zeichen anschauen soll, habe ich mich selbst dabei erwischt, wie ich mehr auf die Bilder geachtet habe als auf die Zeichen. Manche zeichen konnte ich gar nicht anschauen, da sie so schnell wieder weg waren","0","1","0","null","","","<div class = 'row'><div class = 'column'><img src = 'category3/CS3.png' width = '70%;'></div><div class = 'column'><img src = 'usneg/9340.bmp' width = '100%;'></div></div>","null","neg","CS","CS","3","category3/CS3.png","","","","",""
"","html-keyboard-response","82","384101","0.0-6.0-6.0-0.13","zplwc7odzv","many_one","0","indirect_first","0","in08ar17","0","23","1","1","3","1","In der Zeit, in der man sich die Bilder und die Zeichen anschauen soll, habe ich mich selbst dabei erwischt, wie ich mehr auf die Bilder geachtet habe als auf die Zeichen. Manche zeichen konnte ich gar nicht anschauen, da sie so schnell wieder weg waren","0","1","0","null","","","<div class = 'row'><div class = 'column'><img src = 'category4/CS3.png' width = '70%;'></div><div class = 'column'><img src = 'usneg/9561.bmp' width = '100%;'></div></div>","null","neg","CS","CS","4","category4/CS3.png","","","","",""
"","html-keyboard-response","83","386641","0.0-6.0-6.0-0.14","zplwc7odzv","many_one","0","indirect_first","0","in08ar17","0","23","1","1","3","1","In der Zeit, in der man sich die Bilder und die Zeichen anschauen soll, habe ich mich selbst dabei erwischt, wie ich mehr auf die Bilder geachtet habe als auf die Zeichen. Manche zeichen konnte ich gar nicht anschauen, da sie so schnell wieder weg waren","0","1","0","null","","","<div class = 'row'><div class = 'column'><img src = 'category4/CS4.png' width = '70%;'></div><div class = 'column'><img src = 'usneg/9415.bmp' width = '100%;'></div></div>","null","neg","CS","CS","4","category4/CS4.png","","","","",""
"","html-keyboard-response","84","389181","0.0-6.0-6.0-0.15","zplwc7odzv","many_one","0","indirect_first","0","in08ar17","0","23","1","1","3","1","In der Zeit, in der man sich die Bilder und die Zeichen anschauen soll, habe ich mich selbst dabei erwischt, wie ich mehr auf die Bilder geachtet habe als auf die Zeichen. Manche zeichen konnte ich gar nicht anschauen, da sie so schnell wieder weg waren","0","1","0","null","","","<div class = 'row'><div class = 'column'><img src = 'category3/CS7.png' width = '70%;'></div><div class = 'column'><img src = 'usneg/3300.bmp' width = '100%;'></div></div>","null","neg","CS","CS","3","category3/CS7.png","","","","",""
"","html-keyboard-response","85","391721","0.0-6.0-6.0-0.16","zplwc7odzv","many_one","0","indirect_first","0","in08ar17","0","23","1","1","3","1","In der Zeit, in der man sich die Bilder und die Zeichen anschauen soll, habe ich mich selbst dabei erwischt, wie ich mehr auf die Bilder geachtet habe als auf die Zeichen. Manche zeichen konnte ich gar nicht anschauen, da sie so schnell wieder weg waren","0","1","0","null","","","<div class = 'row'><div class = 'column'><img src = 'category4/CS5.png' width = '70%;'></div><div class = 'column'><img src = 'usneg/9180.bmp' width = '100%;'></div></div>","null","neg","CS","CS","4","category4/CS5.png","","","","",""
"","html-keyboard-response","86","394261","0.0-6.0-6.0-0.17","zplwc7odzv","many_one","0","indirect_first","0","in08ar17","0","23","1","1","3","1","In der Zeit, in der man sich die Bilder und die Zeichen anschauen soll, habe ich mich selbst dabei erwischt, wie ich mehr auf die Bilder geachtet habe als auf die Zeichen. Manche zeichen konnte ich gar nicht anschauen, da sie so schnell wieder weg waren","0","1","0","null","","","<div class = 'row'><div class = 'column'><img src = 'usneg/9920.bmp' width = '100%;'></div><div class = 'column'><img src = 'category4/CS7.png' width = '70%;'></div></div>","null","neg","CS","CS","4","category4/CS7.png","","","","",""
"","html-keyboard-response","87","396801","0.0-6.0-6.0-0.18","zplwc7odzv","many_one","0","indirect_first","0","in08ar17","0","23","1","1","3","1","In der Zeit, in der man sich die Bilder und die Zeichen anschauen soll, habe ich mich selbst dabei erwischt, wie ich mehr auf die Bilder geachtet habe als auf die Zeichen. Manche zeichen konnte ich gar nicht anschauen, da sie so schnell wieder weg waren","0","1","0","null","","","<div class = 'row'><div class = 'column'><img src = 'category1/CS3.png' width = '70%;'></div><div class = 'column'><img src = 'uspos/2160.bmp' width = '100%;'></div></div>","null","pos","CS","CS","1","category1/CS3.png","","","","",""
"","html-keyboard-response","88","399341","0.0-6.0-6.0-0.19","zplwc7odzv","many_one","0","indirect_first","0","in08ar17","0","23","1","1","3","1","In der Zeit, in der man sich die Bilder und die Zeichen anschauen soll, habe ich mich selbst dabei erwischt, wie ich mehr auf die Bilder geachtet habe als auf die Zeichen. Manche zeichen konnte ich gar nicht anschauen, da sie so schnell wieder weg waren","0","1","0","null","","","<div class = 'row'><div class = 'column'><img src = 'category1/CS5.png' width = '70%;'></div><div class = 'column'><img src = 'uspos/1710.bmp' width = '100%;'></div></div>","null","pos","CS","CS","1","category1/CS5.png","","","","",""
"","html-keyboard-response","89","442402","0.0-7.0","zplwc7odzv","many_one","0","indirect_first","0","in08ar17","0","23","1","1","3","1","In der Zeit, in der man sich die Bilder und die Zeichen anschauen soll, habe ich mich selbst dabei erwischt, wie ich mehr auf die Bilder geachtet habe als auf die Zeichen. Manche zeichen konnte ich gar nicht anschauen, da sie so schnell wieder weg waren","0","1","0","42539","","","<p>Sie sehen nun die chinesischen Zeichen nur ganz kurz. Danach sehen Sie die jeweilige Aussprache der Zeichen als Silbe auf dem Bildschrim. Ihre Aufgabe ist es, fr jede Silbe anzugeben, ob diese etwas angenehmes, oder unangenehmes bedeuten knnte. Verlassen Sie sich hier vor allem auf Ihre Intuition.<br><br>Die Zeichen werden nur zur Orientierung dargestellt, beachten Sie sie deshalb nicht. Konzentrieren Sie sich vor allem auf die Silben. <br>Reagieren Sie mit folgenden zwei Tasten: <br><br><b>'D' </b> wenn die Silbe etwas <b>unangenehmes</b> bedeuten knnte. <br><b>'K'</b> wenn die Silbe etwas <b>angenehmes</b> bedeuten knnte. <br><br>Bitte legen Sie nun den Zeigefinger der linken Hand auf die Taste 'D' und den Zeigefinger der rechten Hand auf die Taste 'K'. <br>Reagieren Sie auf jede Silbe so schnell wie mglich. Uns interessiert Ihre spontane Reaktion. <br> <br> <br>Drcken Sie 'D' oder 'K', um die nchste Aufgabe zu starten. </p>","68","","","","","","","","","",""
"","html-keyboard-response","90","445441","0.0-8.0-0.0","zplwc7odzv","many_one","0","indirect_first","0","in08ar17","0","23","1","1","3","1","In der Zeit, in der man sich die Bilder und die Zeichen anschauen soll, habe ich mich selbst dabei erwischt, wie ich mehr auf die Bilder geachtet habe als auf die Zeichen. Manche zeichen konnte ich gar nicht anschauen, da sie so schnell wieder weg waren","0","1","0","null","","","<div style=""font-size:60px;"">+</div>","null","","","","","","","","","",""
"","html-keyboard-response","91","445541","0.0-8.0-1.0","zplwc7odzv","many_one","0","indirect_first","0","in08ar17","0","23","1","1","3","1","In der Zeit, in der man sich die Bilder und die Zeichen anschauen soll, habe ich mich selbst dabei erwischt, wie ich mehr auf die Bilder geachtet habe als auf die Zeichen. Manche zeichen konnte ich gar nicht anschauen, da sie so schnell wieder weg waren","0","1","0","null","","","<img src = 'category2/CS5.png' width = '100%;'>","null","","","","","","","","","",""
"","html-keyboard-response","92","445821","0.0-8.0-2.0","zplwc7odzv","many_one","0","indirect_first","0","in08ar17","0","23","1","1","3","1","In der Zeit, in der man sich die Bilder und die Zeichen anschauen soll, habe ich mich selbst dabei erwischt, wie ich mehr auf die Bilder geachtet habe als auf die Zeichen. Manche zeichen konnte ich gar nicht anschauen, da sie so schnell wieder weg waren","0","1","0","null","","","<img src = 'targets/33.png' width = '100%;'>","null","","","","","","","","","",""
"","html-keyboard-response","93","452546","0.0-8.0-3.0","zplwc7odzv","many_one","0","indirect_first","0","in08ar17","0","23","1","1","3","1","In der Zeit, in der man sich die Bilder und die Zeichen anschauen soll, habe ich mich selbst dabei erwischt, wie ich mehr auf die Bilder geachtet habe als auf die Zeichen. Manche zeichen konnte ich gar nicht anschauen, da sie so schnell wieder weg waren","0","1","0","6723","","","<img src = 'targets/mask.png' width = '100%;'>","68","pos","CS","CS","2","category2/CS5.png","targets/33.png","0","indirect","0",""
"","html-keyboard-response","94","454081","0.0-8.0-0.1","zplwc7odzv","many_one","0","indirect_first","0","in08ar17","0","23","1","1","3","1","In der Zeit, in der man sich die Bilder und die Zeichen anschauen soll, habe ich mich selbst dabei erwischt, wie ich mehr auf die Bilder geachtet habe als auf die Zeichen. Manche zeichen konnte ich gar nicht anschauen, da sie so schnell wieder weg waren","0","1","0","null","","","<div style=""font-size:60px;"">+</div>","null","","","","","","","","","",""
"","html-keyboard-response","95","454181","0.0-8.0-1.1","zplwc7odzv","many_one","0","indirect_first","0","in08ar17","0","23","1","1","3","1","In der Zeit, in der man sich die Bilder und die Zeichen anschauen soll, habe ich mich selbst dabei erwischt, wie ich mehr auf die Bilder geachtet habe als auf die Zeichen. Manche zeichen konnte ich gar nicht anschauen, da sie so schnell wieder weg waren","0","1","0","null","","","<img src = 'category2/CS6.png' width = '100%;'>","null","","","","","","","","","",""
"","html-keyboard-response","96","454461","0.0-8.0-2.1","zplwc7odzv","many_one","0","indirect_first","0","in08ar17","0","23","1","1","3","1","In der Zeit, in der man sich die Bilder und die Zeichen anschauen soll, habe ich mich selbst dabei erwischt, wie ich mehr auf die Bilder geachtet habe als auf die Zeichen. Manche zeichen konnte ich gar nicht anschauen, da sie so schnell wieder weg waren","0","1","0","null","","","<img src = 'targets/24.png' width = '100%;'>","null","","","","","","","","","",""
"","html-keyboard-response","97","461401","0.0-8.0-3.1","zplwc7odzv","many_one","0","indirect_first","0","in08ar17","0","23","1","1","3","1","In der Zeit, in der man sich die Bilder und die Zeichen anschauen soll, habe ich mich selbst dabei erwischt, wie ich mehr auf die Bilder geachtet habe als auf die Zeichen. Manche zeichen konnte ich gar nicht anschauen, da sie so schnell wieder weg waren","0","1","0","6939","","","<img src = 'targets/mask.png' width = '100%;'>","75","pos","CS","CS","2","category2/CS6.png","targets/24.png","1","indirect","1",""
"","html-keyboard-response","98","462940","0.0-8.0-0.2","zplwc7odzv","many_one","0","indirect_first","0","in08ar17","0","23","1","1","3","1","In der Zeit, in der man sich die Bilder und die Zeichen anschauen soll, habe ich mich selbst dabei erwischt, wie ich mehr auf die Bilder geachtet habe als auf die Zeichen. Manche zeichen konnte ich gar nicht anschauen, da sie so schnell wieder weg waren","0","1","0","null","","","<div style=""font-size:60px;"">+</div>","null","","","","","","","","","",""
"","html-keyboard-response","99","463041","0.0-8.0-1.2","zplwc7odzv","many_one","0","indirect_first","0","in08ar17","0","23","1","1","3","1","In der Zeit, in der man sich die Bilder und die Zeichen anschauen soll, habe ich mich selbst dabei erwischt, wie ich mehr auf die Bilder geachtet habe als auf die Zeichen. Manche zeichen konnte ich gar nicht anschauen, da sie so schnell wieder weg waren","0","1","0","null","","","<img src = 'category3/CS7.png' width = '100%;'>","null","","","","","","","","","",""
"","html-keyboard-response","100","463321","0.0-8.0-2.2","zplwc7odzv","many_one","0","indirect_first","0","in08ar17","0","23","1","1","3","1","In der Zeit, in der man sich die Bilder und die Zeichen anschauen soll, habe ich mich selbst dabei erwischt, wie ich mehr auf die Bilder geachtet habe als auf die Zeichen. Manche zeichen konnte ich gar nicht anschauen, da sie so schnell wieder weg waren","0","1","0","null","","","<img src = 'targets/2.png' width = '100%;'>","null","","","","","","","","","",""
"","html-keyboard-response","101","466297","0.0-8.0-3.2","zplwc7odzv","many_one","0","indirect_first","0","in08ar17","0","23","1","1","3","1","In der Zeit, in der man sich die Bilder und die Zeichen anschauen soll, habe ich mich selbst dabei erwischt, wie ich mehr auf die Bilder geachtet habe als auf die Zeichen. Manche zeichen konnte ich gar nicht anschauen, da sie so schnell wieder weg waren","0","1","0","2976","","","<img src = 'targets/mask.png' width = '100%;'>","68","neg","CS","CS","3","category3/CS7.png","targets/2.png","0","indirect","2",""
"","html-keyboard-response","102","467821","0.0-8.0-0.3","zplwc7odzv","many_one","0","indirect_first","0","in08ar17","0","23","1","1","3","1","In der Zeit, in der man sich die Bilder und die Zeichen anschauen soll, habe ich mich selbst dabei erwischt, wie ich mehr auf die Bilder geachtet habe als auf die Zeichen. Manche zeichen konnte ich gar nicht anschauen, da sie so schnell wieder weg waren","0","1","0","null","","","<div style=""font-size:60px;"">+</div>","null","","","","","","","","","",""
"","html-keyboard-response","103","467920","0.0-8.0-1.3","zplwc7odzv","many_one","0","indirect_first","0","in08ar17","0","23","1","1","3","1","In der Zeit, in der man sich die Bilder und die Zeichen anschauen soll, habe ich mich selbst dabei erwischt, wie ich mehr auf die Bilder geachtet habe als auf die Zeichen. Manche zeichen konnte ich gar nicht anschauen, da sie so schnell wieder weg waren","0","1","0","null","","","<img src = 'category1/CS4.png' width = '100%;'>","null","","","","","","","","","",""
"","html-keyboard-response","104","468200","0.0-8.0-2.3","zplwc7odzv","many_one","0","indirect_first","0","in08ar17","0","23","1","1","3","1","In der Zeit, in der man sich die Bilder und die Zeichen anschauen soll, habe ich mich selbst dabei erwischt, wie ich mehr auf die Bilder geachtet habe als auf die Zeichen. Manche zeichen konnte ich gar nicht anschauen, da sie so schnell wieder weg waren","0","1","0","null","","","<img src = 'targets/6.png' width = '100%;'>","null","","","","","","","","","",""
"","html-keyboard-response","105","469857","0.0-8.0-3.3","zplwc7odzv","many_one","0","indirect_first","0","in08ar17","0","23","1","1","3","1","In der Zeit, in der man sich die Bilder und die Zeichen anschauen soll, habe ich mich selbst dabei erwischt, wie ich mehr auf die Bilder geachtet habe als auf die Zeichen. Manche zeichen konnte ich gar nicht anschauen, da sie so schnell wieder weg waren","0","1","0","1655","","","<img src = 'targets/mask.png' width = '100%;'>","68","pos","CS","CS","1","category1/CS4.png","targets/6.png","0","indirect","3",""
"","html-keyboard-response","106","471380","0.0-8.0-0.4","zplwc7odzv","many_one","0","indirect_first","0","in08ar17","0","23","1","1","3","1","In der Zeit, in der man sich die Bilder und die Zeichen anschauen soll, habe ich mich selbst dabei erwischt, wie ich mehr auf die Bilder geachtet habe als auf die Zeichen. Manche zeichen konnte ich gar nicht anschauen, da sie so schnell wieder weg waren","0","1","0","null","","","<div style=""font-size:60px;"">+</div>","null","","","","","","","","","",""
"","html-keyboard-response","107","471481","0.0-8.0-1.4","zplwc7odzv","many_one","0","indirect_first","0","in08ar17","0","23","1","1","3","1","In der Zeit, in der man sich die Bilder und die Zeichen anschauen soll, habe ich mich selbst dabei erwischt, wie ich mehr auf die Bilder geachtet habe als auf die Zeichen. Manche zeichen konnte ich gar nicht anschauen, da sie so schnell wieder weg waren","0","1","0","null","","","<img src = 'category3/CS10.png' width = '100%;'>","null","","","","","","","","","",""
"","html-keyboard-response","108","471761","0.0-8.0-2.4","zplwc7odzv","many_one","0","indirect_first","0","in08ar17","0","23","1","1","3","1","In der Zeit, in der man sich die Bilder und die Zeichen anschauen soll, habe ich mich selbst dabei erwischt, wie ich mehr auf die Bilder geachtet habe als auf die Zeichen. Manche zeichen konnte ich gar nicht anschauen, da sie so schnell wieder weg waren","0","1","0","null","","","<img src = 'targets/21.png' width = '100%;'>","null","","","","","","","","","",""
"","html-keyboard-response","109","474441","0.0-8.0-3.4","zplwc7odzv","many_one","0","indirect_first","0","in08ar17","0","23","1","1","3","1","In der Zeit, in der man sich die Bilder und die Zeichen anschauen soll, habe ich mich selbst dabei erwischt, wie ich mehr auf die Bilder geachtet habe als auf die Zeichen. Manche zeichen konnte ich gar nicht anschauen, da sie so schnell wieder weg waren","0","1","0","2678","","","<img src = 'targets/mask.png' width = '100%;'>","75","neg","CS","CS","3","category3/CS10.png","targets/21.png","1","indirect","4",""
"","html-keyboard-response","110","475981","0.0-8.0-0.5","zplwc7odzv","many_one","0","indirect_first","0","in08ar17","0","23","1","1","3","1","In der Zeit, in der man sich die Bilder und die Zeichen anschauen soll, habe ich mich selbst dabei erwischt, wie ich mehr auf die Bilder geachtet habe als auf die Zeichen. Manche zeichen konnte ich gar nicht anschauen, da sie so schnell wieder weg waren","0","1","0","null","","","<div style=""font-size:60px;"">+</div>","null","","","","","","","","","",""
"","html-keyboard-response","111","476081","0.0-8.0-1.5","zplwc7odzv","many_one","0","indirect_first","0","in08ar17","0","23","1","1","3","1","In der Zeit, in der man sich die Bilder und die Zeichen anschauen soll, habe ich mich selbst dabei erwischt, wie ich mehr auf die Bilder geachtet habe als auf die Zeichen. Manche zeichen konnte ich gar nicht anschauen, da sie so schnell wieder weg waren","0","1","0","null","","","<img src = 'category2/CS9.png' width = '100%;'>","null","","","","","","","","","",""
"","html-keyboard-response","112","476361","0.0-8.0-2.5","zplwc7odzv","many_one","0","indirect_first","0","in08ar17","0","23","1","1","3","1","In der Zeit, in der man sich die Bilder und die Zeichen anschauen soll, habe ich mich selbst dabei erwischt, wie ich mehr auf die Bilder geachtet habe als auf die Zeichen. Manche zeichen konnte ich gar nicht anschauen, da sie so schnell wieder weg waren","0","1","0","null","","","<img src = 'targets/15.png' width = '100%;'>","null","","","","","","","","","",""
"","html-keyboard-response","113","477817","0.0-8.0-3.5","zplwc7odzv","many_one","0","indirect_first","0","in08ar17","0","23","1","1","3","1","In der Zeit, in der man sich die Bilder und die Zeichen anschauen soll, habe ich mich selbst dabei erwischt, wie ich mehr auf die Bilder geachtet habe als auf die Zeichen. Manche zeichen konnte ich gar nicht anschauen, da sie so schnell wieder weg waren","0","1","0","1454","","","<img src = 'targets/mask.png' width = '100%;'>","68","pos","CS","CS","2","category2/CS9.png","targets/15.png","0","indirect","5",""
"","html-keyboard-response","114","479321","0.0-8.0-0.6","zplwc7odzv","many_one","0","indirect_first","0","in08ar17","0","23","1","1","3","1","In der Zeit, in der man sich die Bilder und die Zeichen anschauen soll, habe ich mich selbst dabei erwischt, wie ich mehr auf die Bilder geachtet habe als auf die Zeichen. Manche zeichen konnte ich gar nicht anschauen, da sie so schnell wieder weg waren","0","1","0","null","","","<div style=""font-size:60px;"">+</div>","null","","","","","","","","","",""
"","html-keyboard-response","115","479421","0.0-8.0-1.6","zplwc7odzv","many_one","0","indirect_first","0","in08ar17","0","23","1","1","3","1","In der Zeit, in der man sich die Bilder und die Zeichen anschauen soll, habe ich mich selbst dabei erwischt, wie ich mehr auf die Bilder geachtet habe als auf die Zeichen. Manche zeichen konnte ich gar nicht anschauen, da sie so schnell wieder weg waren","0","1","0","null","","","<img src = 'category4/CS7.png' width = '100%;'>","null","","","","","","","","","",""
"","html-keyboard-response","116","479700","0.0-8.0-2.6","zplwc7odzv","many_one","0","indirect_first","0","in08ar17","0","23","1","1","3","1","In der Zeit, in der man sich die Bilder und die Zeichen anschauen soll, habe ich mich selbst dabei erwischt, wie ich mehr auf die Bilder geachtet habe als auf die Zeichen. Manche zeichen konnte ich gar nicht anschauen, da sie so schnell wieder weg waren","0","1","0","null","","","<img src = 'targets/9.png' width = '100%;'>","null","","","","","","","","","",""
"","html-keyboard-response","117","480905","0.0-8.0-3.6","zplwc7odzv","many_one","0","indirect_first","0","in08ar17","0","23","1","1","3","1","In der Zeit, in der man sich die Bilder und die Zeichen anschauen soll, habe ich mich selbst dabei erwischt, wie ich mehr auf die Bilder geachtet habe als auf die Zeichen. Manche zeichen konnte ich gar nicht anschauen, da sie so schnell wieder weg waren","0","1","0","1202","","","<img src = 'targets/mask.png' width = '100%;'>","75","neg","CS","CS","4","category4/CS7.png","targets/9.png","1","indirect","6",""
"","html-keyboard-response","118","482441","0.0-8.0-0.7","zplwc7odzv","many_one","0","indirect_first","0","in08ar17","0","23","1","1","3","1","In der Zeit, in der man sich die Bilder und die Zeichen anschauen soll, habe ich mich selbst dabei erwischt, wie ich mehr auf die Bilder geachtet habe als auf die Zeichen. Manche zeichen konnte ich gar nicht anschauen, da sie so schnell wieder weg waren","0","1","0","null","","","<div style=""font-size:60px;"">+</div>","null","","","","","","","","","",""
"","html-keyboard-response","119","482541","0.0-8.0-1.7","zplwc7odzv","many_one","0","indirect_first","0","in08ar17","0","23","1","1","3","1","In der Zeit, in der man sich die Bilder und die Zeichen anschauen soll, habe ich mich selbst dabei erwischt, wie ich mehr auf die Bilder geachtet habe als auf die Zeichen. Manche zeichen konnte ich gar nicht anschauen, da sie so schnell wieder weg waren","0","1","0","null","","","<img src = 'category4/CS6.png' width = '100%;'>","null","","","","","","","","","",""
"","html-keyboard-response","120","482821","0.0-8.0-2.7","zplwc7odzv","many_one","0","indirect_first","0","in08ar17","0","23","1","1","3","1","In der Zeit, in der man sich die Bilder und die Zeichen anschauen soll, habe ich mich selbst dabei erwischt, wie ich mehr auf die Bilder geachtet habe als auf die Zeichen. Manche zeichen konnte ich gar nicht anschauen, da sie so schnell wieder weg waren","0","1","0","null","","","<img src = 'targets/46.png' width = '100%;'>","null","","","","","","","","","",""
"","html-keyboard-response","121","484585","0.0-8.0-3.7","zplwc7odzv","many_one","0","indirect_first","0","in08ar17","0","23","1","1","3","1","In der Zeit, in der man sich die Bilder und die Zeichen anschauen soll, habe ich mich selbst dabei erwischt, wie ich mehr auf die Bilder geachtet habe als auf die Zeichen. Manche zeichen konnte ich gar nicht anschauen, da sie so schnell wieder weg waren","0","1","0","1763","","","<img src = 'targets/mask.png' width = '100%;'>","68","neg","GS","GSold","4","category4/CS6.png","targets/46.png","0","indirect","7",""
"","html-keyboard-response","122","486121","0.0-8.0-0.8","zplwc7odzv","many_one","0","indirect_first","0","in08ar17","0","23","1","1","3","1","In der Zeit, in der man sich die Bilder und die Zeichen anschauen soll, habe ich mich selbst dabei erwischt, wie ich mehr auf die Bilder geachtet habe als auf die Zeichen. Manche zeichen konnte ich gar nicht anschauen, da sie so schnell wieder weg waren","0","1","0","null","","","<div style=""font-size:60px;"">+</div>","null","","","","","","","","","",""
"","html-keyboard-response","123","486221","0.0-8.0-1.8","zplwc7odzv","many_one","0","indirect_first","0","in08ar17","0","23","1","1","3","1","In der Zeit, in der man sich die Bilder und die Zeichen anschauen soll, habe ich mich selbst dabei erwischt, wie ich mehr auf die Bilder geachtet habe als auf die Zeichen. Manche zeichen konnte ich gar nicht anschauen, da sie so schnell wieder weg waren","0","1","0","null","","","<img src = 'category1/CS2.png' width = '100%;'>","null","","","","","","","","","",""
"","html-keyboard-response","124","486501","0.0-8.0-2.8","zplwc7odzv","many_one","0","indirect_first","0","in08ar17","0","23","1","1","3","1","In der Zeit, in der man sich die Bilder und die Zeichen anschauen soll, habe ich mich selbst dabei erwischt, wie ich mehr auf die Bilder geachtet habe als auf die Zeichen. Manche zeichen konnte ich gar nicht anschauen, da sie so schnell wieder weg waren","0","1","0","null","","","<img src = 'targets/35.png' width = '100%;'>","null","","","","","","","","","",""
"","html-keyboard-response","125","487257","0.0-8.0-3.8","zplwc7odzv","many_one","0","indirect_first","0","in08ar17","0","23","1","1","3","1","In der Zeit, in der man sich die Bilder und die Zeichen anschauen soll, habe ich mich selbst dabei erwischt, wie ich mehr auf die Bilder geachtet habe als auf die Zeichen. Manche zeichen konnte ich gar nicht anschauen, da sie so schnell wieder weg waren","0","1","0","755","","","<img src = 'targets/mask.png' width = '100%;'>","68","pos","GS","GSold","1","category1/CS2.png","targets/35.png","0","indirect","8",""
"","html-keyboard-response","126","488781","0.0-8.0-0.9","zplwc7odzv","many_one","0","indirect_first","0","in08ar17","0","23","1","1","3","1","In der Zeit, in der man sich die Bilder und die Zeichen anschauen soll, habe ich mich selbst dabei erwischt, wie ich mehr auf die Bilder geachtet habe als auf die Zeichen. Manche zeichen konnte ich gar nicht anschauen, da sie so schnell wieder weg waren","0","1","0","null","","","<div style=""font-size:60px;"">+</div>","null","","","","","","","","","",""
"","html-keyboard-response","127","488880","0.0-8.0-1.9","zplwc7odzv","many_one","0","indirect_first","0","in08ar17","0","23","1","1","3","1","In der Zeit, in der man sich die Bilder und die Zeichen anschauen soll, habe ich mich selbst dabei erwischt, wie ich mehr auf die Bilder geachtet habe als auf die Zeichen. Manche zeichen konnte ich gar nicht anschauen, da sie so schnell wieder weg waren","0","1","0","null","","","<img src = 'category4/CS3.png' width = '100%;'>","null","","","","","","","","","",""
"","html-keyboard-response","128","489161","0.0-8.0-2.9","zplwc7odzv","many_one","0","indirect_first","0","in08ar17","0","23","1","1","3","1","In der Zeit, in der man sich die Bilder und die Zeichen anschauen soll, habe ich mich selbst dabei erwischt, wie ich mehr auf die Bilder geachtet habe als auf die Zeichen. Manche zeichen konnte ich gar nicht anschauen, da sie so schnell wieder weg waren","0","1","0","null","","","<img src = 'targets/17.png' width = '100%;'>","null","","","","","","","","","",""
"","html-keyboard-response","129","490097","0.0-8.0-3.9","zplwc7odzv","many_one","0","indirect_first","0","in08ar17","0","23","1","1","3","1","In der Zeit, in der man sich die Bilder und die Zeichen anschauen soll, habe ich mich selbst dabei erwischt, wie ich mehr auf die Bilder geachtet habe als auf die Zeichen. Manche zeichen konnte ich gar nicht anschauen, da sie so schnell wieder weg waren","0","1","0","935","","","<img src = 'targets/mask.png' width = '100%;'>","68","neg","CS","CS","4","category4/CS3.png","targets/17.png","0","indirect","9",""
"","html-keyboard-response","130","491616","0.0-8.0-0.10","zplwc7odzv","many_one","0","indirect_first","0","in08ar17","0","23","1","1","3","1","In der Zeit, in der man sich die Bilder und die Zeichen anschauen soll, habe ich mich selbst dabei erwischt, wie ich mehr auf die Bilder geachtet habe als auf die Zeichen. Manche zeichen konnte ich gar nicht anschauen, da sie so schnell wieder weg waren","0","1","0","null","","","<div style=""font-size:60px;"">+</div>","null","","","","","","","","","",""
"","html-keyboard-response","131","491721","0.0-8.0-1.10","zplwc7odzv","many_one","0","indirect_first","0","in08ar17","0","23","1","1","3","1","In der Zeit, in der man sich die Bilder und die Zeichen anschauen soll, habe ich mich selbst dabei erwischt, wie ich mehr auf die Bilder geachtet habe als auf die Zeichen. Manche zeichen konnte ich gar nicht anschauen, da sie so schnell wieder weg waren","0","1","0","null","","","<img src = 'category2/CS8.png' width = '100%;'>","null","","","","","","","","","",""
"","html-keyboard-response","132","492001","0.0-8.0-2.10","zplwc7odzv","many_one","0","indirect_first","0","in08ar17","0","23","1","1","3","1","In der Zeit, in der man sich die Bilder und die Zeichen anschauen soll, habe ich mich selbst dabei erwischt, wie ich mehr auf die Bilder geachtet habe als auf die Zeichen. Manche zeichen konnte ich gar nicht anschauen, da sie so schnell wieder weg waren","0","1","0","null","","","<img src = 'targets/40.png' width = '100%;'>","null","","","","","","","","","",""
"","html-keyboard-response","133","492881","0.0-8.0-3.10","zplwc7odzv","many_one","0","indirect_first","0","in08ar17","0","23","1","1","3","1","In der Zeit, in der man sich die Bilder und die Zeichen anschauen soll, habe ich mich selbst dabei erwischt, wie ich mehr auf die Bilder geachtet habe als auf die Zeichen. Manche zeichen konnte ich gar nicht anschauen, da sie so schnell wieder weg waren","0","1","0","880","","","<img src = 'targets/mask.png' width = '100%;'>","75","pos","CS","CS","2","category2/CS8.png","targets/40.png","1","indirect","10",""
"","html-keyboard-response","134","494421","0.0-8.0-0.11","zplwc7odzv","many_one","0","indirect_first","0","in08ar17","0","23","1","1","3","1","In der Zeit, in der man sich die Bilder und die Zeichen anschauen soll, habe ich mich selbst dabei erwischt, wie ich mehr auf die Bilder geachtet habe als auf die Zeichen. Manche zeichen konnte ich gar nicht anschauen, da sie so schnell wieder weg waren","0","1","0","null","","","<div style=""font-size:60px;"">+</div>","null","","","","","","","","","",""
"","html-keyboard-response","135","494516","0.0-8.0-1.11","zplwc7odzv","many_one","0","indirect_first","0","in08ar17","0","23","1","1","3","1","In der Zeit, in der man sich die Bilder und die Zeichen anschauen soll, habe ich mich selbst dabei erwischt, wie ich mehr auf die Bilder geachtet habe als auf die Zeichen. Manche zeichen konnte ich gar nicht anschauen, da sie so schnell wieder weg waren","0","1","0","null","","","<img src = 'category2/CS4.png' width = '100%;'>","null","","","","","","","","","",""
"","html-keyboard-response","136","494801","0.0-8.0-2.11","zplwc7odzv","many_one","0","indirect_first","0","in08ar17","0","23","1","1","3","1","In der Zeit, in der man sich die Bilder und die Zeichen anschauen soll, habe ich mich selbst dabei erwischt, wie ich mehr auf die Bilder geachtet habe als auf die Zeichen. Manche zeichen konnte ich gar nicht anschauen, da sie so schnell wieder weg waren","0","1","0","null","","","<img src = 'targets/20.png' width = '100%;'>","null","","","","","","","","","",""
"","html-keyboard-response","137","496137","0.0-8.0-3.11","zplwc7odzv","many_one","0","indirect_first","0","in08ar17","0","23","1","1","3","1","In der Zeit, in der man sich die Bilder und die Zeichen anschauen soll, habe ich mich selbst dabei erwischt, wie ich mehr auf die Bilder geachtet habe als auf die Zeichen. Manche zeichen konnte ich gar nicht anschauen, da sie so schnell wieder weg waren","0","1","0","1334","","","<img src = 'targets/mask.png' width = '100%;'>","68","pos","CS","CS","2","category2/CS4.png","targets/20.png","0","indirect","11",""
"","html-keyboard-response","138","497661","0.0-8.0-0.12","zplwc7odzv","many_one","0","indirect_first","0","in08ar17","0","23","1","1","3","1","In der Zeit, in der man sich die Bilder und die Zeichen anschauen soll, habe ich mich selbst dabei erwischt, wie ich mehr auf die Bilder geachtet habe als auf die Zeichen. Manche zeichen konnte ich gar nicht anschauen, da sie so schnell wieder weg waren","0","1","0","null","","","<div style=""font-size:60px;"">+</div>","null","","","","","","","","","",""
"","html-keyboard-response","139","497761","0.0-8.0-1.12","zplwc7odzv","many_one","0","indirect_first","0","in08ar17","0","23","1","1","3","1","In der Zeit, in der man sich die Bilder und die Zeichen anschauen soll, habe ich mich selbst dabei erwischt, wie ich mehr auf die Bilder geachtet habe als auf die Zeichen. Manche zeichen konnte ich gar nicht anschauen, da sie so schnell wieder weg waren","0","1","0","null","","","<img src = 'category1/CS5.png' width = '100%;'>","null","","","","","","","","","",""
"","html-keyboard-response","140","498041","0.0-8.0-2.12","zplwc7odzv","many_one","0","indirect_first","0","in08ar17","0","23","1","1","3","1","In der Zeit, in der man sich die Bilder und die Zeichen anschauen soll, habe ich mich selbst dabei erwischt, wie ich mehr auf die Bilder geachtet habe als auf die Zeichen. Manche zeichen konnte ich gar nicht anschauen, da sie so schnell wieder weg waren","0","1","0","null","","","<img src = 'targets/5.png' width = '100%;'>","null","","","","","","","","","",""
"","html-keyboard-response","141","499425","0.0-8.0-3.12","zplwc7odzv","many_one","0","indirect_first","0","in08ar17","0","23","1","1","3","1","In der Zeit, in der man sich die Bilder und die Zeichen anschauen soll, habe ich mich selbst dabei erwischt, wie ich mehr auf die Bilder geachtet habe als auf die Zeichen. Manche zeichen konnte ich gar nicht anschauen, da sie so schnell wieder weg waren","0","1","0","1384","","","<img src = 'targets/mask.png' width = '100%;'>","75","pos","CS","CS","1","category1/CS5.png","targets/5.png","1","indirect","12",""
"","html-keyboard-response","142","500961","0.0-8.0-0.13","zplwc7odzv","many_one","0","indirect_first","0","in08ar17","0","23","1","1","3","1","In der Zeit, in der man sich die Bilder und die Zeichen anschauen soll, habe ich mich selbst dabei erwischt, wie ich mehr auf die Bilder geachtet habe als auf die Zeichen. Manche zeichen konnte ich gar nicht anschauen, da sie so schnell wieder weg waren","0","1","0","null","","","<div style=""font-size:60px;"">+</div>","null","","","","","","","","","",""
"","html-keyboard-response","143","501061","0.0-8.0-1.13","zplwc7odzv","many_one","0","indirect_first","0","in08ar17","0","23","1","1","3","1","In der Zeit, in der man sich die Bilder und die Zeichen anschauen soll, habe ich mich selbst dabei erwischt, wie ich mehr auf die Bilder geachtet habe als auf die Zeichen. Manche zeichen konnte ich gar nicht anschauen, da sie so schnell wieder weg waren","0","1","0","null","","","<img src = 'category3/CS1.png' width = '100%;'>","null","","","","","","","","","",""
"","html-keyboard-response","144","501331","0.0-8.0-2.13","zplwc7odzv","many_one","0","indirect_first","0","in08ar17","0","23","1","1","3","1","In der Zeit, in der man sich die Bilder und die Zeichen anschauen soll, habe ich mich selbst dabei erwischt, wie ich mehr auf die Bilder geachtet habe als auf die Zeichen. Manche zeichen konnte ich gar nicht anschauen, da sie so schnell wieder weg waren","0","1","0","null","","","<img src = 'targets/10.png' width = '100%;'>","null","","","","","","","","","",""
"","html-keyboard-response","145","505152","0.0-8.0-3.13","zplwc7odzv","many_one","0","indirect_first","0","in08ar17","0","23","1","1","3","1","In der Zeit, in der man sich die Bilder und die Zeichen anschauen soll, habe ich mich selbst dabei erwischt, wie ich mehr auf die Bilder geachtet habe als auf die Zeichen. Manche zeichen konnte ich gar nicht anschauen, da sie so schnell wieder weg waren","0","1","0","3821","","","<img src = 'targets/mask.png' width = '100%;'>","68","neg","CS","CS","3","category3/CS1.png","targets/10.png","0","indirect","13",""
"","html-keyboard-response","146","506681","0.0-8.0-0.14","zplwc7odzv","many_one","0","indirect_first","0","in08ar17","0","23","1","1","3","1","In der Zeit, in der man sich die Bilder und die Zeichen anschauen soll, habe ich mich selbst dabei erwischt, wie ich mehr auf die Bilder geachtet habe als auf die Zeichen. Manche zeichen konnte ich gar nicht anschauen, da sie so schnell wieder weg waren","0","1","0","null","","","<div style=""font-size:60px;"">+</div>","null","","","","","","","","","",""
"","html-keyboard-response","147","506781","0.0-8.0-1.14","zplwc7odzv","many_one","0","indirect_first","0","in08ar17","0","23","1","1","3","1","In der Zeit, in der man sich die Bilder und die Zeichen anschauen soll, habe ich mich selbst dabei erwischt, wie ich mehr auf die Bilder geachtet habe als auf die Zeichen. Manche zeichen konnte ich gar nicht anschauen, da sie so schnell wieder weg waren","0","1","0","null","","","<img src = 'category1/CS9.png' width = '100%;'>","null","","","","","","","","","",""
"","html-keyboard-response","148","507061","0.0-8.0-2.14","zplwc7odzv","many_one","0","indirect_first","0","in08ar17","0","23","1","1","3","1","In der Zeit, in der man sich die Bilder und die Zeichen anschauen soll, habe ich mich selbst dabei erwischt, wie ich mehr auf die Bilder geachtet habe als auf die Zeichen. Manche zeichen konnte ich gar nicht anschauen, da sie so schnell wieder weg waren","0","1","0","null","","","<img src = 'targets/44.png' width = '100%;'>","null","","","","","","","","","",""
"","html-keyboard-response","149","507673","0.0-8.0-3.14","zplwc7odzv","many_one","0","indirect_first","0","in08ar17","0","23","1","1","3","1","In der Zeit, in der man sich die Bilder und die Zeichen anschauen soll, habe ich mich selbst dabei erwischt, wie ich mehr auf die Bilder geachtet habe als auf die Zeichen. Manche zeichen konnte ich gar nicht anschauen, da sie so schnell wieder weg waren","0","1","0","611","","","<img src = 'targets/mask.png' width = '100%;'>","68","pos","CS","CS","1","category1/CS9.png","targets/44.png","0","indirect","14",""
"","html-keyboard-response","150","509200","0.0-8.0-0.15","zplwc7odzv","many_one","0","indirect_first","0","in08ar17","0","23","1","1","3","1","In der Zeit, in der man sich die Bilder und die Zeichen anschauen soll, habe ich mich selbst dabei erwischt, wie ich mehr auf die Bilder geachtet habe als auf die Zeichen. Manche zeichen konnte ich gar nicht anschauen, da sie so schnell wieder weg waren","0","1","0","null","","","<div style=""font-size:60px;"">+</div>","null","","","","","","","","","",""
"","html-keyboard-response","151","509301","0.0-8.0-1.15","zplwc7odzv","many_one","0","indirect_first","0","in08ar17","0","23","1","1","3","1","In der Zeit, in der man sich die Bilder und die Zeichen anschauen soll, habe ich mich selbst dabei erwischt, wie ich mehr auf die Bilder geachtet habe als auf die Zeichen. Manche zeichen konnte ich gar nicht anschauen, da sie so schnell wieder weg waren","0","1","0","null","","","<img src = 'category4/CS10.png' width = '100%;'>","null","","","","","","","","","",""
"","html-keyboard-response","152","509581","0.0-8.0-2.15","zplwc7odzv","many_one","0","indirect_first","0","in08ar17","0","23","1","1","3","1","In der Zeit, in der man sich die Bilder und die Zeichen anschauen soll, habe ich mich selbst dabei erwischt, wie ich mehr auf die Bilder geachtet habe als auf die Zeichen. Manche zeichen konnte ich gar nicht anschauen, da sie so schnell wieder weg waren","0","1","0","null","","","<img src = 'targets/36.png' width = '100%;'>","null","","","","","","","","","",""
"","html-keyboard-response","153","512424","0.0-8.0-3.15","zplwc7odzv","many_one","0","indirect_first","0","in08ar17","0","23","1","1","3","1","In der Zeit, in der man sich die Bilder und die Zeichen anschauen soll, habe ich mich selbst dabei erwischt, wie ich mehr auf die Bilder geachtet habe als auf die Zeichen. Manche zeichen konnte ich gar nicht anschauen, da sie so schnell wieder weg waren","0","1","0","2843","","","<img src = 'targets/mask.png' width = '100%;'>","75","neg","GS","GSold","4","category4/CS10.png","targets/36.png","1","indirect","15",""
"","html-keyboard-response","154","513961","0.0-8.0-0.16","zplwc7odzv","many_one","0","indirect_first","0","in08ar17","0","23","1","1","3","1","In der Zeit, in der man sich die Bilder und die Zeichen anschauen soll, habe ich mich selbst dabei erwischt, wie ich mehr auf die Bilder geachtet habe als auf die Zeichen. Manche zeichen konnte ich gar nicht anschauen, da sie so schnell wieder weg waren","0","1","0","null","","","<div style=""font-size:60px;"">+</div>","null","","","","","","","","","",""
"","html-keyboard-response","155","514061","0.0-8.0-1.16","zplwc7odzv","many_one","0","indirect_first","0","in08ar17","0","23","1","1","3","1","In der Zeit, in der man sich die Bilder und die Zeichen anschauen soll, habe ich mich selbst dabei erwischt, wie ich mehr auf die Bilder geachtet habe als auf die Zeichen. Manche zeichen konnte ich gar nicht anschauen, da sie so schnell wieder weg waren","0","1","0","null","","","<img src = 'category4/CS9.png' width = '100%;'>","null","","","","","","","","","",""
"","html-keyboard-response","156","514341","0.0-8.0-2.16","zplwc7odzv","many_one","0","indirect_first","0","in08ar17","0","23","1","1","3","1","In der Zeit, in der man sich die Bilder und die Zeichen anschauen soll, habe ich mich selbst dabei erwischt, wie ich mehr auf die Bilder geachtet habe als auf die Zeichen. Manche zeichen konnte ich gar nicht anschauen, da sie so schnell wieder weg waren","0","1","0","null","","","<img src = 'targets/4.png' width = '100%;'>","null","","","","","","","","","",""
"","html-keyboard-response","157","518161","0.0-8.0-3.16","zplwc7odzv","many_one","0","indirect_first","0","in08ar17","0","23","1","1","3","1","In der Zeit, in der man sich die Bilder und die Zeichen anschauen soll, habe ich mich selbst dabei erwischt, wie ich mehr auf die Bilder geachtet habe als auf die Zeichen. Manche zeichen konnte ich gar nicht anschauen, da sie so schnell wieder weg waren","0","1","0","3818","","","<img src = 'targets/mask.png' width = '100%;'>","68","neg","CS","CS","4","category4/CS9.png","targets/4.png","0","indirect","16",""
"","html-keyboard-response","158","519701","0.0-8.0-0.17","zplwc7odzv","many_one","0","indirect_first","0","in08ar17","0","23","1","1","3","1","In der Zeit, in der man sich die Bilder und die Zeichen anschauen soll, habe ich mich selbst dabei erwischt, wie ich mehr auf die Bilder geachtet habe als auf die Zeichen. Manche zeichen konnte ich gar nicht anschauen, da sie so schnell wieder weg waren","0","1","0","null","","","<div style=""font-size:60px;"">+</div>","null","","","","","","","","","",""
"","html-keyboard-response","159","519801","0.0-8.0-1.17","zplwc7odzv","many_one","0","indirect_first","0","in08ar17","0","23","1","1","3","1","In der Zeit, in der man sich die Bilder und die Zeichen anschauen soll, habe ich mich selbst dabei erwischt, wie ich mehr auf die Bilder geachtet habe als auf die Zeichen. Manche zeichen konnte ich gar nicht anschauen, da sie so schnell wieder weg waren","0","1","0","null","","","<img src = 'category3/CS5.png' width = '100%;'>","null","","","","","","","","","",""
"","html-keyboard-response","160","520081","0.0-8.0-2.17","zplwc7odzv","many_one","0","indirect_first","0","in08ar17","0","23","1","1","3","1","In der Zeit, in der man sich die Bilder und die Zeichen anschauen soll, habe ich mich selbst dabei erwischt, wie ich mehr auf die Bilder geachtet habe als auf die Zeichen. Manche zeichen konnte ich gar nicht anschauen, da sie so schnell wieder weg waren","0","1","0","null","","","<img src = 'targets/25.png' width = '100%;'>","null","","","","","","","","","",""
"","html-keyboard-response","161","521057","0.0-8.0-3.17","zplwc7odzv","many_one","0","indirect_first","0","in08ar17","0","23","1","1","3","1","In der Zeit, in der man sich die Bilder und die Zeichen anschauen soll, habe ich mich selbst dabei erwischt, wie ich mehr auf die Bilder geachtet habe als auf die Zeichen. Manche zeichen konnte ich gar nicht anschauen, da sie so schnell wieder weg waren","0","1","0","975","","","<img src = 'targets/mask.png' width = '100%;'>","75","neg","CS","CS","3","category3/CS5.png","targets/25.png","1","indirect","17",""
"","html-keyboard-response","162","522581","0.0-8.0-0.18","zplwc7odzv","many_one","0","indirect_first","0","in08ar17","0","23","1","1","3","1","In der Zeit, in der man sich die Bilder und die Zeichen anschauen soll, habe ich mich selbst dabei erwischt, wie ich mehr auf die Bilder geachtet habe als auf die Zeichen. Manche zeichen konnte ich gar nicht anschauen, da sie so schnell wieder weg waren","0","1","0","null","","","<div style=""font-size:60px;"">+</div>","null","","","","","","","","","",""
"","html-keyboard-response","163","522681","0.0-8.0-1.18","zplwc7odzv","many_one","0","indirect_first","0","in08ar17","0","23","1","1","3","1","In der Zeit, in der man sich die Bilder und die Zeichen anschauen soll, habe ich mich selbst dabei erwischt, wie ich mehr auf die Bilder geachtet habe als auf die Zeichen. Manche zeichen konnte ich gar nicht anschauen, da sie so schnell wieder weg waren","0","1","0","null","","","<img src = 'category1/CS3.png' width = '100%;'>","null","","","","","","","","","",""
"","html-keyboard-response","164","522961","0.0-8.0-2.18","zplwc7odzv","many_one","0","indirect_first","0","in08ar17","0","23","1","1","3","1","In der Zeit, in der man sich die Bilder und die Zeichen anschauen soll, habe ich mich selbst dabei erwischt, wie ich mehr auf die Bilder geachtet habe als auf die Zeichen. Manche zeichen konnte ich gar nicht anschauen, da sie so schnell wieder weg waren","0","1","0","null","","","<img src = 'targets/43.png' width = '100%;'>","null","","","","","","","","","",""
"","html-keyboard-response","165","524361","0.0-8.0-3.18","zplwc7odzv","many_one","0","indirect_first","0","in08ar17","0","23","1","1","3","1","In der Zeit, in der man sich die Bilder und die Zeichen anschauen soll, habe ich mich selbst dabei erwischt, wie ich mehr auf die Bilder geachtet habe als auf die Zeichen. Manche zeichen konnte ich gar nicht anschauen, da sie so schnell wieder weg waren","0","1","0","1399","","","<img src = 'targets/mask.png' width = '100%;'>","75","pos","CS","CS","1","category1/CS3.png","targets/43.png","1","indirect","18",""
"","html-keyboard-response","166","525901","0.0-8.0-0.19","zplwc7odzv","many_one","0","indirect_first","0","in08ar17","0","23","1","1","3","1","In der Zeit, in der man sich die Bilder und die Zeichen anschauen soll, habe ich mich selbst dabei erwischt, wie ich mehr auf die Bilder geachtet habe als auf die Zeichen. Manche zeichen konnte ich gar nicht anschauen, da sie so schnell wieder weg waren","0","1","0","null","","","<div style=""font-size:60px;"">+</div>","null","","","","","","","","","",""
"","html-keyboard-response","167","526001","0.0-8.0-1.19","zplwc7odzv","many_one","0","indirect_first","0","in08ar17","0","23","1","1","3","1","In der Zeit, in der man sich die Bilder und die Zeichen anschauen soll, habe ich mich selbst dabei erwischt, wie ich mehr auf die Bilder geachtet habe als auf die Zeichen. Manche zeichen konnte ich gar nicht anschauen, da sie so schnell wieder weg waren","0","1","0","null","","","<img src = 'category3/CS3.png' width = '100%;'>","null","","","","","","","","","",""
"","html-keyboard-response","168","526281","0.0-8.0-2.19","zplwc7odzv","many_one","0","indirect_first","0","in08ar17","0","23","1","1","3","1","In der Zeit, in der man sich die Bilder und die Zeichen anschauen soll, habe ich mich selbst dabei erwischt, wie ich mehr auf die Bilder geachtet habe als auf die Zeichen. Manche zeichen konnte ich gar nicht anschauen, da sie so schnell wieder weg waren","0","1","0","null","","","<img src = 'targets/48.png' width = '100%;'>","null","","","","","","","","","",""
