"success","trial_type","trial_index","time_elapsed","internal_node_id","subject","condition","condition_code","measure","measure_code","codeword","gender","age","education","chinese","fach","handedness","comment","hinschauen","ablenkung","gewissenhaft","rt","url","responses","stimulus","key_press","val","type","type_specific","category","cs_selected","target","indirect","task","nr_pres","response"
"true","fullscreen","0","5783","0.0-0.0","dxq9vxa50z","one_one","1","indirect_first","0","er04rt13","0","21","1","1","3","2","","0","1","0","","","","","","","","","","","","","","",""
"","external-html","1","16477","0.0-1.0","dxq9vxa50z","one_one","1","indirect_first","0","er04rt13","0","21","1","1","3","2","","0","1","0","10577","text/information.html","","","","","","","","","","","","",""
"","external-html","2","36499","0.0-2.0","dxq9vxa50z","one_one","1","indirect_first","0","er04rt13","0","21","1","1","3","2","","0","1","0","19880","text/consent.html","","","","","","","","","","","","",""
"","survey-html-form","3","97419","0.0-3.0","dxq9vxa50z","one_one","1","indirect_first","0","er04rt13","0","21","1","1","3","2","","0","1","0","60907","","{""codeword_enter"":""er04rt13""}","","","","","","","","","","","",""
"","survey-html-form","4","117734","0.0-4.0","dxq9vxa50z","one_one","1","indirect_first","0","er04rt13","0","21","1","1","3","2","","0","1","0","20302","","{""age"":""21"",""education"":""1"",""subject"":""3"",""gender"":""0"",""handedness"":""2"",""chinese"":""1""}","","","","","","","","","","","",""
"","survey-html-form","5","131740","0.0-5.0","dxq9vxa50z","one_one","1","indirect_first","0","er04rt13","0","21","1","1","3","2","","0","1","0","13999","","{}","","","","","","","","","","","",""
"","html-keyboard-response","6","135763","0.0-6.0-0.0-0.0","dxq9vxa50z","one_one","1","indirect_first","0","er04rt13","0","21","1","1","3","2","","0","1","0","null","","","<div class = 'row'><div class = 'column'><img src = 'uspos/5700.bmp' width = '100%;'></div><div class = 'column'><img src = 'category4/CS9.png' width = '70%;'></div></div>","null","pos","CS","CS","4","category4/CS9.png","","","","",""
"","html-keyboard-response","7","138301","0.0-6.0-0.0-0.1","dxq9vxa50z","one_one","1","indirect_first","0","er04rt13","0","21","1","1","3","2","","0","1","0","null","","","<div class = 'row'><div class = 'column'><img src = 'usneg/9041.bmp' width = '100%;'></div><div class = 'column'><img src = 'category3/CS10.png' width = '70%;'></div></div>","null","neg","CS","CS","3","category3/CS10.png","","","","",""
"","html-keyboard-response","8","140833","0.0-6.0-0.0-0.2","dxq9vxa50z","one_one","1","indirect_first","0","er04rt13","0","21","1","1","3","2","","0","1","0","null","","","<div class = 'row'><div class = 'column'><img src = 'uspos/8190.bmp' width = '100%;'></div><div class = 'column'><img src = 'category1/CS4.png' width = '70%;'></div></div>","null","pos","CS","CS","1","category1/CS4.png","","","","",""
"","html-keyboard-response","9","143372","0.0-6.0-0.0-0.3","dxq9vxa50z","one_one","1","indirect_first","0","er04rt13","0","21","1","1","3","2","","0","1","0","null","","","<div class = 'row'><div class = 'column'><img src = 'uspos/5700.bmp' width = '100%;'></div><div class = 'column'><img src = 'category4/CS9.png' width = '70%;'></div></div>","null","pos","CS","CS","4","category4/CS9.png","","","","",""
"","html-keyboard-response","10","145903","0.0-6.0-0.0-0.4","dxq9vxa50z","one_one","1","indirect_first","0","er04rt13","0","21","1","1","3","2","","0","1","0","null","","","<div class = 'row'><div class = 'column'><img src = 'uspos/8190.bmp' width = '100%;'></div><div class = 'column'><img src = 'category1/CS4.png' width = '70%;'></div></div>","null","pos","CS","CS","1","category1/CS4.png","","","","",""
"","html-keyboard-response","11","148443","0.0-6.0-0.0-0.5","dxq9vxa50z","one_one","1","indirect_first","0","er04rt13","0","21","1","1","3","2","","0","1","0","null","","","<div class = 'row'><div class = 'column'><img src = 'usneg/6838.bmp' width = '100%;'></div><div class = 'column'><img src = 'category2/CS3.png' width = '70%;'></div></div>","null","neg","CS","CS","2","category2/CS3.png","","","","",""
"","html-keyboard-response","12","150982","0.0-6.0-0.0-0.6","dxq9vxa50z","one_one","1","indirect_first","0","er04rt13","0","21","1","1","3","2","","0","1","0","null","","","<div class = 'row'><div class = 'column'><img src = 'category1/CS4.png' width = '70%;'></div><div class = 'column'><img src = 'uspos/8190.bmp' width = '100%;'></div></div>","null","pos","CS","CS","1","category1/CS4.png","","","","",""
"","html-keyboard-response","13","153511","0.0-6.0-0.0-0.7","dxq9vxa50z","one_one","1","indirect_first","0","er04rt13","0","21","1","1","3","2","","0","1","0","null","","","<div class = 'row'><div class = 'column'><img src = 'category2/CS3.png' width = '70%;'></div><div class = 'column'><img src = 'usneg/6838.bmp' width = '100%;'></div></div>","null","neg","CS","CS","2","category2/CS3.png","","","","",""
"","html-keyboard-response","14","156042","0.0-6.0-0.0-0.8","dxq9vxa50z","one_one","1","indirect_first","0","er04rt13","0","21","1","1","3","2","","0","1","0","null","","","<div class = 'row'><div class = 'column'><img src = 'usneg/9041.bmp' width = '100%;'></div><div class = 'column'><img src = 'category3/CS10.png' width = '70%;'></div></div>","null","neg","CS","CS","3","category3/CS10.png","","","","",""
"","html-keyboard-response","15","158581","0.0-6.0-0.0-0.9","dxq9vxa50z","one_one","1","indirect_first","0","er04rt13","0","21","1","1","3","2","","0","1","0","null","","","<div class = 'row'><div class = 'column'><img src = 'uspos/8190.bmp' width = '100%;'></div><div class = 'column'><img src = 'category1/CS4.png' width = '70%;'></div></div>","null","pos","CS","CS","1","category1/CS4.png","","","","",""
"","html-keyboard-response","16","161111","0.0-6.0-0.0-0.10","dxq9vxa50z","one_one","1","indirect_first","0","er04rt13","0","21","1","1","3","2","","0","1","0","null","","","<div class = 'row'><div class = 'column'><img src = 'usneg/6838.bmp' width = '100%;'></div><div class = 'column'><img src = 'category2/CS3.png' width = '70%;'></div></div>","null","neg","CS","CS","2","category2/CS3.png","","","","",""
"","html-keyboard-response","17","163641","0.0-6.0-0.0-0.11","dxq9vxa50z","one_one","1","indirect_first","0","er04rt13","0","21","1","1","3","2","","0","1","0","null","","","<div class = 'row'><div class = 'column'><img src = 'usneg/9041.bmp' width = '100%;'></div><div class = 'column'><img src = 'category3/CS10.png' width = '70%;'></div></div>","null","neg","CS","CS","3","category3/CS10.png","","","","",""
"","html-keyboard-response","18","166181","0.0-6.0-0.0-0.12","dxq9vxa50z","one_one","1","indirect_first","0","er04rt13","0","21","1","1","3","2","","0","1","0","null","","","<div class = 'row'><div class = 'column'><img src = 'usneg/6838.bmp' width = '100%;'></div><div class = 'column'><img src = 'category2/CS3.png' width = '70%;'></div></div>","null","neg","CS","CS","2","category2/CS3.png","","","","",""
"","html-keyboard-response","19","168712","0.0-6.0-0.0-0.13","dxq9vxa50z","one_one","1","indirect_first","0","er04rt13","0","21","1","1","3","2","","0","1","0","null","","","<div class = 'row'><div class = 'column'><img src = 'category4/CS9.png' width = '70%;'></div><div class = 'column'><img src = 'uspos/5700.bmp' width = '100%;'></div></div>","null","pos","CS","CS","4","category4/CS9.png","","","","",""
"","html-keyboard-response","20","171251","0.0-6.0-0.0-0.14","dxq9vxa50z","one_one","1","indirect_first","0","er04rt13","0","21","1","1","3","2","","0","1","0","null","","","<div class = 'row'><div class = 'column'><img src = 'category1/CS4.png' width = '70%;'></div><div class = 'column'><img src = 'uspos/8190.bmp' width = '100%;'></div></div>","null","pos","CS","CS","1","category1/CS4.png","","","","",""
"","html-keyboard-response","21","173771","0.0-6.0-0.0-0.15","dxq9vxa50z","one_one","1","indirect_first","0","er04rt13","0","21","1","1","3","2","","0","1","0","null","","","<div class = 'row'><div class = 'column'><img src = 'category3/CS10.png' width = '70%;'></div><div class = 'column'><img src = 'usneg/9041.bmp' width = '100%;'></div></div>","null","neg","CS","CS","3","category3/CS10.png","","","","",""
"","html-keyboard-response","22","176302","0.0-6.0-0.0-0.16","dxq9vxa50z","one_one","1","indirect_first","0","er04rt13","0","21","1","1","3","2","","0","1","0","null","","","<div class = 'row'><div class = 'column'><img src = 'uspos/5700.bmp' width = '100%;'></div><div class = 'column'><img src = 'category4/CS9.png' width = '70%;'></div></div>","null","pos","CS","CS","4","category4/CS9.png","","","","",""
"","html-keyboard-response","23","178842","0.0-6.0-0.0-0.17","dxq9vxa50z","one_one","1","indirect_first","0","er04rt13","0","21","1","1","3","2","","0","1","0","null","","","<div class = 'row'><div class = 'column'><img src = 'category3/CS10.png' width = '70%;'></div><div class = 'column'><img src = 'usneg/9041.bmp' width = '100%;'></div></div>","null","neg","CS","CS","3","category3/CS10.png","","","","",""
"","html-keyboard-response","24","181382","0.0-6.0-0.0-0.18","dxq9vxa50z","one_one","1","indirect_first","0","er04rt13","0","21","1","1","3","2","","0","1","0","null","","","<div class = 'row'><div class = 'column'><img src = 'category4/CS9.png' width = '70%;'></div><div class = 'column'><img src = 'uspos/5700.bmp' width = '100%;'></div></div>","null","pos","CS","CS","4","category4/CS9.png","","","","",""
"","html-keyboard-response","25","183912","0.0-6.0-0.0-0.19","dxq9vxa50z","one_one","1","indirect_first","0","er04rt13","0","21","1","1","3","2","","0","1","0","null","","","<div class = 'row'><div class = 'column'><img src = 'usneg/6838.bmp' width = '100%;'></div><div class = 'column'><img src = 'category2/CS3.png' width = '70%;'></div></div>","null","neg","CS","CS","2","category2/CS3.png","","","","",""
"","survey-html-form","26","189051","0.0-6.0-1.0","dxq9vxa50z","one_one","1","indirect_first","0","er04rt13","0","21","1","1","3","2","","0","1","0","4619","","{}","","","","","","","","","","","",""
"","html-keyboard-response","27","193083","0.0-6.0-2.0-0.0","dxq9vxa50z","one_one","1","indirect_first","0","er04rt13","0","21","1","1","3","2","","0","1","0","null","","","<div class = 'row'><div class = 'column'><img src = 'uspos/8190.bmp' width = '100%;'></div><div class = 'column'><img src = 'category1/CS4.png' width = '70%;'></div></div>","null","pos","CS","CS","1","category1/CS4.png","","","","",""
"","html-keyboard-response","28","195621","0.0-6.0-2.0-0.1","dxq9vxa50z","one_one","1","indirect_first","0","er04rt13","0","21","1","1","3","2","","0","1","0","null","","","<div class = 'row'><div class = 'column'><img src = 'category3/CS10.png' width = '70%;'></div><div class = 'column'><img src = 'usneg/9041.bmp' width = '100%;'></div></div>","null","neg","CS","CS","3","category3/CS10.png","","","","",""
"","html-keyboard-response","29","198162","0.0-6.0-2.0-0.2","dxq9vxa50z","one_one","1","indirect_first","0","er04rt13","0","21","1","1","3","2","","0","1","0","null","","","<div class = 'row'><div class = 'column'><img src = 'category4/CS9.png' width = '70%;'></div><div class = 'column'><img src = 'uspos/5700.bmp' width = '100%;'></div></div>","null","pos","CS","CS","4","category4/CS9.png","","","","",""
"","html-keyboard-response","30","200701","0.0-6.0-2.0-0.3","dxq9vxa50z","one_one","1","indirect_first","0","er04rt13","0","21","1","1","3","2","","0","1","0","null","","","<div class = 'row'><div class = 'column'><img src = 'category3/CS10.png' width = '70%;'></div><div class = 'column'><img src = 'usneg/9041.bmp' width = '100%;'></div></div>","null","neg","CS","CS","3","category3/CS10.png","","","","",""
"","html-keyboard-response","31","203232","0.0-6.0-2.0-0.4","dxq9vxa50z","one_one","1","indirect_first","0","er04rt13","0","21","1","1","3","2","","0","1","0","null","","","<div class = 'row'><div class = 'column'><img src = 'usneg/6838.bmp' width = '100%;'></div><div class = 'column'><img src = 'category2/CS3.png' width = '70%;'></div></div>","null","neg","CS","CS","2","category2/CS3.png","","","","",""
"","html-keyboard-response","32","205772","0.0-6.0-2.0-0.5","dxq9vxa50z","one_one","1","indirect_first","0","er04rt13","0","21","1","1","3","2","","0","1","0","null","","","<div class = 'row'><div class = 'column'><img src = 'category1/CS4.png' width = '70%;'></div><div class = 'column'><img src = 'uspos/8190.bmp' width = '100%;'></div></div>","null","pos","CS","CS","1","category1/CS4.png","","","","",""
"","html-keyboard-response","33","208302","0.0-6.0-2.0-0.6","dxq9vxa50z","one_one","1","indirect_first","0","er04rt13","0","21","1","1","3","2","","0","1","0","null","","","<div class = 'row'><div class = 'column'><img src = 'category4/CS9.png' width = '70%;'></div><div class = 'column'><img src = 'uspos/5700.bmp' width = '100%;'></div></div>","null","pos","CS","CS","4","category4/CS9.png","","","","",""
"","html-keyboard-response","34","210842","0.0-6.0-2.0-0.7","dxq9vxa50z","one_one","1","indirect_first","0","er04rt13","0","21","1","1","3","2","","0","1","0","null","","","<div class = 'row'><div class = 'column'><img src = 'uspos/8190.bmp' width = '100%;'></div><div class = 'column'><img src = 'category1/CS4.png' width = '70%;'></div></div>","null","pos","CS","CS","1","category1/CS4.png","","","","",""
"","html-keyboard-response","35","213372","0.0-6.0-2.0-0.8","dxq9vxa50z","one_one","1","indirect_first","0","er04rt13","0","21","1","1","3","2","","0","1","0","null","","","<div class = 'row'><div class = 'column'><img src = 'uspos/5700.bmp' width = '100%;'></div><div class = 'column'><img src = 'category4/CS9.png' width = '70%;'></div></div>","null","pos","CS","CS","4","category4/CS9.png","","","","",""
"","html-keyboard-response","36","215891","0.0-6.0-2.0-0.9","dxq9vxa50z","one_one","1","indirect_first","0","er04rt13","0","21","1","1","3","2","","0","1","0","null","","","<div class = 'row'><div class = 'column'><img src = 'category3/CS10.png' width = '70%;'></div><div class = 'column'><img src = 'usneg/9041.bmp' width = '100%;'></div></div>","null","neg","CS","CS","3","category3/CS10.png","","","","",""
"","html-keyboard-response","37","218421","0.0-6.0-2.0-0.10","dxq9vxa50z","one_one","1","indirect_first","0","er04rt13","0","21","1","1","3","2","","0","1","0","null","","","<div class = 'row'><div class = 'column'><img src = 'uspos/5700.bmp' width = '100%;'></div><div class = 'column'><img src = 'category4/CS9.png' width = '70%;'></div></div>","null","pos","CS","CS","4","category4/CS9.png","","","","",""
"","html-keyboard-response","38","220951","0.0-6.0-2.0-0.11","dxq9vxa50z","one_one","1","indirect_first","0","er04rt13","0","21","1","1","3","2","","0","1","0","null","","","<div class = 'row'><div class = 'column'><img src = 'category2/CS3.png' width = '70%;'></div><div class = 'column'><img src = 'usneg/6838.bmp' width = '100%;'></div></div>","null","neg","CS","CS","2","category2/CS3.png","","","","",""
"","html-keyboard-response","39","223481","0.0-6.0-2.0-0.12","dxq9vxa50z","one_one","1","indirect_first","0","er04rt13","0","21","1","1","3","2","","0","1","0","null","","","<div class = 'row'><div class = 'column'><img src = 'category3/CS10.png' width = '70%;'></div><div class = 'column'><img src = 'usneg/9041.bmp' width = '100%;'></div></div>","null","neg","CS","CS","3","category3/CS10.png","","","","",""
"","html-keyboard-response","40","226021","0.0-6.0-2.0-0.13","dxq9vxa50z","one_one","1","indirect_first","0","er04rt13","0","21","1","1","3","2","","0","1","0","null","","","<div class = 'row'><div class = 'column'><img src = 'category2/CS3.png' width = '70%;'></div><div class = 'column'><img src = 'usneg/6838.bmp' width = '100%;'></div></div>","null","neg","CS","CS","2","category2/CS3.png","","","","",""
"","html-keyboard-response","41","228561","0.0-6.0-2.0-0.14","dxq9vxa50z","one_one","1","indirect_first","0","er04rt13","0","21","1","1","3","2","","0","1","0","null","","","<div class = 'row'><div class = 'column'><img src = 'category1/CS4.png' width = '70%;'></div><div class = 'column'><img src = 'uspos/8190.bmp' width = '100%;'></div></div>","null","pos","CS","CS","1","category1/CS4.png","","","","",""
"","html-keyboard-response","42","231092","0.0-6.0-2.0-0.15","dxq9vxa50z","one_one","1","indirect_first","0","er04rt13","0","21","1","1","3","2","","0","1","0","null","","","<div class = 'row'><div class = 'column'><img src = 'uspos/5700.bmp' width = '100%;'></div><div class = 'column'><img src = 'category4/CS9.png' width = '70%;'></div></div>","null","pos","CS","CS","4","category4/CS9.png","","","","",""
"","html-keyboard-response","43","233631","0.0-6.0-2.0-0.16","dxq9vxa50z","one_one","1","indirect_first","0","er04rt13","0","21","1","1","3","2","","0","1","0","null","","","<div class = 'row'><div class = 'column'><img src = 'uspos/8190.bmp' width = '100%;'></div><div class = 'column'><img src = 'category1/CS4.png' width = '70%;'></div></div>","null","pos","CS","CS","1","category1/CS4.png","","","","",""
"","html-keyboard-response","44","236166","0.0-6.0-2.0-0.17","dxq9vxa50z","one_one","1","indirect_first","0","er04rt13","0","21","1","1","3","2","","0","1","0","null","","","<div class = 'row'><div class = 'column'><img src = 'category2/CS3.png' width = '70%;'></div><div class = 'column'><img src = 'usneg/6838.bmp' width = '100%;'></div></div>","null","neg","CS","CS","2","category2/CS3.png","","","","",""
"","html-keyboard-response","45","238691","0.0-6.0-2.0-0.18","dxq9vxa50z","one_one","1","indirect_first","0","er04rt13","0","21","1","1","3","2","","0","1","0","null","","","<div class = 'row'><div class = 'column'><img src = 'category3/CS10.png' width = '70%;'></div><div class = 'column'><img src = 'usneg/9041.bmp' width = '100%;'></div></div>","null","neg","CS","CS","3","category3/CS10.png","","","","",""
"","html-keyboard-response","46","241211","0.0-6.0-2.0-0.19","dxq9vxa50z","one_one","1","indirect_first","0","er04rt13","0","21","1","1","3","2","","0","1","0","null","","","<div class = 'row'><div class = 'column'><img src = 'usneg/6838.bmp' width = '100%;'></div><div class = 'column'><img src = 'category2/CS3.png' width = '70%;'></div></div>","null","neg","CS","CS","2","category2/CS3.png","","","","",""
"","survey-html-form","47","243127","0.0-6.0-3.0","dxq9vxa50z","one_one","1","indirect_first","0","er04rt13","0","21","1","1","3","2","","0","1","0","1396","","{}","","","","","","","","","","","",""
"","html-keyboard-response","48","247162","0.0-6.0-4.0-0.0","dxq9vxa50z","one_one","1","indirect_first","0","er04rt13","0","21","1","1","3","2","","0","1","0","null","","","<div class = 'row'><div class = 'column'><img src = 'category4/CS9.png' width = '70%;'></div><div class = 'column'><img src = 'uspos/5700.bmp' width = '100%;'></div></div>","null","pos","CS","CS","4","category4/CS9.png","","","","",""
"","html-keyboard-response","49","249692","0.0-6.0-4.0-0.1","dxq9vxa50z","one_one","1","indirect_first","0","er04rt13","0","21","1","1","3","2","","0","1","0","null","","","<div class = 'row'><div class = 'column'><img src = 'category2/CS3.png' width = '70%;'></div><div class = 'column'><img src = 'usneg/6838.bmp' width = '100%;'></div></div>","null","neg","CS","CS","2","category2/CS3.png","","","","",""
"","html-keyboard-response","50","252232","0.0-6.0-4.0-0.2","dxq9vxa50z","one_one","1","indirect_first","0","er04rt13","0","21","1","1","3","2","","0","1","0","null","","","<div class = 'row'><div class = 'column'><img src = 'usneg/9041.bmp' width = '100%;'></div><div class = 'column'><img src = 'category3/CS10.png' width = '70%;'></div></div>","null","neg","CS","CS","3","category3/CS10.png","","","","",""
"","html-keyboard-response","51","254761","0.0-6.0-4.0-0.3","dxq9vxa50z","one_one","1","indirect_first","0","er04rt13","0","21","1","1","3","2","","0","1","0","null","","","<div class = 'row'><div class = 'column'><img src = 'category2/CS3.png' width = '70%;'></div><div class = 'column'><img src = 'usneg/6838.bmp' width = '100%;'></div></div>","null","neg","CS","CS","2","category2/CS3.png","","","","",""
"","html-keyboard-response","52","257281","0.0-6.0-4.0-0.4","dxq9vxa50z","one_one","1","indirect_first","0","er04rt13","0","21","1","1","3","2","","0","1","0","null","","","<div class = 'row'><div class = 'column'><img src = 'category3/CS10.png' width = '70%;'></div><div class = 'column'><img src = 'usneg/9041.bmp' width = '100%;'></div></div>","null","neg","CS","CS","3","category3/CS10.png","","","","",""
"","html-keyboard-response","53","259811","0.0-6.0-4.0-0.5","dxq9vxa50z","one_one","1","indirect_first","0","er04rt13","0","21","1","1","3","2","","0","1","0","null","","","<div class = 'row'><div class = 'column'><img src = 'category4/CS9.png' width = '70%;'></div><div class = 'column'><img src = 'uspos/5700.bmp' width = '100%;'></div></div>","null","pos","CS","CS","4","category4/CS9.png","","","","",""
"","html-keyboard-response","54","262331","0.0-6.0-4.0-0.6","dxq9vxa50z","one_one","1","indirect_first","0","er04rt13","0","21","1","1","3","2","","0","1","0","null","","","<div class = 'row'><div class = 'column'><img src = 'usneg/9041.bmp' width = '100%;'></div><div class = 'column'><img src = 'category3/CS10.png' width = '70%;'></div></div>","null","neg","CS","CS","3","category3/CS10.png","","","","",""
"","html-keyboard-response","55","264861","0.0-6.0-4.0-0.7","dxq9vxa50z","one_one","1","indirect_first","0","er04rt13","0","21","1","1","3","2","","0","1","0","null","","","<div class = 'row'><div class = 'column'><img src = 'uspos/8190.bmp' width = '100%;'></div><div class = 'column'><img src = 'category1/CS4.png' width = '70%;'></div></div>","null","pos","CS","CS","1","category1/CS4.png","","","","",""
"","html-keyboard-response","56","267381","0.0-6.0-4.0-0.8","dxq9vxa50z","one_one","1","indirect_first","0","er04rt13","0","21","1","1","3","2","","0","1","0","null","","","<div class = 'row'><div class = 'column'><img src = 'uspos/5700.bmp' width = '100%;'></div><div class = 'column'><img src = 'category4/CS9.png' width = '70%;'></div></div>","null","pos","CS","CS","4","category4/CS9.png","","","","",""
"","html-keyboard-response","57","269901","0.0-6.0-4.0-0.9","dxq9vxa50z","one_one","1","indirect_first","0","er04rt13","0","21","1","1","3","2","","0","1","0","null","","","<div class = 'row'><div class = 'column'><img src = 'category2/CS3.png' width = '70%;'></div><div class = 'column'><img src = 'usneg/6838.bmp' width = '100%;'></div></div>","null","neg","CS","CS","2","category2/CS3.png","","","","",""
"","html-keyboard-response","58","272431","0.0-6.0-4.0-0.10","dxq9vxa50z","one_one","1","indirect_first","0","er04rt13","0","21","1","1","3","2","","0","1","0","null","","","<div class = 'row'><div class = 'column'><img src = 'uspos/8190.bmp' width = '100%;'></div><div class = 'column'><img src = 'category1/CS4.png' width = '70%;'></div></div>","null","pos","CS","CS","1","category1/CS4.png","","","","",""
"","html-keyboard-response","59","274961","0.0-6.0-4.0-0.11","dxq9vxa50z","one_one","1","indirect_first","0","er04rt13","0","21","1","1","3","2","","0","1","0","null","","","<div class = 'row'><div class = 'column'><img src = 'category4/CS9.png' width = '70%;'></div><div class = 'column'><img src = 'uspos/5700.bmp' width = '100%;'></div></div>","null","pos","CS","CS","4","category4/CS9.png","","","","",""
"","html-keyboard-response","60","277491","0.0-6.0-4.0-0.12","dxq9vxa50z","one_one","1","indirect_first","0","er04rt13","0","21","1","1","3","2","","0","1","0","null","","","<div class = 'row'><div class = 'column'><img src = 'category3/CS10.png' width = '70%;'></div><div class = 'column'><img src = 'usneg/9041.bmp' width = '100%;'></div></div>","null","neg","CS","CS","3","category3/CS10.png","","","","",""
"","html-keyboard-response","61","280031","0.0-6.0-4.0-0.13","dxq9vxa50z","one_one","1","indirect_first","0","er04rt13","0","21","1","1","3","2","","0","1","0","null","","","<div class = 'row'><div class = 'column'><img src = 'category1/CS4.png' width = '70%;'></div><div class = 'column'><img src = 'uspos/8190.bmp' width = '100%;'></div></div>","null","pos","CS","CS","1","category1/CS4.png","","","","",""
"","html-keyboard-response","62","282561","0.0-6.0-4.0-0.14","dxq9vxa50z","one_one","1","indirect_first","0","er04rt13","0","21","1","1","3","2","","0","1","0","null","","","<div class = 'row'><div class = 'column'><img src = 'usneg/9041.bmp' width = '100%;'></div><div class = 'column'><img src = 'category3/CS10.png' width = '70%;'></div></div>","null","neg","CS","CS","3","category3/CS10.png","","","","",""
"","html-keyboard-response","63","285102","0.0-6.0-4.0-0.15","dxq9vxa50z","one_one","1","indirect_first","0","er04rt13","0","21","1","1","3","2","","0","1","0","null","","","<div class = 'row'><div class = 'column'><img src = 'uspos/8190.bmp' width = '100%;'></div><div class = 'column'><img src = 'category1/CS4.png' width = '70%;'></div></div>","null","pos","CS","CS","1","category1/CS4.png","","","","",""
"","html-keyboard-response","64","287642","0.0-6.0-4.0-0.16","dxq9vxa50z","one_one","1","indirect_first","0","er04rt13","0","21","1","1","3","2","","0","1","0","null","","","<div class = 'row'><div class = 'column'><img src = 'category2/CS3.png' width = '70%;'></div><div class = 'column'><img src = 'usneg/6838.bmp' width = '100%;'></div></div>","null","neg","CS","CS","2","category2/CS3.png","","","","",""
"","html-keyboard-response","65","290161","0.0-6.0-4.0-0.17","dxq9vxa50z","one_one","1","indirect_first","0","er04rt13","0","21","1","1","3","2","","0","1","0","null","","","<div class = 'row'><div class = 'column'><img src = 'uspos/8190.bmp' width = '100%;'></div><div class = 'column'><img src = 'category1/CS4.png' width = '70%;'></div></div>","null","pos","CS","CS","1","category1/CS4.png","","","","",""
"","html-keyboard-response","66","292681","0.0-6.0-4.0-0.18","dxq9vxa50z","one_one","1","indirect_first","0","er04rt13","0","21","1","1","3","2","","0","1","0","null","","","<div class = 'row'><div class = 'column'><img src = 'usneg/6838.bmp' width = '100%;'></div><div class = 'column'><img src = 'category2/CS3.png' width = '70%;'></div></div>","null","neg","CS","CS","2","category2/CS3.png","","","","",""
"","html-keyboard-response","67","295221","0.0-6.0-4.0-0.19","dxq9vxa50z","one_one","1","indirect_first","0","er04rt13","0","21","1","1","3","2","","0","1","0","null","","","<div class = 'row'><div class = 'column'><img src = 'uspos/5700.bmp' width = '100%;'></div><div class = 'column'><img src = 'category4/CS9.png' width = '70%;'></div></div>","null","pos","CS","CS","4","category4/CS9.png","","","","",""
"","survey-html-form","68","296878","0.0-6.0-5.0","dxq9vxa50z","one_one","1","indirect_first","0","er04rt13","0","21","1","1","3","2","","0","1","0","1137","","{}","","","","","","","","","","","",""
"","html-keyboard-response","69","300901","0.0-6.0-6.0-0.0","dxq9vxa50z","one_one","1","indirect_first","0","er04rt13","0","21","1","1","3","2","","0","1","0","null","","","<div class = 'row'><div class = 'column'><img src = 'usneg/6838.bmp' width = '100%;'></div><div class = 'column'><img src = 'category2/CS3.png' width = '70%;'></div></div>","null","neg","CS","CS","2","category2/CS3.png","","","","",""
"","html-keyboard-response","70","303430","0.0-6.0-6.0-0.1","dxq9vxa50z","one_one","1","indirect_first","0","er04rt13","0","21","1","1","3","2","","0","1","0","null","","","<div class = 'row'><div class = 'column'><img src = 'uspos/8190.bmp' width = '100%;'></div><div class = 'column'><img src = 'category1/CS4.png' width = '70%;'></div></div>","null","pos","CS","CS","1","category1/CS4.png","","","","",""
"","html-keyboard-response","71","305971","0.0-6.0-6.0-0.2","dxq9vxa50z","one_one","1","indirect_first","0","er04rt13","0","21","1","1","3","2","","0","1","0","null","","","<div class = 'row'><div class = 'column'><img src = 'uspos/5700.bmp' width = '100%;'></div><div class = 'column'><img src = 'category4/CS9.png' width = '70%;'></div></div>","null","pos","CS","CS","4","category4/CS9.png","","","","",""
"","html-keyboard-response","72","308491","0.0-6.0-6.0-0.3","dxq9vxa50z","one_one","1","indirect_first","0","er04rt13","0","21","1","1","3","2","","0","1","0","null","","","<div class = 'row'><div class = 'column'><img src = 'category3/CS10.png' width = '70%;'></div><div class = 'column'><img src = 'usneg/9041.bmp' width = '100%;'></div></div>","null","neg","CS","CS","3","category3/CS10.png","","","","",""
"","html-keyboard-response","73","311021","0.0-6.0-6.0-0.4","dxq9vxa50z","one_one","1","indirect_first","0","er04rt13","0","21","1","1","3","2","","0","1","0","null","","","<div class = 'row'><div class = 'column'><img src = 'category2/CS3.png' width = '70%;'></div><div class = 'column'><img src = 'usneg/6838.bmp' width = '100%;'></div></div>","null","neg","CS","CS","2","category2/CS3.png","","","","",""
"","html-keyboard-response","74","313560","0.0-6.0-6.0-0.5","dxq9vxa50z","one_one","1","indirect_first","0","er04rt13","0","21","1","1","3","2","","0","1","0","null","","","<div class = 'row'><div class = 'column'><img src = 'usneg/9041.bmp' width = '100%;'></div><div class = 'column'><img src = 'category3/CS10.png' width = '70%;'></div></div>","null","neg","CS","CS","3","category3/CS10.png","","","","",""
"","html-keyboard-response","75","316091","0.0-6.0-6.0-0.6","dxq9vxa50z","one_one","1","indirect_first","0","er04rt13","0","21","1","1","3","2","","0","1","0","null","","","<div class = 'row'><div class = 'column'><img src = 'uspos/8190.bmp' width = '100%;'></div><div class = 'column'><img src = 'category1/CS4.png' width = '70%;'></div></div>","null","pos","CS","CS","1","category1/CS4.png","","","","",""
"","html-keyboard-response","76","318622","0.0-6.0-6.0-0.7","dxq9vxa50z","one_one","1","indirect_first","0","er04rt13","0","21","1","1","3","2","","0","1","0","null","","","<div class = 'row'><div class = 'column'><img src = 'category4/CS9.png' width = '70%;'></div><div class = 'column'><img src = 'uspos/5700.bmp' width = '100%;'></div></div>","null","pos","CS","CS","4","category4/CS9.png","","","","",""
"","html-keyboard-response","77","321161","0.0-6.0-6.0-0.8","dxq9vxa50z","one_one","1","indirect_first","0","er04rt13","0","21","1","1","3","2","","0","1","0","null","","","<div class = 'row'><div class = 'column'><img src = 'category2/CS3.png' width = '70%;'></div><div class = 'column'><img src = 'usneg/6838.bmp' width = '100%;'></div></div>","null","neg","CS","CS","2","category2/CS3.png","","","","",""
"","html-keyboard-response","78","323701","0.0-6.0-6.0-0.9","dxq9vxa50z","one_one","1","indirect_first","0","er04rt13","0","21","1","1","3","2","","0","1","0","null","","","<div class = 'row'><div class = 'column'><img src = 'uspos/8190.bmp' width = '100%;'></div><div class = 'column'><img src = 'category1/CS4.png' width = '70%;'></div></div>","null","pos","CS","CS","1","category1/CS4.png","","","","",""
"","html-keyboard-response","79","326241","0.0-6.0-6.0-0.10","dxq9vxa50z","one_one","1","indirect_first","0","er04rt13","0","21","1","1","3","2","","0","1","0","null","","","<div class = 'row'><div class = 'column'><img src = 'category2/CS3.png' width = '70%;'></div><div class = 'column'><img src = 'usneg/6838.bmp' width = '100%;'></div></div>","null","neg","CS","CS","2","category2/CS3.png","","","","",""
"","html-keyboard-response","80","328771","0.0-6.0-6.0-0.11","dxq9vxa50z","one_one","1","indirect_first","0","er04rt13","0","21","1","1","3","2","","0","1","0","null","","","<div class = 'row'><div class = 'column'><img src = 'usneg/9041.bmp' width = '100%;'></div><div class = 'column'><img src = 'category3/CS10.png' width = '70%;'></div></div>","null","neg","CS","CS","3","category3/CS10.png","","","","",""
"","html-keyboard-response","81","331311","0.0-6.0-6.0-0.12","dxq9vxa50z","one_one","1","indirect_first","0","er04rt13","0","21","1","1","3","2","","0","1","0","null","","","<div class = 'row'><div class = 'column'><img src = 'category2/CS3.png' width = '70%;'></div><div class = 'column'><img src = 'usneg/6838.bmp' width = '100%;'></div></div>","null","neg","CS","CS","2","category2/CS3.png","","","","",""
"","html-keyboard-response","82","333842","0.0-6.0-6.0-0.13","dxq9vxa50z","one_one","1","indirect_first","0","er04rt13","0","21","1","1","3","2","","0","1","0","null","","","<div class = 'row'><div class = 'column'><img src = 'category4/CS9.png' width = '70%;'></div><div class = 'column'><img src = 'uspos/5700.bmp' width = '100%;'></div></div>","null","pos","CS","CS","4","category4/CS9.png","","","","",""
"","html-keyboard-response","83","336381","0.0-6.0-6.0-0.14","dxq9vxa50z","one_one","1","indirect_first","0","er04rt13","0","21","1","1","3","2","","0","1","0","null","","","<div class = 'row'><div class = 'column'><img src = 'usneg/9041.bmp' width = '100%;'></div><div class = 'column'><img src = 'category3/CS10.png' width = '70%;'></div></div>","null","neg","CS","CS","3","category3/CS10.png","","","","",""
"","html-keyboard-response","84","338901","0.0-6.0-6.0-0.15","dxq9vxa50z","one_one","1","indirect_first","0","er04rt13","0","21","1","1","3","2","","0","1","0","null","","","<div class = 'row'><div class = 'column'><img src = 'uspos/8190.bmp' width = '100%;'></div><div class = 'column'><img src = 'category1/CS4.png' width = '70%;'></div></div>","null","pos","CS","CS","1","category1/CS4.png","","","","",""
"","html-keyboard-response","85","341431","0.0-6.0-6.0-0.16","dxq9vxa50z","one_one","1","indirect_first","0","er04rt13","0","21","1","1","3","2","","0","1","0","null","","","<div class = 'row'><div class = 'column'><img src = 'uspos/5700.bmp' width = '100%;'></div><div class = 'column'><img src = 'category4/CS9.png' width = '70%;'></div></div>","null","pos","CS","CS","4","category4/CS9.png","","","","",""
"","html-keyboard-response","86","343962","0.0-6.0-6.0-0.17","dxq9vxa50z","one_one","1","indirect_first","0","er04rt13","0","21","1","1","3","2","","0","1","0","null","","","<div class = 'row'><div class = 'column'><img src = 'usneg/9041.bmp' width = '100%;'></div><div class = 'column'><img src = 'category3/CS10.png' width = '70%;'></div></div>","null","neg","CS","CS","3","category3/CS10.png","","","","",""
"","html-keyboard-response","87","346501","0.0-6.0-6.0-0.18","dxq9vxa50z","one_one","1","indirect_first","0","er04rt13","0","21","1","1","3","2","","0","1","0","null","","","<div class = 'row'><div class = 'column'><img src = 'uspos/8190.bmp' width = '100%;'></div><div class = 'column'><img src = 'category1/CS4.png' width = '70%;'></div></div>","null","pos","CS","CS","1","category1/CS4.png","","","","",""
"","html-keyboard-response","88","349041","0.0-6.0-6.0-0.19","dxq9vxa50z","one_one","1","indirect_first","0","er04rt13","0","21","1","1","3","2","","0","1","0","null","","","<div class = 'row'><div class = 'column'><img src = 'uspos/5700.bmp' width = '100%;'></div><div class = 'column'><img src = 'category4/CS9.png' width = '70%;'></div></div>","null","pos","CS","CS","4","category4/CS9.png","","","","",""
"","html-keyboard-response","89","380299","0.0-7.0","dxq9vxa50z","one_one","1","indirect_first","0","er04rt13","0","21","1","1","3","2","","0","1","0","30734","","","<p>Sie sehen nun die chinesischen Zeichen nur ganz kurz. Danach sehen Sie die jeweilige Aussprache der Zeichen als Silbe auf dem Bildschrim. Ihre Aufgabe ist es, für jede Silbe anzugeben, ob diese etwas angenehmes, oder unangenehmes bedeuten könnte. Verlassen Sie sich hier vor allem auf Ihre Intuition.<br><br>Die Zeichen werden nur zur Orientierung dargestellt, beachten Sie sie deshalb nicht. Konzentrieren Sie sich vor allem auf die Silben. <br>Reagieren Sie mit folgenden zwei Tasten: <br><br><b>'D' </b> wenn die Silbe etwas <b>unangenehmes</b> bedeuten könnte. <br><b>'K'</b> wenn die Silbe etwas <b>angenehmes</b> bedeuten könnte. <br><br>Bitte legen Sie nun den Zeigefinger der linken Hand auf die Taste 'D' und den Zeigefinger der rechten Hand auf die Taste 'K'. <br>Reagieren Sie auf jede Silbe so schnell wie möglich. Uns interessiert Ihre spontane Reaktion. <br> <br> <br>Drücken Sie 'D' oder 'K', um die nächste Aufgabe zu starten. </p>","68","","","","","","","","","",""
"","html-keyboard-response","90","383318","0.0-8.0-0.0","dxq9vxa50z","one_one","1","indirect_first","0","er04rt13","0","21","1","1","3","2","","0","1","0","null","","","<div style=""font-size:60px;"">+</div>","null","","","","","","","","","",""
"","html-keyboard-response","91","383420","0.0-8.0-1.0","dxq9vxa50z","one_one","1","indirect_first","0","er04rt13","0","21","1","1","3","2","","0","1","0","null","","","<img src = 'category3/CS10.png' width = '100%;'>","null","","","","","","","","","",""
"","html-keyboard-response","92","383701","0.0-8.0-2.0","dxq9vxa50z","one_one","1","indirect_first","0","er04rt13","0","21","1","1","3","2","","0","1","0","null","","","<img src = 'targets/29.png' width = '100%;'>","null","","","","","","","","","",""
"","html-keyboard-response","93","389333","0.0-8.0-3.0","dxq9vxa50z","one_one","1","indirect_first","0","er04rt13","0","21","1","1","3","2","","0","1","0","5628","","","<img src = 'targets/mask.png' width = '100%;'>","75","neg","CS","CS","3","category3/CS10.png","targets/29.png","1","indirect","0",""
"","html-keyboard-response","94","390862","0.0-8.0-0.1","dxq9vxa50z","one_one","1","indirect_first","0","er04rt13","0","21","1","1","3","2","","0","1","0","null","","","<div style=""font-size:60px;"">+</div>","null","","","","","","","","","",""
"","html-keyboard-response","95","390962","0.0-8.0-1.1","dxq9vxa50z","one_one","1","indirect_first","0","er04rt13","0","21","1","1","3","2","","0","1","0","null","","","<img src = 'category1/CS4.png' width = '100%;'>","null","","","","","","","","","",""
"","html-keyboard-response","96","391239","0.0-8.0-2.1","dxq9vxa50z","one_one","1","indirect_first","0","er04rt13","0","21","1","1","3","2","","0","1","0","null","","","<img src = 'targets/22.png' width = '100%;'>","null","","","","","","","","","",""
"","html-keyboard-response","97","397898","0.0-8.0-3.1","dxq9vxa50z","one_one","1","indirect_first","0","er04rt13","0","21","1","1","3","2","","0","1","0","6656","","","<img src = 'targets/mask.png' width = '100%;'>","68","pos","CS","CS","1","category1/CS4.png","targets/22.png","0","indirect","1",""
"","html-keyboard-response","98","399401","0.0-8.0-0.2","dxq9vxa50z","one_one","1","indirect_first","0","er04rt13","0","21","1","1","3","2","","0","1","0","null","","","<div style=""font-size:60px;"">+</div>","null","","","","","","","","","",""
"","html-keyboard-response","99","399501","0.0-8.0-1.2","dxq9vxa50z","one_one","1","indirect_first","0","er04rt13","0","21","1","1","3","2","","0","1","0","null","","","<img src = 'category2/CS7.png' width = '100%;'>","null","","","","","","","","","",""
"","html-keyboard-response","100","399782","0.0-8.0-2.2","dxq9vxa50z","one_one","1","indirect_first","0","er04rt13","0","21","1","1","3","2","","0","1","0","null","","","<img src = 'targets/31.png' width = '100%;'>","null","","","","","","","","","",""
"","html-keyboard-response","101","402186","0.0-8.0-3.2","dxq9vxa50z","one_one","1","indirect_first","0","er04rt13","0","21","1","1","3","2","","0","1","0","2401","","","<img src = 'targets/mask.png' width = '100%;'>","75","neg","GS","GSold","2","category2/CS7.png","targets/31.png","1","indirect","2",""
"","html-keyboard-response","102","403721","0.0-8.0-0.3","dxq9vxa50z","one_one","1","indirect_first","0","er04rt13","0","21","1","1","3","2","","0","1","0","null","","","<div style=""font-size:60px;"">+</div>","null","","","","","","","","","",""
"","html-keyboard-response","103","403822","0.0-8.0-1.3","dxq9vxa50z","one_one","1","indirect_first","0","er04rt13","0","21","1","1","3","2","","0","1","0","null","","","<img src = 'category4/CS2.png' width = '100%;'>","null","","","","","","","","","",""
"","html-keyboard-response","104","404101","0.0-8.0-2.3","dxq9vxa50z","one_one","1","indirect_first","0","er04rt13","0","21","1","1","3","2","","0","1","0","null","","","<img src = 'targets/17.png' width = '100%;'>","null","","","","","","","","","",""
"","html-keyboard-response","105","406211","0.0-8.0-3.3","dxq9vxa50z","one_one","1","indirect_first","0","er04rt13","0","21","1","1","3","2","","0","1","0","2108","","","<img src = 'targets/mask.png' width = '100%;'>","75","pos","GS","GSold","4","category4/CS2.png","targets/17.png","1","indirect","3",""
"","html-keyboard-response","106","407742","0.0-8.0-0.4","dxq9vxa50z","one_one","1","indirect_first","0","er04rt13","0","21","1","1","3","2","","0","1","0","null","","","<div style=""font-size:60px;"">+</div>","null","","","","","","","","","",""
"","html-keyboard-response","107","407842","0.0-8.0-1.4","dxq9vxa50z","one_one","1","indirect_first","0","er04rt13","0","21","1","1","3","2","","0","1","0","null","","","<img src = 'category2/CS3.png' width = '100%;'>","null","","","","","","","","","",""
"","html-keyboard-response","108","408122","0.0-8.0-2.4","dxq9vxa50z","one_one","1","indirect_first","0","er04rt13","0","21","1","1","3","2","","0","1","0","null","","","<img src = 'targets/36.png' width = '100%;'>","null","","","","","","","","","",""
"","html-keyboard-response","109","410567","0.0-8.0-3.4","dxq9vxa50z","one_one","1","indirect_first","0","er04rt13","0","21","1","1","3","2","","0","1","0","2441","","","<img src = 'targets/mask.png' width = '100%;'>","75","neg","CS","CS","2","category2/CS3.png","targets/36.png","1","indirect","4",""
"","html-keyboard-response","110","412081","0.0-8.0-0.5","dxq9vxa50z","one_one","1","indirect_first","0","er04rt13","0","21","1","1","3","2","","0","1","0","null","","","<div style=""font-size:60px;"">+</div>","null","","","","","","","","","",""
"","html-keyboard-response","111","412181","0.0-8.0-1.5","dxq9vxa50z","one_one","1","indirect_first","0","er04rt13","0","21","1","1","3","2","","0","1","0","null","","","<img src = 'category4/CS4.png' width = '100%;'>","null","","","","","","","","","",""
"","html-keyboard-response","112","412462","0.0-8.0-2.5","dxq9vxa50z","one_one","1","indirect_first","0","er04rt13","0","21","1","1","3","2","","0","1","0","null","","","<img src = 'targets/24.png' width = '100%;'>","null","","","","","","","","","",""
"","html-keyboard-response","113","415548","0.0-8.0-3.5","dxq9vxa50z","one_one","1","indirect_first","0","er04rt13","0","21","1","1","3","2","","0","1","0","3083","","","<img src = 'targets/mask.png' width = '100%;'>","75","pos","GS","GSold","4","category4/CS4.png","targets/24.png","1","indirect","5",""
"","html-keyboard-response","114","417071","0.0-8.0-0.6","dxq9vxa50z","one_one","1","indirect_first","0","er04rt13","0","21","1","1","3","2","","0","1","0","null","","","<div style=""font-size:60px;"">+</div>","null","","","","","","","","","",""
"","html-keyboard-response","115","417172","0.0-8.0-1.6","dxq9vxa50z","one_one","1","indirect_first","0","er04rt13","0","21","1","1","3","2","","0","1","0","null","","","<img src = 'category3/CS9.png' width = '100%;'>","null","","","","","","","","","",""
"","html-keyboard-response","116","417451","0.0-8.0-2.6","dxq9vxa50z","one_one","1","indirect_first","0","er04rt13","0","21","1","1","3","2","","0","1","0","null","","","<img src = 'targets/1.png' width = '100%;'>","null","","","","","","","","","",""
"","html-keyboard-response","117","419411","0.0-8.0-3.6","dxq9vxa50z","one_one","1","indirect_first","0","er04rt13","0","21","1","1","3","2","","0","1","0","1955","","","<img src = 'targets/mask.png' width = '100%;'>","75","neg","GS","GSold","3","category3/CS9.png","targets/1.png","1","indirect","6",""
"","html-keyboard-response","118","420952","0.0-8.0-0.7","dxq9vxa50z","one_one","1","indirect_first","0","er04rt13","0","21","1","1","3","2","","0","1","0","null","","","<div style=""font-size:60px;"">+</div>","null","","","","","","","","","",""
"","html-keyboard-response","119","421051","0.0-8.0-1.7","dxq9vxa50z","one_one","1","indirect_first","0","er04rt13","0","21","1","1","3","2","","0","1","0","null","","","<img src = 'category2/CS4.png' width = '100%;'>","null","","","","","","","","","",""
"","html-keyboard-response","120","421332","0.0-8.0-2.7","dxq9vxa50z","one_one","1","indirect_first","0","er04rt13","0","21","1","1","3","2","","0","1","0","null","","","<img src = 'targets/8.png' width = '100%;'>","null","","","","","","","","","",""
"","html-keyboard-response","121","423959","0.0-8.0-3.7","dxq9vxa50z","one_one","1","indirect_first","0","er04rt13","0","21","1","1","3","2","","0","1","0","2625","","","<img src = 'targets/mask.png' width = '100%;'>","75","neg","GS","GSold","2","category2/CS4.png","targets/8.png","1","indirect","7",""
"","html-keyboard-response","122","425491","0.0-8.0-0.8","dxq9vxa50z","one_one","1","indirect_first","0","er04rt13","0","21","1","1","3","2","","0","1","0","null","","","<div style=""font-size:60px;"">+</div>","null","","","","","","","","","",""
"","html-keyboard-response","123","425591","0.0-8.0-1.8","dxq9vxa50z","one_one","1","indirect_first","0","er04rt13","0","21","1","1","3","2","","0","1","0","null","","","<img src = 'category1/CS7.png' width = '100%;'>","null","","","","","","","","","",""
"","html-keyboard-response","124","425872","0.0-8.0-2.8","dxq9vxa50z","one_one","1","indirect_first","0","er04rt13","0","21","1","1","3","2","","0","1","0","null","","","<img src = 'targets/20.png' width = '100%;'>","null","","","","","","","","","",""
"","html-keyboard-response","125","428056","0.0-8.0-3.8","dxq9vxa50z","one_one","1","indirect_first","0","er04rt13","0","21","1","1","3","2","","0","1","0","2182","","","<img src = 'targets/mask.png' width = '100%;'>","68","pos","GS","GSold","1","category1/CS7.png","targets/20.png","0","indirect","8",""
"","html-keyboard-response","126","429581","0.0-8.0-0.9","dxq9vxa50z","one_one","1","indirect_first","0","er04rt13","0","21","1","1","3","2","","0","1","0","null","","","<div style=""font-size:60px;"">+</div>","null","","","","","","","","","",""
"","html-keyboard-response","127","429681","0.0-8.0-1.9","dxq9vxa50z","one_one","1","indirect_first","0","er04rt13","0","21","1","1","3","2","","0","1","0","null","","","<img src = 'category2/CS5.png' width = '100%;'>","null","","","","","","","","","",""
"","html-keyboard-response","128","429962","0.0-8.0-2.9","dxq9vxa50z","one_one","1","indirect_first","0","er04rt13","0","21","1","1","3","2","","0","1","0","null","","","<img src = 'targets/39.png' width = '100%;'>","null","","","","","","","","","",""
"","html-keyboard-response","129","431108","0.0-8.0-3.9","dxq9vxa50z","one_one","1","indirect_first","0","er04rt13","0","21","1","1","3","2","","0","1","0","1144","","","<img src = 'targets/mask.png' width = '100%;'>","75","neg","GS","GSold","2","category2/CS5.png","targets/39.png","1","indirect","9",""
"","html-keyboard-response","130","432640","0.0-8.0-0.10","dxq9vxa50z","one_one","1","indirect_first","0","er04rt13","0","21","1","1","3","2","","0","1","0","null","","","<div style=""font-size:60px;"">+</div>","null","","","","","","","","","",""
"","html-keyboard-response","131","432741","0.0-8.0-1.10","dxq9vxa50z","one_one","1","indirect_first","0","er04rt13","0","21","1","1","3","2","","0","1","0","null","","","<img src = 'category3/CS8.png' width = '100%;'>","null","","","","","","","","","",""
"","html-keyboard-response","132","433021","0.0-8.0-2.10","dxq9vxa50z","one_one","1","indirect_first","0","er04rt13","0","21","1","1","3","2","","0","1","0","null","","","<img src = 'targets/30.png' width = '100%;'>","null","","","","","","","","","",""
"","html-keyboard-response","133","433938","0.0-8.0-3.10","dxq9vxa50z","one_one","1","indirect_first","0","er04rt13","0","21","1","1","3","2","","0","1","0","916","","","<img src = 'targets/mask.png' width = '100%;'>","75","neg","GS","GSold","3","category3/CS8.png","targets/30.png","1","indirect","10",""
"","html-keyboard-response","134","435462","0.0-8.0-0.11","dxq9vxa50z","one_one","1","indirect_first","0","er04rt13","0","21","1","1","3","2","","0","1","0","null","","","<div style=""font-size:60px;"">+</div>","null","","","","","","","","","",""
"","html-keyboard-response","135","435562","0.0-8.0-1.11","dxq9vxa50z","one_one","1","indirect_first","0","er04rt13","0","21","1","1","3","2","","0","1","0","null","","","<img src = 'category4/CS9.png' width = '100%;'>","null","","","","","","","","","",""
"","html-keyboard-response","136","435842","0.0-8.0-2.11","dxq9vxa50z","one_one","1","indirect_first","0","er04rt13","0","21","1","1","3","2","","0","1","0","null","","","<img src = 'targets/5.png' width = '100%;'>","null","","","","","","","","","",""
"","html-keyboard-response","137","437150","0.0-8.0-3.11","dxq9vxa50z","one_one","1","indirect_first","0","er04rt13","0","21","1","1","3","2","","0","1","0","1306","","","<img src = 'targets/mask.png' width = '100%;'>","75","pos","CS","CS","4","category4/CS9.png","targets/5.png","1","indirect","11",""
"","html-keyboard-response","138","438681","0.0-8.0-0.12","dxq9vxa50z","one_one","1","indirect_first","0","er04rt13","0","21","1","1","3","2","","0","1","0","null","","","<div style=""font-size:60px;"">+</div>","null","","","","","","","","","",""
"","html-keyboard-response","139","438782","0.0-8.0-1.12","dxq9vxa50z","one_one","1","indirect_first","0","er04rt13","0","21","1","1","3","2","","0","1","0","null","","","<img src = 'category1/CS10.png' width = '100%;'>","null","","","","","","","","","",""
"","html-keyboard-response","140","439058","0.0-8.0-2.12","dxq9vxa50z","one_one","1","indirect_first","0","er04rt13","0","21","1","1","3","2","","0","1","0","null","","","<img src = 'targets/35.png' width = '100%;'>","null","","","","","","","","","",""
"","html-keyboard-response","141","440115","0.0-8.0-3.12","dxq9vxa50z","one_one","1","indirect_first","0","er04rt13","0","21","1","1","3","2","","0","1","0","1055","","","<img src = 'targets/mask.png' width = '100%;'>","75","pos","GS","GSold","1","category1/CS10.png","targets/35.png","1","indirect","12",""
"","html-keyboard-response","142","441641","0.0-8.0-0.13","dxq9vxa50z","one_one","1","indirect_first","0","er04rt13","0","21","1","1","3","2","","0","1","0","null","","","<div style=""font-size:60px;"">+</div>","null","","","","","","","","","",""
"","html-keyboard-response","143","441742","0.0-8.0-1.13","dxq9vxa50z","one_one","1","indirect_first","0","er04rt13","0","21","1","1","3","2","","0","1","0","null","","","<img src = 'category4/CS8.png' width = '100%;'>","null","","","","","","","","","",""
"","html-keyboard-response","144","442021","0.0-8.0-2.13","dxq9vxa50z","one_one","1","indirect_first","0","er04rt13","0","21","1","1","3","2","","0","1","0","null","","","<img src = 'targets/25.png' width = '100%;'>","null","","","","","","","","","",""
"","html-keyboard-response","145","443186","0.0-8.0-3.13","dxq9vxa50z","one_one","1","indirect_first","0","er04rt13","0","21","1","1","3","2","","0","1","0","1163","","","<img src = 'targets/mask.png' width = '100%;'>","68","pos","GS","GSold","4","category4/CS8.png","targets/25.png","0","indirect","13",""
"","html-keyboard-response","146","444721","0.0-8.0-0.14","dxq9vxa50z","one_one","1","indirect_first","0","er04rt13","0","21","1","1","3","2","","0","1","0","null","","","<div style=""font-size:60px;"">+</div>","null","","","","","","","","","",""
"","html-keyboard-response","147","444821","0.0-8.0-1.14","dxq9vxa50z","one_one","1","indirect_first","0","er04rt13","0","21","1","1","3","2","","0","1","0","null","","","<img src = 'category3/CS6.png' width = '100%;'>","null","","","","","","","","","",""
"","html-keyboard-response","148","445092","0.0-8.0-2.14","dxq9vxa50z","one_one","1","indirect_first","0","er04rt13","0","21","1","1","3","2","","0","1","0","null","","","<img src = 'targets/42.png' width = '100%;'>","null","","","","","","","","","",""
"","html-keyboard-response","149","446707","0.0-8.0-3.14","dxq9vxa50z","one_one","1","indirect_first","0","er04rt13","0","21","1","1","3","2","","0","1","0","1612","","","<img src = 'targets/mask.png' width = '100%;'>","68","neg","GS","GSold","3","category3/CS6.png","targets/42.png","0","indirect","14",""
"","html-keyboard-response","150","448231","0.0-8.0-0.15","dxq9vxa50z","one_one","1","indirect_first","0","er04rt13","0","21","1","1","3","2","","0","1","0","null","","","<div style=""font-size:60px;"">+</div>","null","","","","","","","","","",""
"","html-keyboard-response","151","448332","0.0-8.0-1.15","dxq9vxa50z","one_one","1","indirect_first","0","er04rt13","0","21","1","1","3","2","","0","1","0","null","","","<img src = 'category1/CS3.png' width = '100%;'>","null","","","","","","","","","",""
"","html-keyboard-response","152","448611","0.0-8.0-2.15","dxq9vxa50z","one_one","1","indirect_first","0","er04rt13","0","21","1","1","3","2","","0","1","0","null","","","<img src = 'targets/10.png' width = '100%;'>","null","","","","","","","","","",""
"","html-keyboard-response","153","449410","0.0-8.0-3.15","dxq9vxa50z","one_one","1","indirect_first","0","er04rt13","0","21","1","1","3","2","","0","1","0","799","","","<img src = 'targets/mask.png' width = '100%;'>","75","pos","GS","GSold","1","category1/CS3.png","targets/10.png","1","indirect","15",""
"","survey-html-form","154","452088","0.0-9.0","dxq9vxa50z","one_one","1","indirect_first","0","er04rt13","0","21","1","1","3","2","","0","1","0","2165","","{}","","","","","","","","","","","",""
"","html-keyboard-response","155","455121","0.0-10.0-0.0","dxq9vxa50z","one_one","1","indirect_first","0","er04rt13","0","21","1","1","3","2","","0","1","0","null","","","<div style=""font-size:60px;"">+</div>","null","","","","","","","","","",""
"","html-keyboard-response","156","455220","0.0-10.0-1.0","dxq9vxa50z","one_one","1","indirect_first","0","er04rt13","0","21","1","1","3","2","","0","1","0","null","","","<img src = 'category4/GS1.png' width = '100%;'>","null","","","","","","","","","",""
"","html-keyboard-response","157","455502","0.0-10.0-2.0","dxq9vxa50z","one_one","1","indirect_first","0","er04rt13","0","21","1","1","3","2","","0","1","0","null","","","<img src = 'targets/13.png' width = '100%;'>","null","","","","","","","","","",""
"","html-keyboard-response","158","456663","0.0-10.0-3.0","dxq9vxa50z","one_one","1","indirect_first","0","er04rt13","0","21","1","1","3","2","","0","1","0","1160","","","<img src = 'targets/mask.png' width = '100%;'>","68","pos","GS","GSnew","4","category4/GS1.png","targets/13.png","0","indirect","16",""
"","html-keyboard-response","159","458192","0.0-10.0-0.1","dxq9vxa50z","one_one","1","indirect_first","0","er04rt13","0","21","1","1","3","2","","0","1","0","null","","","<div style=""font-size:60px;"">+</div>","null","","","","","","","","","",""
"","html-keyboard-response","160","458291","0.0-10.0-1.1","dxq9vxa50z","one_one","1","indirect_first","0","er04rt13","0","21","1","1","3","2","","0","1","0","null","","","<img src = 'category3/GS3.png' width = '100%;'>","null","","","","","","","","","",""
"","html-keyboard-response","161","458572","0.0-10.0-2.1","dxq9vxa50z","one_one","1","indirect_first","0","er04rt13","0","21","1","1","3","2","","0","1","0","null","","","<img src = 'targets/23.png' width = '100%;'>","null","","","","","","","","","",""
"","html-keyboard-response","162","459503","0.0-10.0-3.1","dxq9vxa50z","one_one","1","indirect_first","0","er04rt13","0","21","1","1","3","2","","0","1","0","929","","","<img src = 'targets/mask.png' width = '100%;'>","68","neg","GS","GSnew","3","category3/GS3.png","targets/23.png","0","indirect","17",""
"","html-keyboard-response","163","461020","0.0-10.0-0.2","dxq9vxa50z","one_one","1","indirect_first","0","er04rt13","0","21","1","1","3","2","","0","1","0","null","","","<div style=""font-size:60px;"">+</div>","null","","","","","","","","","",""
"","html-keyboard-response","164","461121","0.0-10.0-1.2","dxq9vxa50z","one_one","1","indirect_first","0","er04rt13","0","21","1","1","3","2","","0","1","0","null","","","<img src = 'category2/GS2.png' width = '100%;'>","null","","","","","","","","","",""
"","html-keyboard-response","165","461397","0.0-10.0-2.2","dxq9vxa50z","one_one","1","indirect_first","0","er04rt13","0","21","1","1","3","2","","0","1","0","null","","","<img src = 'targets/16.png' width = '100%;'>","null","","","","","","","","","",""
"","html-keyboard-response","166","462996","0.0-10.0-3.2","dxq9vxa50z","one_one","1","indirect_first","0","er04rt13","0","21","1","1","3","2","","0","1","0","1599","","","<img src = 'targets/mask.png' width = '100%;'>","75","neg","GS","GSnew","2","category2/GS2.png","targets/16.png","1","indirect","18",""
"","html-keyboard-response","167","464521","0.0-10.0-0.3","dxq9vxa50z","one_one","1","indirect_first","0","er04rt13","0","21","1","1","3","2","","0","1","0","null","","","<div style=""font-size:60px;"">+</div>","null","","","","","","","","","",""
"","html-keyboard-response","168","464622","0.0-10.0-1.3","dxq9vxa50z","one_one","1","indirect_first","0","er04rt13","0","21","1","1","3","2","","0","1","0","null","","","<img src = 'category2/men.png' width = '100%;'>","null","","","","","","","","","",""
"","html-keyboard-response","169","464901","0.0-10.0-2.3","dxq9vxa50z","one_one","1","indirect_first","0","er04rt13","0","21","1","1","3","2","","0","1","0","null","","","<img src = 'targets/41.png' width = '100%;'>","null","","","","","","","","","",""
"","html-keyboard-response","170","507816","0.0-10.0-3.3","dxq9vxa50z","one_one","1","indirect_first","0","er04rt13","0","21","1","1","3","2","","0","1","0","42913","","","<img src = 'targets/mask.png' width = '100%;'>","75","neg","GS","abstract","2","category2/men.png","targets/41.png","1","indirect","19",""
"","html-keyboard-response","171","509351","0.0-10.0-0.4","dxq9vxa50z","one_one","1","indirect_first","0","er04rt13","0","21","1","1","3","2","","0","1","0","null","","","<div style=""font-size:60px;"">+</div>","null","","","","","","","","","",""
"","html-keyboard-response","172","509452","0.0-10.0-1.4","dxq9vxa50z","one_one","1","indirect_first","0","er04rt13","0","21","1","1","3","2","","0","1","0","null","","","<img src = 'category1/GS2.png' width = '100%;'>","null","","","","","","","","","",""
"","html-keyboard-response","173","509731","0.0-10.0-2.4","dxq9vxa50z","one_one","1","indirect_first","0","er04rt13","0","21","1","1","3","2","","0","1","0","null","","","<img src = 'targets/48.png' width = '100%;'>","null","","","","","","","","","",""
"","html-keyboard-response","174","510478","0.0-10.0-3.4","dxq9vxa50z","one_one","1","indirect_first","0","er04rt13","0","21","1","1","3","2","","0","1","0","745","","","<img src = 'targets/mask.png' width = '100%;'>","75","pos","GS","GSnew","1","category1/GS2.png","targets/48.png","1","indirect","20",""
"","html-keyboard-response","175","512001","0.0-10.0-0.5","dxq9vxa50z","one_one","1","indirect_first","0","er04rt13","0","21","1","1","3","2","","0","1","0","null","","","<div style=""font-size:60px;"">+</div>","null","","","","","","","","","",""
"","html-keyboard-response","176","512100","0.0-10.0-1.5","dxq9vxa50z","one_one","1","indirect_first","0","er04rt13","0","21","1","1","3","2","","0","1","0","null","","","<img src = 'category1/GS1.png' width = '100%;'>","null","","","","","","","","","",""
"","html-keyboard-response","177","512381","0.0-10.0-2.5","dxq9vxa50z","one_one","1","indirect_first","0","er04rt13","0","21","1","1","3","2","","0","1","0","null","","","<img src = 'targets/37.png' width = '100%;'>","null","","","","","","","","","",""
"","html-keyboard-response","178","513279","0.0-10.0-3.5","dxq9vxa50z","one_one","1","indirect_first","0","er04rt13","0","21","1","1","3","2","","0","1","0","896","","","<img src = 'targets/mask.png' width = '100%;'>","68","pos","GS","GSnew","1","category1/GS1.png","targets/37.png","0","indirect","21",""
"","html-keyboard-response","179","514791","0.0-10.0-0.6","dxq9vxa50z","one_one","1","indirect_first","0","er04rt13","0","21","1","1","3","2","","0","1","0","null","","","<div style=""font-size:60px;"">+</div>","null","","","","","","","","","",""
"","html-keyboard-response","180","514891","0.0-10.0-1.6","dxq9vxa50z","one_one","1","indirect_first","0","er04rt13","0","21","1","1","3","2","","0","1","0","null","","","<img src = 'category4/lin.png' width = '100%;'>","null","","","","","","","","","",""
"","html-keyboard-response","181","515171","0.0-10.0-2.6","dxq9vxa50z","one_one","1","indirect_first","0","er04rt13","0","21","1","1","3","2","","0","1","0","null","","","<img src = 'targets/6.png' width = '100%;'>","null","","","","","","","","","",""
"","html-keyboard-response","182","516110","0.0-10.0-3.6","dxq9vxa50z","one_one","1","indirect_first","0","er04rt13","0","21","1","1","3","2","","0","1","0","938","","","<img src = 'targets/mask.png' width = '100%;'>","75","pos","GS","abstract","4","category4/lin.png","targets/6.png","1","indirect","22",""
"","html-keyboard-response","183","517651","0.0-10.0-0.7","dxq9vxa50z","one_one","1","indirect_first","0","er04rt13","0","21","1","1","3","2","","0","1","0","null","","","<div style=""font-size:60px;"">+</div>","null","","","","","","","","","",""
"","html-keyboard-response","184","517750","0.0-10.0-1.7","dxq9vxa50z","one_one","1","indirect_first","0","er04rt13","0","21","1","1","3","2","","0","1","0","null","","","<img src = 'category2/GS3.png' width = '100%;'>","null","","","","","","","","","",""
"","html-keyboard-response","185","518031","0.0-10.0-2.7","dxq9vxa50z","one_one","1","indirect_first","0","er04rt13","0","21","1","1","3","2","","0","1","0","null","","","<img src = 'targets/12.png' width = '100%;'>","null","","","","","","","","","",""
"","html-keyboard-response","186","518827","0.0-10.0-3.7","dxq9vxa50z","one_one","1","indirect_first","0","er04rt13","0","21","1","1","3","2","","0","1","0","793","","","<img src = 'targets/mask.png' width = '100%;'>","75","neg","GS","GSnew","2","category2/GS3.png","targets/12.png","1","indirect","23",""
"","html-keyboard-response","187","520361","0.0-10.0-0.8","dxq9vxa50z","one_one","1","indirect_first","0","er04rt13","0","21","1","1","3","2","","0","1","0","null","","","<div style=""font-size:60px;"">+</div>","null","","","","","","","","","",""
"","html-keyboard-response","188","520461","0.0-10.0-1.8","dxq9vxa50z","one_one","1","indirect_first","0","er04rt13","0","21","1","1","3","2","","0","1","0","null","","","<img src = 'category4/GS2.png' width = '100%;'>","null","","","","","","","","","",""
"","html-keyboard-response","189","520741","0.0-10.0-2.8","dxq9vxa50z","one_one","1","indirect_first","0","er04rt13","0","21","1","1","3","2","","0","1","0","null","","","<img src = 'targets/47.png' width = '100%;'>","null","","","","","","","","","",""
"","html-keyboard-response","190","521805","0.0-10.0-3.8","dxq9vxa50z","one_one","1","indirect_first","0","er04rt13","0","21","1","1","3","2","","0","1","0","1062","","","<img src = 'targets/mask.png' width = '100%;'>","68","pos","GS","GSnew","4","category4/GS2.png","targets/47.png","0","indirect","24",""
"","html-keyboard-response","191","523341","0.0-10.0-0.9","dxq9vxa50z","one_one","1","indirect_first","0","er04rt13","0","21","1","1","3","2","","0","1","0","null","","","<div style=""font-size:60px;"">+</div>","null","","","","","","","","","",""
"","html-keyboard-response","192","523441","0.0-10.0-1.9","dxq9vxa50z","one_one","1","indirect_first","0","er04rt13","0","21","1","1","3","2","","0","1","0","null","","","<img src = 'category1/ma.png' width = '100%;'>","null","","","","","","","","","",""
"","html-keyboard-response","193","523711","0.0-10.0-2.9","dxq9vxa50z","one_one","1","indirect_first","0","er04rt13","0","21","1","1","3","2","","0","1","0","null","","","<img src = 'targets/2.png' width = '100%;'>","null","","","","","","","","","",""
"","html-keyboard-response","194","524575","0.0-10.0-3.9","dxq9vxa50z","one_one","1","indirect_first","0","er04rt13","0","21","1","1","3","2","","0","1","0","859","","","<img src = 'targets/mask.png' width = '100%;'>","75","pos","GS","abstract","1","category1/ma.png","targets/2.png","1","indirect","25",""
"","html-keyboard-response","195","526111","0.0-10.0-0.10","dxq9vxa50z","one_one","1","indirect_first","0","er04rt13","0","21","1","1","3","2","","0","1","0","null","","","<div style=""font-size:60px;"">+</div>","null","","","","","","","","","",""
"","html-keyboard-response","196","526211","0.0-10.0-1.10","dxq9vxa50z","one_one","1","indirect_first","0","er04rt13","0","21","1","1","3","2","","0","1","0","null","","","<img src = 'category4/GS3.png' width = '100%;'>","null","","","","","","","","","",""
"","html-keyboard-response","197","526491","0.0-10.0-2.10","dxq9vxa50z","one_one","1","indirect_first","0","er04rt13","0","21","1","1","3","2","","0","1","0","null","","","<img src = 'targets/33.png' width = '100%;'>","null","","","","","","","","","",""
"","html-keyboard-response","198","527147","0.0-10.0-3.10","dxq9vxa50z","one_one","1","indirect_first","0","er04rt13","0","21","1","1","3","2","","0","1","0","654","","","<img src = 'targets/mask.png' width = '100%;'>","75","pos","GS","GSnew","4","category4/GS3.png","targets/33.png","1","indirect","26",""
"","html-keyboard-response","199","528651","0.0-10.0-0.11","dxq9vxa50z","one_one","1","indirect_first","0","er04rt13","0","21","1","1","3","2","","0","1","0","null","","","<div style=""font-size:60px;"">+</div>","null","","","","","","","","","",""
"","html-keyboard-response","200","528752","0.0-10.0-1.11","dxq9vxa50z","one_one","1","indirect_first","0","er04rt13","0","21","1","1","3","2","","0","1","0","null","","","<img src = 'category2/GS1.png' width = '100%;'>","null","","","","","","","","","",""
"","html-keyboard-response","201","529031","0.0-10.0-2.11","dxq9vxa50z","one_one","1","indirect_first","0","er04rt13","0","21","1","1","3","2","","0","1","0","null","","","<img src = 'targets/26.png' width = '100%;'>","null","","","","","","","","","",""
"","html-keyboard-response","202","529756","0.0-10.0-3.11","dxq9vxa50z","one_one","1","indirect_first","0","er04rt13","0","21","1","1","3","2","","0","1","0","722","","","<img src = 'targets/mask.png' width = '100%;'>","68","neg","GS","GSnew","2","category2/GS1.png","targets/26.png","0","indirect","27",""
"","html-keyboard-response","203","531291","0.0-10.0-0.12","dxq9vxa50z","one_one","1","indirect_first","0","er04rt13","0","21","1","1","3","2","","0","1","0","null","","","<div style=""font-size:60px;"">+</div>","null","","","","","","","","","",""
"","html-keyboard-response","204","531391","0.0-10.0-1.12","dxq9vxa50z","one_one","1","indirect_first","0","er04rt13","0","21","1","1","3","2","","0","1","0","null","","","<img src = 'category3/GS1.png' width = '100%;'>","null","","","","","","","","","",""
"","html-keyboard-response","205","531671","0.0-10.0-2.12","dxq9vxa50z","one_one","1","indirect_first","0","er04rt13","0","21","1","1","3","2","","0","1","0","null","","","<img src = 'targets/14.png' width = '100%;'>","null","","","","","","","","","",""
"","html-keyboard-response","206","532485","0.0-10.0-3.12","dxq9vxa50z","one_one","1","indirect_first","0","er04rt13","0","21","1","1","3","2","","0","1","0","812","","","<img src = 'targets/mask.png' width = '100%;'>","75","neg","GS","GSnew","3","category3/GS1.png","targets/14.png","1","indirect","28",""
"","html-keyboard-response","207","533992","0.0-10.0-0.13","dxq9vxa50z","one_one","1","indirect_first","0","er04rt13","0","21","1","1","3","2","","0","1","0","null","","","<div style=""font-size:60px;"">+</div>","null","","","","","","","","","",""
"","html-keyboard-response","208","534092","0.0-10.0-1.13","dxq9vxa50z","one_one","1","indirect_first","0","er04rt13","0","21","1","1","3","2","","0","1","0","null","","","<img src = 'category3/wang.png' width = '100%;'>","null","","","","","","","","","",""
"","html-keyboard-response","209","534372","0.0-10.0-2.13","dxq9vxa50z","one_one","1","indirect_first","0","er04rt13","0","21","1","1","3","2","","0","1","0","null","","","<img src = 'targets/15.png' width = '100%;'>","null","","","","","","","","","",""
"","html-keyboard-response","210","535336","0.0-10.0-3.13","dxq9vxa50z","one_one","1","indirect_first","0","er04rt13","0","21","1","1","3","2","","0","1","0","962","","","<img src = 'targets/mask.png' width = '100%;'>","68","neg","GS","abstract","3","category3/wang.png","targets/15.png","0","indirect","29",""
"","html-keyboard-response","211","536871","0.0-10.0-0.14","dxq9vxa50z","one_one","1","indirect_first","0","er04rt13","0","21","1","1","3","2","","0","1","0","null","","","<div style=""font-size:60px;"">+</div>","null","","","","","","","","","",""
"","html-keyboard-response","212","536972","0.0-10.0-1.14","dxq9vxa50z","one_one","1","indirect_first","0","er04rt13","0","21","1","1","3","2","","0","1","0","null","","","<img src = 'category3/GS2.png' width = '100%;'>","null","","","","","","","","","",""
"","html-keyboard-response","213","537251","0.0-10.0-2.14","dxq9vxa50z","one_one","1","indirect_first","0","er04rt13","0","21","1","1","3","2","","0","1","0","null","","","<img src = 'targets/18.png' width = '100%;'>","null","","","","","","","","","",""
"","html-keyboard-response","214","538032","0.0-10.0-3.14","dxq9vxa50z","one_one","1","indirect_first","0","er04rt13","0","21","1","1","3","2","","0","1","0","777","","","<img src = 'targets/mask.png' width = '100%;'>","68","neg","GS","GSnew","3","category3/GS2.png","targets/18.png","0","indirect","30",""
"","html-keyboard-response","215","539570","0.0-10.0-0.15","dxq9vxa50z","one_one","1","indirect_first","0","er04rt13","0","21","1","1","3","2","","0","1","0","null","","","<div style=""font-size:60px;"">+</div>","null","","","","","","","","","",""
"","html-keyboard-response","216","539672","0.0-10.0-1.15","dxq9vxa50z","one_one","1","indirect_first","0","er04rt13","0","21","1","1","3","2","","0","1","0","null","","","<img src = 'category1/GS3.png' width = '100%;'>","null","","","","","","","","","",""
"","html-keyboard-response","217","539951","0.0-10.0-2.15","dxq9vxa50z","one_one","1","indirect_first","0","er04rt13","0","21","1","1","3","2","","0","1","0","null","","","<img src = 'targets/19.png' width = '100%;'>","null","","","","","","","","","",""
"","html-keyboard-response","218","542226","0.0-10.0-3.15","dxq9vxa50z","one_one","1","indirect_first","0","er04rt13","0","21","1","1","3","2","","0","1","0","2273","","","<img src = 'targets/mask.png' width = '100%;'>","75","pos","GS","GSnew","1","category1/GS3.png","targets/19.png","1","indirect","31",""
"","survey-html-form","219","551828","0.0-11.0","dxq9vxa50z","one_one","1","indirect_first","0","er04rt13","0","21","1","1","3","2","","0","1","0","9096","","{}","","","","","","","","","","","",""
"","image-slider-response","220","560687","0.0-12.0-0.0","dxq9vxa50z","one_one","1","indirect_first","0","er04rt13","0","21","1","1","3","2","","0","1","0","6823","","","","","neg","GS","GSold","3","category3/CS8.png","targets/30.png","","direct","","1"
"","image-slider-response","221","566177","0.0-12.0-0.1","dxq9vxa50z","one_one","1","indirect_first","0","er04rt13","0","21","1","1","3","2","","0","1","0","5481","","","","","neg","GS","GSold","3","category3/CS9.png","targets/1.png","","direct","","-58"
"","image-slider-response","222","573559","0.0-12.0-0.2","dxq9vxa50z","one_one","1","indirect_first","0","er04rt13","0","21","1","1","3","2","","0","1","0","7371","","","","","neg","GS","GSnew","2","category2/GS2.png","targets/16.png","","direct","","38"
"","image-slider-response","223","577769","0.0-12.0-0.3","dxq9vxa50z","one_one","1","indirect_first","0","er04rt13","0","21","1","1","3","2","","0","1","0","4201","","","","","neg","CS","CS","3","category3/CS10.png","targets/29.png","","direct","","46"
"","image-slider-response","224","581825","0.0-12.0-0.4","dxq9vxa50z","one_one","1","indirect_first","0","er04rt13","0","21","1","1","3","2","","0","1","0","4048","","","","","neg","GS","abstract","2","category2/men.png","targets/41.png","","direct","","41"
"","image-slider-response","225","585667","0.0-12.0-0.5","dxq9vxa50z","one_one","1","indirect_first","0","er04rt13","0","21","1","1","3","2","","0","1","0","3835","","","","","pos","GS","GSold","4","category4/CS4.png","targets/24.png","","direct","","-46"
"","image-slider-response","226","589568","0.0-12.0-0.6","dxq9vxa50z","one_one","1","indirect_first","0","er04rt13","0","21","1","1","3","2","","0","1","0","3893","","","","","neg","GS","GSnew","3","category3/GS2.png","targets/18.png","","direct","","-66"
"","image-slider-response","227","593598","0.0-12.0-0.7","dxq9vxa50z","one_one","1","indirect_first","0","er04rt13","0","21","1","1","3","2","","0","1","0","4020","","","","","pos","GS","GSold","1","category1/CS10.png","targets/35.png","","direct","","-56"
"","image-slider-response","228","598318","0.0-12.0-0.8","dxq9vxa50z","one_one","1","indirect_first","0","er04rt13","0","21","1","1","3","2","","0","1","0","4711","","","","","pos","CS","CS","1","category1/CS4.png","targets/22.png","","direct","","36"
"","image-slider-response","229","601646","0.0-12.0-0.9","dxq9vxa50z","one_one","1","indirect_first","0","er04rt13","0","21","1","1","3","2","","0","1","0","3320","","","","","neg","GS","GSold","2","category2/CS4.png","targets/8.png","","direct","","52"
"","image-slider-response","230","606277","0.0-12.0-0.10","dxq9vxa50z","one_one","1","indirect_first","0","er04rt13","0","21","1","1","3","2","","0","1","0","4623","","","","","pos","GS","GSold","4","category4/CS8.png","targets/25.png","","direct","","-44"
"","image-slider-response","231","610088","0.0-12.0-0.11","dxq9vxa50z","one_one","1","indirect_first","0","er04rt13","0","21","1","1","3","2","","0","1","0","3801","","","","","neg","GS","GSold","2","category2/CS5.png","targets/39.png","","direct","","61"
"","image-slider-response","232","613446","0.0-12.0-0.12","dxq9vxa50z","one_one","1","indirect_first","0","er04rt13","0","21","1","1","3","2","","0","1","0","3350","","","","","pos","GS","GSold","1","category1/CS3.png","targets/10.png","","direct","","-67"
"","image-slider-response","233","617987","0.0-12.0-0.13","dxq9vxa50z","one_one","1","indirect_first","0","er04rt13","0","21","1","1","3","2","","0","1","0","4533","","","","","pos","GS","GSnew","1","category1/GS1.png","targets/37.png","","direct","","4"
"","image-slider-response","234","621927","0.0-12.0-0.14","dxq9vxa50z","one_one","1","indirect_first","0","er04rt13","0","21","1","1","3","2","","0","1","0","3932","","","","","neg","GS","GSold","3","category3/CS6.png","targets/42.png","","direct","","40"
"","image-slider-response","235","624936","0.0-12.0-0.15","dxq9vxa50z","one_one","1","indirect_first","0","er04rt13","0","21","1","1","3","2","","0","1","0","3007","","","","","neg","GS","GSold","2","category2/CS7.png","targets/31.png","","direct","","40"
"","image-slider-response","236","628326","0.0-12.0-0.16","dxq9vxa50z","one_one","1","indirect_first","0","er04rt13","0","21","1","1","3","2","","0","1","0","3380","","","","","neg","GS","abstract","3","category3/wang.png","targets/15.png","","direct","","66"
"","image-slider-response","237","632305","0.0-12.0-0.17","dxq9vxa50z","one_one","1","indirect_first","0","er04rt13","0","21","1","1","3","2","","0","1","0","3972","","","","","neg","CS","CS","2","category2/CS3.png","targets/36.png","","direct","","61"
"","image-slider-response","238","637197","0.0-12.0-0.18","dxq9vxa50z","one_one","1","indirect_first","0","er04rt13","0","21","1","1","3","2","","0","1","0","4888","","","","","pos","CS","CS","4","category4/CS9.png","targets/5.png","","direct","","42"
"","image-slider-response","239","640178","0.0-12.0-0.19","dxq9vxa50z","one_one","1","indirect_first","0","er04rt13","0","21","1","1","3","2","","0","1","0","2974","","","","","pos","GS","GSnew","4","category4/GS1.png","targets/13.png","","direct","","-54"
"","image-slider-response","240","642957","0.0-12.0-0.20","dxq9vxa50z","one_one","1","indirect_first","0","er04rt13","0","21","1","1","3","2","","0","1","0","2771","","","","","pos","GS","abstract","1","category1/ma.png","targets/2.png","","direct","","-39"
"","image-slider-response","241","645796","0.0-12.0-0.21","dxq9vxa50z","one_one","1","indirect_first","0","er04rt13","0","21","1","1","3","2","","0","1","0","2831","","","","","neg","GS","GSnew","3","category3/GS1.png","targets/14.png","","direct","","28"
"","image-slider-response","242","649656","0.0-12.0-0.22","dxq9vxa50z","one_one","1","indirect_first","0","er04rt13","0","21","1","1","3","2","","0","1","0","3851","","","","","pos","GS","GSnew","4","category4/GS3.png","targets/33.png","","direct","","-86"
"","image-slider-response","243","653036","0.0-12.0-0.23","dxq9vxa50z","one_one","1","indirect_first","0","er04rt13","0","21","1","1","3","2","","0","1","0","3374","","","","","neg","GS","GSnew","2","category2/GS3.png","targets/12.png","","direct","","56"
"","image-slider-response","244","655497","0.0-12.0-0.24","dxq9vxa50z","one_one","1","indirect_first","0","er04rt13","0","21","1","1","3","2","","0","1","0","2451","","","","","pos","GS","GSnew","1","category1/GS3.png","targets/19.png","","direct","","25"
"","image-slider-response","245","658416","0.0-12.0-0.25","dxq9vxa50z","one_one","1","indirect_first","0","er04rt13","0","21","1","1","3","2","","0","1","0","2913","","","","","pos","GS","GSold","1","category1/CS7.png","targets/20.png","","direct","","36"
"","image-slider-response","246","661856","0.0-12.0-0.26","dxq9vxa50z","one_one","1","indirect_first","0","er04rt13","0","21","1","1","3","2","","0","1","0","3430","","","","","neg","GS","GSnew","2","category2/GS1.png","targets/26.png","","direct","","52"
"","image-slider-response","247","664776","0.0-12.0-0.27","dxq9vxa50z","one_one","1","indirect_first","0","er04rt13","0","21","1","1","3","2","","0","1","0","2914","","","","","neg","GS","GSnew","3","category3/GS3.png","targets/23.png","","direct","","62"
"","image-slider-response","248","667696","0.0-12.0-0.28","dxq9vxa50z","one_one","1","indirect_first","0","er04rt13","0","21","1","1","3","2","","0","1","0","2911","","","","","pos","GS","GSold","4","category4/CS2.png","targets/17.png","","direct","","-64"
"","image-slider-response","249","671726","0.0-12.0-0.29","dxq9vxa50z","one_one","1","indirect_first","0","er04rt13","0","21","1","1","3","2","","0","1","0","4023","","","","","pos","GS","GSnew","4","category4/GS2.png","targets/47.png","","direct","","-52"
"","image-slider-response","250","675938","0.0-12.0-0.30","dxq9vxa50z","one_one","1","indirect_first","0","er04rt13","0","21","1","1","3","2","","0","1","0","4203","","","","","pos","GS","abstract","4","category4/lin.png","targets/6.png","","direct","","34"
"","image-slider-response","251","680687","0.0-12.0-0.31","dxq9vxa50z","one_one","1","indirect_first","0","er04rt13","0","21","1","1","3","2","","0","1","0","4741","","","","","pos","GS","GSnew","1","category1/GS2.png","targets/48.png","","direct","","38"
"","survey-html-form","252","687380","0.0-13.0","dxq9vxa50z","one_one","1","indirect_first","0","er04rt13","0","21","1","1","3","2","","0","1","0","6689","","{}","","","","","","","","","","","",""
"","image-slider-response","253","694294","0.0-14.0-0.0","dxq9vxa50z","one_one","1","indirect_first","0","er04rt13","0","21","1","1","3","2","","0","1","0","5896","","","","","neg","All","all","3","category3/wang_all.png","","","all","","42"
"","image-slider-response","254","699387","0.0-14.0-0.1","dxq9vxa50z","one_one","1","indirect_first","0","er04rt13","0","21","1","1","3","2","","0","1","0","5089","","","","","neg","All","all","2","category2/men_all.png","","","all","","52"
"","image-slider-response","255","703497","0.0-14.0-0.2","dxq9vxa50z","one_one","1","indirect_first","0","er04rt13","0","21","1","1","3","2","","0","1","0","4100","","","","","pos","All","all","4","category4/lin_all.png","","","all","","33"
"","image-slider-response","256","707187","0.0-14.0-0.3","dxq9vxa50z","one_one","1","indirect_first","0","er04rt13","0","21","1","1","3","2","","0","1","0","3680","","","","","pos","All","all","1","category1/ma_all.png","","","all","","54"
"","survey-text","257","711030","0.0-15.0","dxq9vxa50z","one_one","1","indirect_first","0","er04rt13","0","21","1","1","3","2","","0","1","0","3725","","{""comment"":""""}","","","","","","","","","","","",""
"","survey-html-form","258","728469","0.0-16.0","dxq9vxa50z","one_one","1","indirect_first","0","er04rt13","0","21","1","1","3","2","","0","1","0","17431","","{""hinschauen"":""0"",""ablenkung"":""1"",""gewissenhaft"":""0""}","","","","","","","","","","","",""
