"success","trial_type","trial_index","time_elapsed","internal_node_id","subject","condition","condition_code","measure","measure_code","codeword","gender","age","education","chinese","fach","handedness","comment","hinschauen","ablenkung","gewissenhaft","rt","url","responses","stimulus","key_press","val","type","type_specific","category","cs_selected","response","target","task","indirect","nr_pres"
"true","fullscreen","0","19694","0.0-0.0","qyfvgxycjb","one_one","1","direct_first","1","ok09as04","1","27","1","1","3","1","","0","1","0","","","","","","","","","","","","","","",""
"","external-html","1","49814","0.0-1.0","qyfvgxycjb","one_one","1","direct_first","1","ok09as04","1","27","1","1","3","1","","0","1","0","29996.155000000726","text/information.html","","","","","","","","","","","","",""
"","external-html","2","60174","0.0-2.0","qyfvgxycjb","one_one","1","direct_first","1","ok09as04","1","27","1","1","3","1","","0","1","0","10239.070000010543","text/consent.html","","","","","","","","","","","","",""
"","survey-html-form","3","104647","0.0-3.0","qyfvgxycjb","one_one","1","direct_first","1","ok09as04","1","27","1","1","3","1","","0","1","0","44466.805000032764","","{""codeword_enter"":""ok09as04""}","","","","","","","","","","","",""
"","survey-html-form","4","125112","0.0-4.0","qyfvgxycjb","one_one","1","direct_first","1","ok09as04","1","27","1","1","3","1","","0","1","0","20459.484999999404","","{""age"":""27"",""education"":""1"",""subject"":""3"",""gender"":""1"",""handedness"":""1"",""chinese"":""1""}","","","","","","","","","","","",""
"","survey-html-form","5","131168","0.0-5.0","qyfvgxycjb","one_one","1","direct_first","1","ok09as04","1","27","1","1","3","1","","0","1","0","6050.630000012461","","{}","","","","","","","","","","","",""
"","html-keyboard-response","6","135180","0.0-6.0-0.0-0.0","qyfvgxycjb","one_one","1","direct_first","1","ok09as04","1","27","1","1","3","1","","0","1","0","null","","","<div class = 'row'><div class = 'column'><img src = 'category4/CS3.png' width = '70%;'></div><div class = 'column'><img src = 'usneg/9584.bmp' width = '100%;'></div></div>","null","neg","CS","CS","4","category4/CS3.png","","","","",""
"","html-keyboard-response","7","137692","0.0-6.0-0.0-0.1","qyfvgxycjb","one_one","1","direct_first","1","ok09as04","1","27","1","1","3","1","","0","1","0","null","","","<div class = 'row'><div class = 'column'><img src = 'usneg/9415.bmp' width = '100%;'></div><div class = 'column'><img src = 'category2/CS10.png' width = '70%;'></div></div>","null","neg","CS","CS","2","category2/CS10.png","","","","",""
"","html-keyboard-response","8","140201","0.0-6.0-0.0-0.2","qyfvgxycjb","one_one","1","direct_first","1","ok09as04","1","27","1","1","3","1","","0","1","0","null","","","<div class = 'row'><div class = 'column'><img src = 'category4/CS3.png' width = '70%;'></div><div class = 'column'><img src = 'usneg/9584.bmp' width = '100%;'></div></div>","null","neg","CS","CS","4","category4/CS3.png","","","","",""
"","html-keyboard-response","9","142709","0.0-6.0-0.0-0.3","qyfvgxycjb","one_one","1","direct_first","1","ok09as04","1","27","1","1","3","1","","0","1","0","null","","","<div class = 'row'><div class = 'column'><img src = 'category3/CS3.png' width = '70%;'></div><div class = 'column'><img src = 'uspos/2160.bmp' width = '100%;'></div></div>","null","pos","CS","CS","3","category3/CS3.png","","","","",""
"","html-keyboard-response","10","145217","0.0-6.0-0.0-0.4","qyfvgxycjb","one_one","1","direct_first","1","ok09as04","1","27","1","1","3","1","","0","1","0","null","","","<div class = 'row'><div class = 'column'><img src = 'category1/CS10.png' width = '70%;'></div><div class = 'column'><img src = 'uspos/8461.bmp' width = '100%;'></div></div>","null","pos","CS","CS","1","category1/CS10.png","","","","",""
"","html-keyboard-response","11","147726","0.0-6.0-0.0-0.5","qyfvgxycjb","one_one","1","direct_first","1","ok09as04","1","27","1","1","3","1","","0","1","0","null","","","<div class = 'row'><div class = 'column'><img src = 'category3/CS3.png' width = '70%;'></div><div class = 'column'><img src = 'uspos/2160.bmp' width = '100%;'></div></div>","null","pos","CS","CS","3","category3/CS3.png","","","","",""
"","html-keyboard-response","12","150239","0.0-6.0-0.0-0.6","qyfvgxycjb","one_one","1","direct_first","1","ok09as04","1","27","1","1","3","1","","0","1","0","null","","","<div class = 'row'><div class = 'column'><img src = 'category2/CS10.png' width = '70%;'></div><div class = 'column'><img src = 'usneg/9415.bmp' width = '100%;'></div></div>","null","neg","CS","CS","2","category2/CS10.png","","","","",""
"","html-keyboard-response","13","152751","0.0-6.0-0.0-0.7","qyfvgxycjb","one_one","1","direct_first","1","ok09as04","1","27","1","1","3","1","","0","1","0","null","","","<div class = 'row'><div class = 'column'><img src = 'uspos/8461.bmp' width = '100%;'></div><div class = 'column'><img src = 'category1/CS10.png' width = '70%;'></div></div>","null","pos","CS","CS","1","category1/CS10.png","","","","",""
"","html-keyboard-response","14","155263","0.0-6.0-0.0-0.8","qyfvgxycjb","one_one","1","direct_first","1","ok09as04","1","27","1","1","3","1","","0","1","0","null","","","<div class = 'row'><div class = 'column'><img src = 'category2/CS10.png' width = '70%;'></div><div class = 'column'><img src = 'usneg/9415.bmp' width = '100%;'></div></div>","null","neg","CS","CS","2","category2/CS10.png","","","","",""
"","html-keyboard-response","15","157770","0.0-6.0-0.0-0.9","qyfvgxycjb","one_one","1","direct_first","1","ok09as04","1","27","1","1","3","1","","0","1","0","null","","","<div class = 'row'><div class = 'column'><img src = 'usneg/9584.bmp' width = '100%;'></div><div class = 'column'><img src = 'category4/CS3.png' width = '70%;'></div></div>","null","neg","CS","CS","4","category4/CS3.png","","","","",""
"","html-keyboard-response","16","160282","0.0-6.0-0.0-0.10","qyfvgxycjb","one_one","1","direct_first","1","ok09as04","1","27","1","1","3","1","","0","1","0","null","","","<div class = 'row'><div class = 'column'><img src = 'category2/CS10.png' width = '70%;'></div><div class = 'column'><img src = 'usneg/9415.bmp' width = '100%;'></div></div>","null","neg","CS","CS","2","category2/CS10.png","","","","",""
"","html-keyboard-response","17","162792","0.0-6.0-0.0-0.11","qyfvgxycjb","one_one","1","direct_first","1","ok09as04","1","27","1","1","3","1","","0","1","0","null","","","<div class = 'row'><div class = 'column'><img src = 'uspos/8461.bmp' width = '100%;'></div><div class = 'column'><img src = 'category1/CS10.png' width = '70%;'></div></div>","null","pos","CS","CS","1","category1/CS10.png","","","","",""
"","html-keyboard-response","18","165302","0.0-6.0-0.0-0.12","qyfvgxycjb","one_one","1","direct_first","1","ok09as04","1","27","1","1","3","1","","0","1","0","null","","","<div class = 'row'><div class = 'column'><img src = 'category3/CS3.png' width = '70%;'></div><div class = 'column'><img src = 'uspos/2160.bmp' width = '100%;'></div></div>","null","pos","CS","CS","3","category3/CS3.png","","","","",""
"","html-keyboard-response","19","167814","0.0-6.0-0.0-0.13","qyfvgxycjb","one_one","1","direct_first","1","ok09as04","1","27","1","1","3","1","","0","1","0","null","","","<div class = 'row'><div class = 'column'><img src = 'category4/CS3.png' width = '70%;'></div><div class = 'column'><img src = 'usneg/9584.bmp' width = '100%;'></div></div>","null","neg","CS","CS","4","category4/CS3.png","","","","",""
"","html-keyboard-response","20","170326","0.0-6.0-0.0-0.14","qyfvgxycjb","one_one","1","direct_first","1","ok09as04","1","27","1","1","3","1","","0","1","0","null","","","<div class = 'row'><div class = 'column'><img src = 'category1/CS10.png' width = '70%;'></div><div class = 'column'><img src = 'uspos/8461.bmp' width = '100%;'></div></div>","null","pos","CS","CS","1","category1/CS10.png","","","","",""
"","html-keyboard-response","21","172836","0.0-6.0-0.0-0.15","qyfvgxycjb","one_one","1","direct_first","1","ok09as04","1","27","1","1","3","1","","0","1","0","null","","","<div class = 'row'><div class = 'column'><img src = 'usneg/9584.bmp' width = '100%;'></div><div class = 'column'><img src = 'category4/CS3.png' width = '70%;'></div></div>","null","neg","CS","CS","4","category4/CS3.png","","","","",""
"","html-keyboard-response","22","175346","0.0-6.0-0.0-0.16","qyfvgxycjb","one_one","1","direct_first","1","ok09as04","1","27","1","1","3","1","","0","1","0","null","","","<div class = 'row'><div class = 'column'><img src = 'category3/CS3.png' width = '70%;'></div><div class = 'column'><img src = 'uspos/2160.bmp' width = '100%;'></div></div>","null","pos","CS","CS","3","category3/CS3.png","","","","",""
"","html-keyboard-response","23","177858","0.0-6.0-0.0-0.17","qyfvgxycjb","one_one","1","direct_first","1","ok09as04","1","27","1","1","3","1","","0","1","0","null","","","<div class = 'row'><div class = 'column'><img src = 'category1/CS10.png' width = '70%;'></div><div class = 'column'><img src = 'uspos/8461.bmp' width = '100%;'></div></div>","null","pos","CS","CS","1","category1/CS10.png","","","","",""
"","html-keyboard-response","24","180371","0.0-6.0-0.0-0.18","qyfvgxycjb","one_one","1","direct_first","1","ok09as04","1","27","1","1","3","1","","0","1","0","null","","","<div class = 'row'><div class = 'column'><img src = 'uspos/2160.bmp' width = '100%;'></div><div class = 'column'><img src = 'category3/CS3.png' width = '70%;'></div></div>","null","pos","CS","CS","3","category3/CS3.png","","","","",""
"","html-keyboard-response","25","182881","0.0-6.0-0.0-0.19","qyfvgxycjb","one_one","1","direct_first","1","ok09as04","1","27","1","1","3","1","","0","1","0","null","","","<div class = 'row'><div class = 'column'><img src = 'category2/CS10.png' width = '70%;'></div><div class = 'column'><img src = 'usneg/9415.bmp' width = '100%;'></div></div>","null","neg","CS","CS","2","category2/CS10.png","","","","",""
"","survey-html-form","26","190265","0.0-6.0-1.0","qyfvgxycjb","one_one","1","direct_first","1","ok09as04","1","27","1","1","3","1","","0","1","0","6878.160000022035","","{}","","","","","","","","","","","",""
"","html-keyboard-response","27","194276","0.0-6.0-2.0-0.0","qyfvgxycjb","one_one","1","direct_first","1","ok09as04","1","27","1","1","3","1","","0","1","0","null","","","<div class = 'row'><div class = 'column'><img src = 'uspos/8461.bmp' width = '100%;'></div><div class = 'column'><img src = 'category1/CS10.png' width = '70%;'></div></div>","null","pos","CS","CS","1","category1/CS10.png","","","","",""
"","html-keyboard-response","28","196788","0.0-6.0-2.0-0.1","qyfvgxycjb","one_one","1","direct_first","1","ok09as04","1","27","1","1","3","1","","0","1","0","null","","","<div class = 'row'><div class = 'column'><img src = 'usneg/9584.bmp' width = '100%;'></div><div class = 'column'><img src = 'category4/CS3.png' width = '70%;'></div></div>","null","neg","CS","CS","4","category4/CS3.png","","","","",""
"","html-keyboard-response","29","199292","0.0-6.0-2.0-0.2","qyfvgxycjb","one_one","1","direct_first","1","ok09as04","1","27","1","1","3","1","","0","1","0","null","","","<div class = 'row'><div class = 'column'><img src = 'category1/CS10.png' width = '70%;'></div><div class = 'column'><img src = 'uspos/8461.bmp' width = '100%;'></div></div>","null","pos","CS","CS","1","category1/CS10.png","","","","",""
"","html-keyboard-response","30","201804","0.0-6.0-2.0-0.3","qyfvgxycjb","one_one","1","direct_first","1","ok09as04","1","27","1","1","3","1","","0","1","0","null","","","<div class = 'row'><div class = 'column'><img src = 'usneg/9584.bmp' width = '100%;'></div><div class = 'column'><img src = 'category4/CS3.png' width = '70%;'></div></div>","null","neg","CS","CS","4","category4/CS3.png","","","","",""
"","html-keyboard-response","31","204311","0.0-6.0-2.0-0.4","qyfvgxycjb","one_one","1","direct_first","1","ok09as04","1","27","1","1","3","1","","0","1","0","null","","","<div class = 'row'><div class = 'column'><img src = 'usneg/9415.bmp' width = '100%;'></div><div class = 'column'><img src = 'category2/CS10.png' width = '70%;'></div></div>","null","neg","CS","CS","2","category2/CS10.png","","","","",""
"","html-keyboard-response","32","206821","0.0-6.0-2.0-0.5","qyfvgxycjb","one_one","1","direct_first","1","ok09as04","1","27","1","1","3","1","","0","1","0","null","","","<div class = 'row'><div class = 'column'><img src = 'uspos/8461.bmp' width = '100%;'></div><div class = 'column'><img src = 'category1/CS10.png' width = '70%;'></div></div>","null","pos","CS","CS","1","category1/CS10.png","","","","",""
"","html-keyboard-response","33","209326","0.0-6.0-2.0-0.6","qyfvgxycjb","one_one","1","direct_first","1","ok09as04","1","27","1","1","3","1","","0","1","0","null","","","<div class = 'row'><div class = 'column'><img src = 'category2/CS10.png' width = '70%;'></div><div class = 'column'><img src = 'usneg/9415.bmp' width = '100%;'></div></div>","null","neg","CS","CS","2","category2/CS10.png","","","","",""
"","html-keyboard-response","34","211835","0.0-6.0-2.0-0.7","qyfvgxycjb","one_one","1","direct_first","1","ok09as04","1","27","1","1","3","1","","0","1","0","null","","","<div class = 'row'><div class = 'column'><img src = 'uspos/2160.bmp' width = '100%;'></div><div class = 'column'><img src = 'category3/CS3.png' width = '70%;'></div></div>","null","pos","CS","CS","3","category3/CS3.png","","","","",""
"","html-keyboard-response","35","214348","0.0-6.0-2.0-0.8","qyfvgxycjb","one_one","1","direct_first","1","ok09as04","1","27","1","1","3","1","","0","1","0","null","","","<div class = 'row'><div class = 'column'><img src = 'usneg/9415.bmp' width = '100%;'></div><div class = 'column'><img src = 'category2/CS10.png' width = '70%;'></div></div>","null","neg","CS","CS","2","category2/CS10.png","","","","",""
"","html-keyboard-response","36","216860","0.0-6.0-2.0-0.9","qyfvgxycjb","one_one","1","direct_first","1","ok09as04","1","27","1","1","3","1","","0","1","0","null","","","<div class = 'row'><div class = 'column'><img src = 'category3/CS3.png' width = '70%;'></div><div class = 'column'><img src = 'uspos/2160.bmp' width = '100%;'></div></div>","null","pos","CS","CS","3","category3/CS3.png","","","","",""
"","html-keyboard-response","37","219369","0.0-6.0-2.0-0.10","qyfvgxycjb","one_one","1","direct_first","1","ok09as04","1","27","1","1","3","1","","0","1","0","null","","","<div class = 'row'><div class = 'column'><img src = 'usneg/9584.bmp' width = '100%;'></div><div class = 'column'><img src = 'category4/CS3.png' width = '70%;'></div></div>","null","neg","CS","CS","4","category4/CS3.png","","","","",""
"","html-keyboard-response","38","221877","0.0-6.0-2.0-0.11","qyfvgxycjb","one_one","1","direct_first","1","ok09as04","1","27","1","1","3","1","","0","1","0","null","","","<div class = 'row'><div class = 'column'><img src = 'category1/CS10.png' width = '70%;'></div><div class = 'column'><img src = 'uspos/8461.bmp' width = '100%;'></div></div>","null","pos","CS","CS","1","category1/CS10.png","","","","",""
"","html-keyboard-response","39","224386","0.0-6.0-2.0-0.12","qyfvgxycjb","one_one","1","direct_first","1","ok09as04","1","27","1","1","3","1","","0","1","0","null","","","<div class = 'row'><div class = 'column'><img src = 'usneg/9584.bmp' width = '100%;'></div><div class = 'column'><img src = 'category4/CS3.png' width = '70%;'></div></div>","null","neg","CS","CS","4","category4/CS3.png","","","","",""
"","html-keyboard-response","40","226898","0.0-6.0-2.0-0.13","qyfvgxycjb","one_one","1","direct_first","1","ok09as04","1","27","1","1","3","1","","0","1","0","null","","","<div class = 'row'><div class = 'column'><img src = 'uspos/2160.bmp' width = '100%;'></div><div class = 'column'><img src = 'category3/CS3.png' width = '70%;'></div></div>","null","pos","CS","CS","3","category3/CS3.png","","","","",""
"","html-keyboard-response","41","229411","0.0-6.0-2.0-0.14","qyfvgxycjb","one_one","1","direct_first","1","ok09as04","1","27","1","1","3","1","","0","1","0","null","","","<div class = 'row'><div class = 'column'><img src = 'category2/CS10.png' width = '70%;'></div><div class = 'column'><img src = 'usneg/9415.bmp' width = '100%;'></div></div>","null","neg","CS","CS","2","category2/CS10.png","","","","",""
"","html-keyboard-response","42","231923","0.0-6.0-2.0-0.15","qyfvgxycjb","one_one","1","direct_first","1","ok09as04","1","27","1","1","3","1","","0","1","0","null","","","<div class = 'row'><div class = 'column'><img src = 'category3/CS3.png' width = '70%;'></div><div class = 'column'><img src = 'uspos/2160.bmp' width = '100%;'></div></div>","null","pos","CS","CS","3","category3/CS3.png","","","","",""
"","html-keyboard-response","43","234435","0.0-6.0-2.0-0.16","qyfvgxycjb","one_one","1","direct_first","1","ok09as04","1","27","1","1","3","1","","0","1","0","null","","","<div class = 'row'><div class = 'column'><img src = 'category2/CS10.png' width = '70%;'></div><div class = 'column'><img src = 'usneg/9415.bmp' width = '100%;'></div></div>","null","neg","CS","CS","2","category2/CS10.png","","","","",""
"","html-keyboard-response","44","236948","0.0-6.0-2.0-0.17","qyfvgxycjb","one_one","1","direct_first","1","ok09as04","1","27","1","1","3","1","","0","1","0","null","","","<div class = 'row'><div class = 'column'><img src = 'category1/CS10.png' width = '70%;'></div><div class = 'column'><img src = 'uspos/8461.bmp' width = '100%;'></div></div>","null","pos","CS","CS","1","category1/CS10.png","","","","",""
"","html-keyboard-response","45","239457","0.0-6.0-2.0-0.18","qyfvgxycjb","one_one","1","direct_first","1","ok09as04","1","27","1","1","3","1","","0","1","0","null","","","<div class = 'row'><div class = 'column'><img src = 'usneg/9584.bmp' width = '100%;'></div><div class = 'column'><img src = 'category4/CS3.png' width = '70%;'></div></div>","null","neg","CS","CS","4","category4/CS3.png","","","","",""
"","html-keyboard-response","46","241970","0.0-6.0-2.0-0.19","qyfvgxycjb","one_one","1","direct_first","1","ok09as04","1","27","1","1","3","1","","0","1","0","null","","","<div class = 'row'><div class = 'column'><img src = 'category3/CS3.png' width = '70%;'></div><div class = 'column'><img src = 'uspos/2160.bmp' width = '100%;'></div></div>","null","pos","CS","CS","3","category3/CS3.png","","","","",""
"","survey-html-form","47","244708","0.0-6.0-3.0","qyfvgxycjb","one_one","1","direct_first","1","ok09as04","1","27","1","1","3","1","","0","1","0","2231.9400000269525","","{}","","","","","","","","","","","",""
"","html-keyboard-response","48","248721","0.0-6.0-4.0-0.0","qyfvgxycjb","one_one","1","direct_first","1","ok09as04","1","27","1","1","3","1","","0","1","0","null","","","<div class = 'row'><div class = 'column'><img src = 'usneg/9415.bmp' width = '100%;'></div><div class = 'column'><img src = 'category2/CS10.png' width = '70%;'></div></div>","null","neg","CS","CS","2","category2/CS10.png","","","","",""
"","html-keyboard-response","49","251223","0.0-6.0-4.0-0.1","qyfvgxycjb","one_one","1","direct_first","1","ok09as04","1","27","1","1","3","1","","0","1","0","null","","","<div class = 'row'><div class = 'column'><img src = 'category3/CS3.png' width = '70%;'></div><div class = 'column'><img src = 'uspos/2160.bmp' width = '100%;'></div></div>","null","pos","CS","CS","3","category3/CS3.png","","","","",""
"","html-keyboard-response","50","253733","0.0-6.0-4.0-0.2","qyfvgxycjb","one_one","1","direct_first","1","ok09as04","1","27","1","1","3","1","","0","1","0","null","","","<div class = 'row'><div class = 'column'><img src = 'category4/CS3.png' width = '70%;'></div><div class = 'column'><img src = 'usneg/9584.bmp' width = '100%;'></div></div>","null","neg","CS","CS","4","category4/CS3.png","","","","",""
"","html-keyboard-response","51","256246","0.0-6.0-4.0-0.3","qyfvgxycjb","one_one","1","direct_first","1","ok09as04","1","27","1","1","3","1","","0","1","0","null","","","<div class = 'row'><div class = 'column'><img src = 'uspos/8461.bmp' width = '100%;'></div><div class = 'column'><img src = 'category1/CS10.png' width = '70%;'></div></div>","null","pos","CS","CS","1","category1/CS10.png","","","","",""
"","html-keyboard-response","52","258759","0.0-6.0-4.0-0.4","qyfvgxycjb","one_one","1","direct_first","1","ok09as04","1","27","1","1","3","1","","0","1","0","null","","","<div class = 'row'><div class = 'column'><img src = 'category2/CS10.png' width = '70%;'></div><div class = 'column'><img src = 'usneg/9415.bmp' width = '100%;'></div></div>","null","neg","CS","CS","2","category2/CS10.png","","","","",""
"","html-keyboard-response","53","261271","0.0-6.0-4.0-0.5","qyfvgxycjb","one_one","1","direct_first","1","ok09as04","1","27","1","1","3","1","","0","1","0","null","","","<div class = 'row'><div class = 'column'><img src = 'category1/CS10.png' width = '70%;'></div><div class = 'column'><img src = 'uspos/8461.bmp' width = '100%;'></div></div>","null","pos","CS","CS","1","category1/CS10.png","","","","",""
"","html-keyboard-response","54","263779","0.0-6.0-4.0-0.6","qyfvgxycjb","one_one","1","direct_first","1","ok09as04","1","27","1","1","3","1","","0","1","0","null","","","<div class = 'row'><div class = 'column'><img src = 'usneg/9584.bmp' width = '100%;'></div><div class = 'column'><img src = 'category4/CS3.png' width = '70%;'></div></div>","null","neg","CS","CS","4","category4/CS3.png","","","","",""
"","html-keyboard-response","55","266291","0.0-6.0-4.0-0.7","qyfvgxycjb","one_one","1","direct_first","1","ok09as04","1","27","1","1","3","1","","0","1","0","null","","","<div class = 'row'><div class = 'column'><img src = 'uspos/2160.bmp' width = '100%;'></div><div class = 'column'><img src = 'category3/CS3.png' width = '70%;'></div></div>","null","pos","CS","CS","3","category3/CS3.png","","","","",""
"","html-keyboard-response","56","268803","0.0-6.0-4.0-0.8","qyfvgxycjb","one_one","1","direct_first","1","ok09as04","1","27","1","1","3","1","","0","1","0","null","","","<div class = 'row'><div class = 'column'><img src = 'category2/CS10.png' width = '70%;'></div><div class = 'column'><img src = 'usneg/9415.bmp' width = '100%;'></div></div>","null","neg","CS","CS","2","category2/CS10.png","","","","",""
"","html-keyboard-response","57","271316","0.0-6.0-4.0-0.9","qyfvgxycjb","one_one","1","direct_first","1","ok09as04","1","27","1","1","3","1","","0","1","0","null","","","<div class = 'row'><div class = 'column'><img src = 'usneg/9584.bmp' width = '100%;'></div><div class = 'column'><img src = 'category4/CS3.png' width = '70%;'></div></div>","null","neg","CS","CS","4","category4/CS3.png","","","","",""
"","html-keyboard-response","58","273828","0.0-6.0-4.0-0.10","qyfvgxycjb","one_one","1","direct_first","1","ok09as04","1","27","1","1","3","1","","0","1","0","null","","","<div class = 'row'><div class = 'column'><img src = 'usneg/9415.bmp' width = '100%;'></div><div class = 'column'><img src = 'category2/CS10.png' width = '70%;'></div></div>","null","neg","CS","CS","2","category2/CS10.png","","","","",""
"","html-keyboard-response","59","276340","0.0-6.0-4.0-0.11","qyfvgxycjb","one_one","1","direct_first","1","ok09as04","1","27","1","1","3","1","","0","1","0","null","","","<div class = 'row'><div class = 'column'><img src = 'category1/CS10.png' width = '70%;'></div><div class = 'column'><img src = 'uspos/8461.bmp' width = '100%;'></div></div>","null","pos","CS","CS","1","category1/CS10.png","","","","",""
"","html-keyboard-response","60","278853","0.0-6.0-4.0-0.12","qyfvgxycjb","one_one","1","direct_first","1","ok09as04","1","27","1","1","3","1","","0","1","0","null","","","<div class = 'row'><div class = 'column'><img src = 'usneg/9415.bmp' width = '100%;'></div><div class = 'column'><img src = 'category2/CS10.png' width = '70%;'></div></div>","null","neg","CS","CS","2","category2/CS10.png","","","","",""
"","html-keyboard-response","61","281360","0.0-6.0-4.0-0.13","qyfvgxycjb","one_one","1","direct_first","1","ok09as04","1","27","1","1","3","1","","0","1","0","null","","","<div class = 'row'><div class = 'column'><img src = 'category3/CS3.png' width = '70%;'></div><div class = 'column'><img src = 'uspos/2160.bmp' width = '100%;'></div></div>","null","pos","CS","CS","3","category3/CS3.png","","","","",""
"","html-keyboard-response","62","283867","0.0-6.0-4.0-0.14","qyfvgxycjb","one_one","1","direct_first","1","ok09as04","1","27","1","1","3","1","","0","1","0","null","","","<div class = 'row'><div class = 'column'><img src = 'usneg/9584.bmp' width = '100%;'></div><div class = 'column'><img src = 'category4/CS3.png' width = '70%;'></div></div>","null","neg","CS","CS","4","category4/CS3.png","","","","",""
"","html-keyboard-response","63","286377","0.0-6.0-4.0-0.15","qyfvgxycjb","one_one","1","direct_first","1","ok09as04","1","27","1","1","3","1","","0","1","0","null","","","<div class = 'row'><div class = 'column'><img src = 'category3/CS3.png' width = '70%;'></div><div class = 'column'><img src = 'uspos/2160.bmp' width = '100%;'></div></div>","null","pos","CS","CS","3","category3/CS3.png","","","","",""
"","html-keyboard-response","64","288890","0.0-6.0-4.0-0.16","qyfvgxycjb","one_one","1","direct_first","1","ok09as04","1","27","1","1","3","1","","0","1","0","null","","","<div class = 'row'><div class = 'column'><img src = 'category1/CS10.png' width = '70%;'></div><div class = 'column'><img src = 'uspos/8461.bmp' width = '100%;'></div></div>","null","pos","CS","CS","1","category1/CS10.png","","","","",""
"","html-keyboard-response","65","291398","0.0-6.0-4.0-0.17","qyfvgxycjb","one_one","1","direct_first","1","ok09as04","1","27","1","1","3","1","","0","1","0","null","","","<div class = 'row'><div class = 'column'><img src = 'category3/CS3.png' width = '70%;'></div><div class = 'column'><img src = 'uspos/2160.bmp' width = '100%;'></div></div>","null","pos","CS","CS","3","category3/CS3.png","","","","",""
"","html-keyboard-response","66","293911","0.0-6.0-4.0-0.18","qyfvgxycjb","one_one","1","direct_first","1","ok09as04","1","27","1","1","3","1","","0","1","0","null","","","<div class = 'row'><div class = 'column'><img src = 'uspos/8461.bmp' width = '100%;'></div><div class = 'column'><img src = 'category1/CS10.png' width = '70%;'></div></div>","null","pos","CS","CS","1","category1/CS10.png","","","","",""
"","html-keyboard-response","67","296418","0.0-6.0-4.0-0.19","qyfvgxycjb","one_one","1","direct_first","1","ok09as04","1","27","1","1","3","1","","0","1","0","null","","","<div class = 'row'><div class = 'column'><img src = 'category4/CS3.png' width = '70%;'></div><div class = 'column'><img src = 'usneg/9584.bmp' width = '100%;'></div></div>","null","neg","CS","CS","4","category4/CS3.png","","","","",""
"","survey-html-form","68","299873","0.0-6.0-5.0","qyfvgxycjb","one_one","1","direct_first","1","ok09as04","1","27","1","1","3","1","","0","1","0","2949.0599999553524","","{}","","","","","","","","","","","",""
"","html-keyboard-response","69","303885","0.0-6.0-6.0-0.0","qyfvgxycjb","one_one","1","direct_first","1","ok09as04","1","27","1","1","3","1","","0","1","0","null","","","<div class = 'row'><div class = 'column'><img src = 'category3/CS3.png' width = '70%;'></div><div class = 'column'><img src = 'uspos/2160.bmp' width = '100%;'></div></div>","null","pos","CS","CS","3","category3/CS3.png","","","","",""
"","html-keyboard-response","70","306391","0.0-6.0-6.0-0.1","qyfvgxycjb","one_one","1","direct_first","1","ok09as04","1","27","1","1","3","1","","0","1","0","null","","","<div class = 'row'><div class = 'column'><img src = 'uspos/8461.bmp' width = '100%;'></div><div class = 'column'><img src = 'category1/CS10.png' width = '70%;'></div></div>","null","pos","CS","CS","1","category1/CS10.png","","","","",""
"","html-keyboard-response","71","308903","0.0-6.0-6.0-0.2","qyfvgxycjb","one_one","1","direct_first","1","ok09as04","1","27","1","1","3","1","","0","1","0","null","","","<div class = 'row'><div class = 'column'><img src = 'usneg/9415.bmp' width = '100%;'></div><div class = 'column'><img src = 'category2/CS10.png' width = '70%;'></div></div>","null","neg","CS","CS","2","category2/CS10.png","","","","",""
"","html-keyboard-response","72","311415","0.0-6.0-6.0-0.3","qyfvgxycjb","one_one","1","direct_first","1","ok09as04","1","27","1","1","3","1","","0","1","0","null","","","<div class = 'row'><div class = 'column'><img src = 'usneg/9584.bmp' width = '100%;'></div><div class = 'column'><img src = 'category4/CS3.png' width = '70%;'></div></div>","null","neg","CS","CS","4","category4/CS3.png","","","","",""
"","html-keyboard-response","73","313923","0.0-6.0-6.0-0.4","qyfvgxycjb","one_one","1","direct_first","1","ok09as04","1","27","1","1","3","1","","0","1","0","null","","","<div class = 'row'><div class = 'column'><img src = 'uspos/8461.bmp' width = '100%;'></div><div class = 'column'><img src = 'category1/CS10.png' width = '70%;'></div></div>","null","pos","CS","CS","1","category1/CS10.png","","","","",""
"","html-keyboard-response","74","316432","0.0-6.0-6.0-0.5","qyfvgxycjb","one_one","1","direct_first","1","ok09as04","1","27","1","1","3","1","","0","1","0","null","","","<div class = 'row'><div class = 'column'><img src = 'uspos/2160.bmp' width = '100%;'></div><div class = 'column'><img src = 'category3/CS3.png' width = '70%;'></div></div>","null","pos","CS","CS","3","category3/CS3.png","","","","",""
"","html-keyboard-response","75","318941","0.0-6.0-6.0-0.6","qyfvgxycjb","one_one","1","direct_first","1","ok09as04","1","27","1","1","3","1","","0","1","0","null","","","<div class = 'row'><div class = 'column'><img src = 'category1/CS10.png' width = '70%;'></div><div class = 'column'><img src = 'uspos/8461.bmp' width = '100%;'></div></div>","null","pos","CS","CS","1","category1/CS10.png","","","","",""
"","html-keyboard-response","76","321449","0.0-6.0-6.0-0.7","qyfvgxycjb","one_one","1","direct_first","1","ok09as04","1","27","1","1","3","1","","0","1","0","null","","","<div class = 'row'><div class = 'column'><img src = 'usneg/9415.bmp' width = '100%;'></div><div class = 'column'><img src = 'category2/CS10.png' width = '70%;'></div></div>","null","neg","CS","CS","2","category2/CS10.png","","","","",""
"","html-keyboard-response","77","323958","0.0-6.0-6.0-0.8","qyfvgxycjb","one_one","1","direct_first","1","ok09as04","1","27","1","1","3","1","","0","1","0","null","","","<div class = 'row'><div class = 'column'><img src = 'uspos/2160.bmp' width = '100%;'></div><div class = 'column'><img src = 'category3/CS3.png' width = '70%;'></div></div>","null","pos","CS","CS","3","category3/CS3.png","","","","",""
"","html-keyboard-response","78","326470","0.0-6.0-6.0-0.9","qyfvgxycjb","one_one","1","direct_first","1","ok09as04","1","27","1","1","3","1","","0","1","0","null","","","<div class = 'row'><div class = 'column'><img src = 'category2/CS10.png' width = '70%;'></div><div class = 'column'><img src = 'usneg/9415.bmp' width = '100%;'></div></div>","null","neg","CS","CS","2","category2/CS10.png","","","","",""
"","html-keyboard-response","79","328983","0.0-6.0-6.0-0.10","qyfvgxycjb","one_one","1","direct_first","1","ok09as04","1","27","1","1","3","1","","0","1","0","null","","","<div class = 'row'><div class = 'column'><img src = 'usneg/9584.bmp' width = '100%;'></div><div class = 'column'><img src = 'category4/CS3.png' width = '70%;'></div></div>","null","neg","CS","CS","4","category4/CS3.png","","","","",""
"","html-keyboard-response","80","331490","0.0-6.0-6.0-0.11","qyfvgxycjb","one_one","1","direct_first","1","ok09as04","1","27","1","1","3","1","","0","1","0","null","","","<div class = 'row'><div class = 'column'><img src = 'category1/CS10.png' width = '70%;'></div><div class = 'column'><img src = 'uspos/8461.bmp' width = '100%;'></div></div>","null","pos","CS","CS","1","category1/CS10.png","","","","",""
"","html-keyboard-response","81","334002","0.0-6.0-6.0-0.12","qyfvgxycjb","one_one","1","direct_first","1","ok09as04","1","27","1","1","3","1","","0","1","0","null","","","<div class = 'row'><div class = 'column'><img src = 'usneg/9415.bmp' width = '100%;'></div><div class = 'column'><img src = 'category2/CS10.png' width = '70%;'></div></div>","null","neg","CS","CS","2","category2/CS10.png","","","","",""
"","html-keyboard-response","82","336512","0.0-6.0-6.0-0.13","qyfvgxycjb","one_one","1","direct_first","1","ok09as04","1","27","1","1","3","1","","0","1","0","null","","","<div class = 'row'><div class = 'column'><img src = 'usneg/9584.bmp' width = '100%;'></div><div class = 'column'><img src = 'category4/CS3.png' width = '70%;'></div></div>","null","neg","CS","CS","4","category4/CS3.png","","","","",""
"","html-keyboard-response","83","339025","0.0-6.0-6.0-0.14","qyfvgxycjb","one_one","1","direct_first","1","ok09as04","1","27","1","1","3","1","","0","1","0","null","","","<div class = 'row'><div class = 'column'><img src = 'category1/CS10.png' width = '70%;'></div><div class = 'column'><img src = 'uspos/8461.bmp' width = '100%;'></div></div>","null","pos","CS","CS","1","category1/CS10.png","","","","",""
"","html-keyboard-response","84","341532","0.0-6.0-6.0-0.15","qyfvgxycjb","one_one","1","direct_first","1","ok09as04","1","27","1","1","3","1","","0","1","0","null","","","<div class = 'row'><div class = 'column'><img src = 'category3/CS3.png' width = '70%;'></div><div class = 'column'><img src = 'uspos/2160.bmp' width = '100%;'></div></div>","null","pos","CS","CS","3","category3/CS3.png","","","","",""
"","html-keyboard-response","85","344041","0.0-6.0-6.0-0.16","qyfvgxycjb","one_one","1","direct_first","1","ok09as04","1","27","1","1","3","1","","0","1","0","null","","","<div class = 'row'><div class = 'column'><img src = 'category4/CS3.png' width = '70%;'></div><div class = 'column'><img src = 'usneg/9584.bmp' width = '100%;'></div></div>","null","neg","CS","CS","4","category4/CS3.png","","","","",""
"","html-keyboard-response","86","346548","0.0-6.0-6.0-0.17","qyfvgxycjb","one_one","1","direct_first","1","ok09as04","1","27","1","1","3","1","","0","1","0","null","","","<div class = 'row'><div class = 'column'><img src = 'uspos/2160.bmp' width = '100%;'></div><div class = 'column'><img src = 'category3/CS3.png' width = '70%;'></div></div>","null","pos","CS","CS","3","category3/CS3.png","","","","",""
"","html-keyboard-response","87","349061","0.0-6.0-6.0-0.18","qyfvgxycjb","one_one","1","direct_first","1","ok09as04","1","27","1","1","3","1","","0","1","0","null","","","<div class = 'row'><div class = 'column'><img src = 'usneg/9415.bmp' width = '100%;'></div><div class = 'column'><img src = 'category2/CS10.png' width = '70%;'></div></div>","null","neg","CS","CS","2","category2/CS10.png","","","","",""
"","html-keyboard-response","88","351573","0.0-6.0-6.0-0.19","qyfvgxycjb","one_one","1","direct_first","1","ok09as04","1","27","1","1","3","1","","0","1","0","null","","","<div class = 'row'><div class = 'column'><img src = 'category4/CS3.png' width = '70%;'></div><div class = 'column'><img src = 'usneg/9584.bmp' width = '100%;'></div></div>","null","neg","CS","CS","4","category4/CS3.png","","","","",""
"","survey-html-form","89","357006","0.0-7.0","qyfvgxycjb","one_one","1","direct_first","1","ok09as04","1","27","1","1","3","1","","0","1","0","4927.074999955948","","{}","","","","","","","","","","","",""
"","image-slider-response","90","364615","0.0-8.0-0.0","qyfvgxycjb","one_one","1","direct_first","1","ok09as04","1","27","1","1","3","1","","0","1","0","5604.084999999031","","","","","neg","CS","CS","2","category2/CS10.png","-31","targets/47.png","direct","",""
"","image-slider-response","91","368463","0.0-8.0-0.1","qyfvgxycjb","one_one","1","direct_first","1","ok09as04","1","27","1","1","3","1","","0","1","0","3846.5849999920465","","","","","neg","CS","CS","4","category4/CS3.png","28","targets/17.png","direct","",""
"","image-slider-response","92","373503","0.0-8.0-0.2","qyfvgxycjb","one_one","1","direct_first","1","ok09as04","1","27","1","1","3","1","","0","1","0","5037.559999967925","","","","","pos","GS","abstract","3","category3/wang.png","60","targets/1.png","direct","",""
"","image-slider-response","93","376920","0.0-8.0-0.3","qyfvgxycjb","one_one","1","direct_first","1","ok09as04","1","27","1","1","3","1","","0","1","0","3414.8799999966286","","","","","pos","GS","abstract","1","category1/ma.png","-40","targets/43.png","direct","",""
"","image-slider-response","94","380527","0.0-8.0-0.4","qyfvgxycjb","one_one","1","direct_first","1","ok09as04","1","27","1","1","3","1","","0","1","0","3604.745000018738","","","","","neg","GS","GSold","2","category2/CS8.png","47","targets/13.png","direct","",""
"","image-slider-response","95","383216","0.0-8.0-0.5","qyfvgxycjb","one_one","1","direct_first","1","ok09as04","1","27","1","1","3","1","","0","1","0","2686.1749999807216","","","","","pos","GS","GSnew","3","category3/GS1.png","85","targets/33.png","direct","",""
"","image-slider-response","96","386847","0.0-8.0-0.6","qyfvgxycjb","one_one","1","direct_first","1","ok09as04","1","27","1","1","3","1","","0","1","0","3628.9350000442937","","","","","pos","GS","GSnew","3","category3/GS3.png","32","targets/40.png","direct","",""
"","image-slider-response","97","391400","0.0-8.0-0.7","qyfvgxycjb","one_one","1","direct_first","1","ok09as04","1","27","1","1","3","1","","0","1","0","4550.979999999981","","","","","pos","CS","CS","3","category3/CS3.png","22","targets/28.png","direct","",""
"","image-slider-response","98","394145","0.0-8.0-0.8","qyfvgxycjb","one_one","1","direct_first","1","ok09as04","1","27","1","1","3","1","","0","1","0","2742.1699999831617","","","","","pos","GS","GSnew","3","category3/GS2.png","63","targets/41.png","direct","",""
"","image-slider-response","99","398232","0.0-8.0-0.9","qyfvgxycjb","one_one","1","direct_first","1","ok09as04","1","27","1","1","3","1","","0","1","0","4085.025000036694","","","","","neg","GS","GSnew","4","category4/GS1.png","29","targets/12.png","direct","",""
"","image-slider-response","100","400872","0.0-8.0-0.10","qyfvgxycjb","one_one","1","direct_first","1","ok09as04","1","27","1","1","3","1","","0","1","0","2637.990000017453","","","","","pos","GS","GSnew","1","category1/GS1.png","-40","targets/39.png","direct","",""
"","image-slider-response","101","404216","0.0-8.0-0.11","qyfvgxycjb","one_one","1","direct_first","1","ok09as04","1","27","1","1","3","1","","0","1","0","3342.0550000155345","","","","","pos","GS","GSold","3","category3/CS9.png","-25","targets/2.png","direct","",""
"","image-slider-response","102","408728","0.0-8.0-0.12","qyfvgxycjb","one_one","1","direct_first","1","ok09as04","1","27","1","1","3","1","","0","1","0","4509.799999999814","","","","","pos","GS","GSold","1","category1/CS2.png","-31","targets/27.png","direct","",""
"","image-slider-response","103","413248","0.0-8.0-0.13","qyfvgxycjb","one_one","1","direct_first","1","ok09as04","1","27","1","1","3","1","","0","1","0","4517.744999960996","","","","","pos","GS","GSnew","1","category1/GS3.png","-26","targets/23.png","direct","",""
"","image-slider-response","104","419193","0.0-8.0-0.14","qyfvgxycjb","one_one","1","direct_first","1","ok09as04","1","27","1","1","3","1","","0","1","0","5941.754999978002","","","","","pos","GS","GSold","1","category1/CS5.png","-14","targets/37.png","direct","",""
"","image-slider-response","105","422640","0.0-8.0-0.15","qyfvgxycjb","one_one","1","direct_first","1","ok09as04","1","27","1","1","3","1","","0","1","0","3445.4400000395253","","","","","neg","GS","abstract","4","category4/lin.png","27","targets/18.png","direct","",""
"","image-slider-response","106","426785","0.0-8.0-0.16","qyfvgxycjb","one_one","1","direct_first","1","ok09as04","1","27","1","1","3","1","","0","1","0","4142.465000040829","","","","","neg","GS","GSnew","2","category2/GS2.png","34","targets/5.png","direct","",""
"","image-slider-response","107","430656","0.0-8.0-0.17","qyfvgxycjb","one_one","1","direct_first","1","ok09as04","1","27","1","1","3","1","","0","1","0","3869.4350000005215","","","","","neg","GS","GSnew","2","category2/GS3.png","-17","targets/35.png","direct","",""
"","image-slider-response","108","433705","0.0-8.0-0.18","qyfvgxycjb","one_one","1","direct_first","1","ok09as04","1","27","1","1","3","1","","0","1","0","3047.130000020843","","","","","neg","GS","GSold","4","category4/CS4.png","32","targets/15.png","direct","",""
"","image-slider-response","109","437673","0.0-8.0-0.19","qyfvgxycjb","one_one","1","direct_first","1","ok09as04","1","27","1","1","3","1","","0","1","0","3964.879999984987","","","","","neg","GS","GSold","2","category2/CS4.png","18","targets/21.png","direct","",""
"","image-slider-response","110","440745","0.0-8.0-0.20","qyfvgxycjb","one_one","1","direct_first","1","ok09as04","1","27","1","1","3","1","","0","1","0","3069.900000002235","","","","","neg","GS","GSold","4","category4/CS6.png","25","targets/34.png","direct","",""
"","image-slider-response","111","444353","0.0-8.0-0.21","qyfvgxycjb","one_one","1","direct_first","1","ok09as04","1","27","1","1","3","1","","0","1","0","3606.089999957476","","","","","neg","GS","GSnew","4","category4/GS3.png","26","targets/7.png","direct","",""
"","image-slider-response","112","446761","0.0-8.0-0.22","qyfvgxycjb","one_one","1","direct_first","1","ok09as04","1","27","1","1","3","1","","0","1","0","2405.7899999897927","","","","","neg","GS","GSold","2","category2/CS3.png","50","targets/10.png","direct","",""
"","image-slider-response","113","450401","0.0-8.0-0.23","qyfvgxycjb","one_one","1","direct_first","1","ok09as04","1","27","1","1","3","1","","0","1","0","3638.290000031702","","","","","pos","GS","GSold","3","category3/CS4.png","-48","targets/36.png","direct","",""
"","image-slider-response","114","453914","0.0-8.0-0.24","qyfvgxycjb","one_one","1","direct_first","1","ok09as04","1","27","1","1","3","1","","0","1","0","3509.6149999881163","","","","","neg","GS","GSold","4","category4/CS5.png","-25","targets/14.png","direct","",""
"","image-slider-response","115","456818","0.0-8.0-0.25","qyfvgxycjb","one_one","1","direct_first","1","ok09as04","1","27","1","1","3","1","","0","1","0","2901.799999992363","","","","","pos","CS","CS","1","category1/CS10.png","74","targets/45.png","direct","",""
"","image-slider-response","116","462586","0.0-8.0-0.26","qyfvgxycjb","one_one","1","direct_first","1","ok09as04","1","27","1","1","3","1","","0","1","0","5766.029999998864","","","","","pos","GS","GSold","1","category1/CS1.png","30","targets/48.png","direct","",""
"","image-slider-response","117","464969","0.0-8.0-0.27","qyfvgxycjb","one_one","1","direct_first","1","ok09as04","1","27","1","1","3","1","","0","1","0","2381.355000019539","","","","","neg","GS","GSnew","4","category4/GS2.png","22","targets/26.png","direct","",""
"","image-slider-response","118","467258","0.0-8.0-0.28","qyfvgxycjb","one_one","1","direct_first","1","ok09as04","1","27","1","1","3","1","","0","1","0","2286.8149999994785","","","","","pos","GS","GSnew","1","category1/GS2.png","-22","targets/32.png","direct","",""
"","image-slider-response","119","469866","0.0-8.0-0.29","qyfvgxycjb","one_one","1","direct_first","1","ok09as04","1","27","1","1","3","1","","0","1","0","2605.969999975059","","","","","pos","GS","GSold","3","category3/CS5.png","-68","targets/22.png","direct","",""
"","image-slider-response","120","472810","0.0-8.0-0.30","qyfvgxycjb","one_one","1","direct_first","1","ok09as04","1","27","1","1","3","1","","0","1","0","2942.10500002373","","","","","neg","GS","GSnew","2","category2/GS1.png","-21","targets/16.png","direct","",""
"","image-slider-response","121","477770","0.0-8.0-0.31","qyfvgxycjb","one_one","1","direct_first","1","ok09as04","1","27","1","1","3","1","","0","1","0","4958.575000055134","","","","","neg","GS","abstract","2","category2/men.png","-91","targets/46.png","direct","",""
"","html-keyboard-response","122","499746","0.0-9.0","qyfvgxycjb","one_one","1","direct_first","1","ok09as04","1","27","1","1","3","1","","0","1","0","21973.920000018552","","","<p>Sie sehen nun die chinesischen Zeichen nur ganz kurz. Danach sehen Sie die jeweilige Aussprache der Zeichen als Silbe auf dem Bildschrim. Ihre Aufgabe ist es, für jede Silbe anzugeben, ob diese etwas angenehmes, oder unangenehmes bedeuten könnte. Verlassen Sie sich hier vor allem auf Ihre Intuition.<br><br>Die Zeichen werden nur zur Orientierung dargestellt, beachten Sie sie deshalb nicht. Konzentrieren Sie sich vor allem auf die Silben. <br>Reagieren Sie mit folgenden zwei Tasten: <br><br><b>'D' </b> wenn die Silbe etwas <b>unangenehmes</b> bedeuten könnte. <br><b>'K'</b> wenn die Silbe etwas <b>angenehmes</b> bedeuten könnte. <br><br>Bitte legen Sie nun den Zeigefinger der linken Hand auf die Taste 'D' und den Zeigefinger der rechten Hand auf die Taste 'K'. <br>Reagieren Sie auf jede Silbe so schnell wie möglich. Uns interessiert Ihre spontane Reaktion. <br> <br> <br>Drücken Sie 'D' oder 'K', um die nächste Aufgabe zu starten. </p>","75","","","","","","","","","",""
"","html-keyboard-response","123","502749","0.0-10.0-0.0","qyfvgxycjb","one_one","1","direct_first","1","ok09as04","1","27","1","1","3","1","","0","1","0","null","","","<div style=""font-size:60px;"">+</div>","null","","","","","","","","","",""
"","html-keyboard-response","124","502845","0.0-10.0-1.0","qyfvgxycjb","one_one","1","direct_first","1","ok09as04","1","27","1","1","3","1","","0","1","0","null","","","<img src = 'category3/CS4.png' width = '100%;'>","null","","","","","","","","","",""
"","html-keyboard-response","125","503101","0.0-10.0-2.0","qyfvgxycjb","one_one","1","direct_first","1","ok09as04","1","27","1","1","3","1","","0","1","0","null","","","<img src = 'targets/36.png' width = '100%;'>","null","","","","","","","","","",""
"","html-keyboard-response","126","507798","0.0-10.0-3.0","qyfvgxycjb","one_one","1","direct_first","1","ok09as04","1","27","1","1","3","1","","0","1","0","4696.300000010524","","","<img src = 'targets/mask.png' width = '100%;'>","68","pos","GS","GSold","3","category3/CS4.png","","targets/36.png","indirect","0","0"
"","html-keyboard-response","127","509304","0.0-10.0-0.1","qyfvgxycjb","one_one","1","direct_first","1","ok09as04","1","27","1","1","3","1","","0","1","0","null","","","<div style=""font-size:60px;"">+</div>","null","","","","","","","","","",""
"","html-keyboard-response","128","509399","0.0-10.0-1.1","qyfvgxycjb","one_one","1","direct_first","1","ok09as04","1","27","1","1","3","1","","0","1","0","null","","","<img src = 'category4/CS3.png' width = '100%;'>","null","","","","","","","","","",""
"","html-keyboard-response","129","509654","0.0-10.0-2.1","qyfvgxycjb","one_one","1","direct_first","1","ok09as04","1","27","1","1","3","1","","0","1","0","null","","","<img src = 'targets/17.png' width = '100%;'>","null","","","","","","","","","",""
"","html-keyboard-response","130","512748","0.0-10.0-3.1","qyfvgxycjb","one_one","1","direct_first","1","ok09as04","1","27","1","1","3","1","","0","1","0","3092.03499997966","","","<img src = 'targets/mask.png' width = '100%;'>","68","neg","CS","CS","4","category4/CS3.png","","targets/17.png","indirect","0","1"
"","html-keyboard-response","131","514255","0.0-10.0-0.2","qyfvgxycjb","one_one","1","direct_first","1","ok09as04","1","27","1","1","3","1","","0","1","0","null","","","<div style=""font-size:60px;"">+</div>","null","","","","","","","","","",""
"","html-keyboard-response","132","514347","0.0-10.0-1.2","qyfvgxycjb","one_one","1","direct_first","1","ok09as04","1","27","1","1","3","1","","0","1","0","null","","","<img src = 'category2/CS3.png' width = '100%;'>","null","","","","","","","","","",""
"","html-keyboard-response","133","514600","0.0-10.0-2.2","qyfvgxycjb","one_one","1","direct_first","1","ok09as04","1","27","1","1","3","1","","0","1","0","null","","","<img src = 'targets/10.png' width = '100%;'>","null","","","","","","","","","",""
"","html-keyboard-response","134","515231","0.0-10.0-3.2","qyfvgxycjb","one_one","1","direct_first","1","ok09as04","1","27","1","1","3","1","","0","1","0","630.5500000016764","","","<img src = 'targets/mask.png' width = '100%;'>","75","neg","GS","GSold","2","category2/CS3.png","","targets/10.png","indirect","1","2"
"","html-keyboard-response","135","516737","0.0-10.0-0.3","qyfvgxycjb","one_one","1","direct_first","1","ok09as04","1","27","1","1","3","1","","0","1","0","null","","","<div style=""font-size:60px;"">+</div>","null","","","","","","","","","",""
"","html-keyboard-response","136","516830","0.0-10.0-1.3","qyfvgxycjb","one_one","1","direct_first","1","ok09as04","1","27","1","1","3","1","","0","1","0","null","","","<img src = 'category4/CS6.png' width = '100%;'>","null","","","","","","","","","",""
"","html-keyboard-response","137","517088","0.0-10.0-2.3","qyfvgxycjb","one_one","1","direct_first","1","ok09as04","1","27","1","1","3","1","","0","1","0","null","","","<img src = 'targets/34.png' width = '100%;'>","null","","","","","","","","","",""
"","html-keyboard-response","138","518794","0.0-10.0-3.3","qyfvgxycjb","one_one","1","direct_first","1","ok09as04","1","27","1","1","3","1","","0","1","0","1704.985000018496","","","<img src = 'targets/mask.png' width = '100%;'>","75","neg","GS","GSold","4","category4/CS6.png","","targets/34.png","indirect","1","3"
"","html-keyboard-response","139","520301","0.0-10.0-0.4","qyfvgxycjb","one_one","1","direct_first","1","ok09as04","1","27","1","1","3","1","","0","1","0","null","","","<div style=""font-size:60px;"">+</div>","null","","","","","","","","","",""
"","html-keyboard-response","140","520393","0.0-10.0-1.4","qyfvgxycjb","one_one","1","direct_first","1","ok09as04","1","27","1","1","3","1","","0","1","0","null","","","<img src = 'category1/CS5.png' width = '100%;'>","null","","","","","","","","","",""
"","html-keyboard-response","141","520647","0.0-10.0-2.4","qyfvgxycjb","one_one","1","direct_first","1","ok09as04","1","27","1","1","3","1","","0","1","0","null","","","<img src = 'targets/37.png' width = '100%;'>","null","","","","","","","","","",""
"","html-keyboard-response","142","521833","0.0-10.0-3.4","qyfvgxycjb","one_one","1","direct_first","1","ok09as04","1","27","1","1","3","1","","0","1","0","1184.1549999662675","","","<img src = 'targets/mask.png' width = '100%;'>","75","pos","GS","GSold","1","category1/CS5.png","","targets/37.png","indirect","1","4"
"","html-keyboard-response","143","523335","0.0-10.0-0.5","qyfvgxycjb","one_one","1","direct_first","1","ok09as04","1","27","1","1","3","1","","0","1","0","null","","","<div style=""font-size:60px;"">+</div>","null","","","","","","","","","",""
"","html-keyboard-response","144","523430","0.0-10.0-1.5","qyfvgxycjb","one_one","1","direct_first","1","ok09as04","1","27","1","1","3","1","","0","1","0","null","","","<img src = 'category1/CS1.png' width = '100%;'>","null","","","","","","","","","",""
"","html-keyboard-response","145","523687","0.0-10.0-2.5","qyfvgxycjb","one_one","1","direct_first","1","ok09as04","1","27","1","1","3","1","","0","1","0","null","","","<img src = 'targets/48.png' width = '100%;'>","null","","","","","","","","","",""
"","html-keyboard-response","146","525947","0.0-10.0-3.5","qyfvgxycjb","one_one","1","direct_first","1","ok09as04","1","27","1","1","3","1","","0","1","0","2259.0100000379607","","","<img src = 'targets/mask.png' width = '100%;'>","75","pos","GS","GSold","1","category1/CS1.png","","targets/48.png","indirect","1","5"
"","html-keyboard-response","147","527450","0.0-10.0-0.6","qyfvgxycjb","one_one","1","direct_first","1","ok09as04","1","27","1","1","3","1","","0","1","0","null","","","<div style=""font-size:60px;"">+</div>","null","","","","","","","","","",""
"","html-keyboard-response","148","527541","0.0-10.0-1.6","qyfvgxycjb","one_one","1","direct_first","1","ok09as04","1","27","1","1","3","1","","0","1","0","null","","","<img src = 'category2/CS4.png' width = '100%;'>","null","","","","","","","","","",""
"","html-keyboard-response","149","527793","0.0-10.0-2.6","qyfvgxycjb","one_one","1","direct_first","1","ok09as04","1","27","1","1","3","1","","0","1","0","null","","","<img src = 'targets/21.png' width = '100%;'>","null","","","","","","","","","",""
"","html-keyboard-response","150","528635","0.0-10.0-3.6","qyfvgxycjb","one_one","1","direct_first","1","ok09as04","1","27","1","1","3","1","","0","1","0","841.0300000105053","","","<img src = 'targets/mask.png' width = '100%;'>","68","neg","GS","GSold","2","category2/CS4.png","","targets/21.png","indirect","0","6"
"","html-keyboard-response","151","530136","0.0-10.0-0.7","qyfvgxycjb","one_one","1","direct_first","1","ok09as04","1","27","1","1","3","1","","0","1","0","null","","","<div style=""font-size:60px;"">+</div>","null","","","","","","","","","",""
"","html-keyboard-response","152","530227","0.0-10.0-1.7","qyfvgxycjb","one_one","1","direct_first","1","ok09as04","1","27","1","1","3","1","","0","1","0","null","","","<img src = 'category1/CS2.png' width = '100%;'>","null","","","","","","","","","",""
"","html-keyboard-response","153","530487","0.0-10.0-2.7","qyfvgxycjb","one_one","1","direct_first","1","ok09as04","1","27","1","1","3","1","","0","1","0","null","","","<img src = 'targets/27.png' width = '100%;'>","null","","","","","","","","","",""
"","html-keyboard-response","154","532162","0.0-10.0-3.7","qyfvgxycjb","one_one","1","direct_first","1","ok09as04","1","27","1","1","3","1","","0","1","0","1673.975000041537","","","<img src = 'targets/mask.png' width = '100%;'>","75","pos","GS","GSold","1","category1/CS2.png","","targets/27.png","indirect","1","7"
"","html-keyboard-response","155","533673","0.0-10.0-0.8","qyfvgxycjb","one_one","1","direct_first","1","ok09as04","1","27","1","1","3","1","","0","1","0","null","","","<div style=""font-size:60px;"">+</div>","null","","","","","","","","","",""
"","html-keyboard-response","156","533769","0.0-10.0-1.8","qyfvgxycjb","one_one","1","direct_first","1","ok09as04","1","27","1","1","3","1","","0","1","0","null","","","<img src = 'category3/CS5.png' width = '100%;'>","null","","","","","","","","","",""
"","html-keyboard-response","157","534025","0.0-10.0-2.8","qyfvgxycjb","one_one","1","direct_first","1","ok09as04","1","27","1","1","3","1","","0","1","0","null","","","<img src = 'targets/22.png' width = '100%;'>","null","","","","","","","","","",""
"","html-keyboard-response","158","535939","0.0-10.0-3.8","qyfvgxycjb","one_one","1","direct_first","1","ok09as04","1","27","1","1","3","1","","0","1","0","1911.8400000152178","","","<img src = 'targets/mask.png' width = '100%;'>","68","pos","GS","GSold","3","category3/CS5.png","","targets/22.png","indirect","0","8"
"","html-keyboard-response","159","537440","0.0-10.0-0.9","qyfvgxycjb","one_one","1","direct_first","1","ok09as04","1","27","1","1","3","1","","0","1","0","null","","","<div style=""font-size:60px;"">+</div>","null","","","","","","","","","",""
"","html-keyboard-response","160","537533","0.0-10.0-1.9","qyfvgxycjb","one_one","1","direct_first","1","ok09as04","1","27","1","1","3","1","","0","1","0","null","","","<img src = 'category4/CS5.png' width = '100%;'>","null","","","","","","","","","",""
"","html-keyboard-response","161","537788","0.0-10.0-2.9","qyfvgxycjb","one_one","1","direct_first","1","ok09as04","1","27","1","1","3","1","","0","1","0","null","","","<img src = 'targets/14.png' width = '100%;'>","null","","","","","","","","","",""
"","html-keyboard-response","162","539666","0.0-10.0-3.9","qyfvgxycjb","one_one","1","direct_first","1","ok09as04","1","27","1","1","3","1","","0","1","0","1876.79999996908","","","<img src = 'targets/mask.png' width = '100%;'>","68","neg","GS","GSold","4","category4/CS5.png","","targets/14.png","indirect","0","9"
"","html-keyboard-response","163","541173","0.0-10.0-0.10","qyfvgxycjb","one_one","1","direct_first","1","ok09as04","1","27","1","1","3","1","","0","1","0","null","","","<div style=""font-size:60px;"">+</div>","null","","","","","","","","","",""
"","html-keyboard-response","164","541269","0.0-10.0-1.10","qyfvgxycjb","one_one","1","direct_first","1","ok09as04","1","27","1","1","3","1","","0","1","0","null","","","<img src = 'category2/CS10.png' width = '100%;'>","null","","","","","","","","","",""
"","html-keyboard-response","165","541526","0.0-10.0-2.10","qyfvgxycjb","one_one","1","direct_first","1","ok09as04","1","27","1","1","3","1","","0","1","0","null","","","<img src = 'targets/47.png' width = '100%;'>","null","","","","","","","","","",""
"","html-keyboard-response","166","542164","0.0-10.0-3.10","qyfvgxycjb","one_one","1","direct_first","1","ok09as04","1","27","1","1","3","1","","0","1","0","635.9949999605305","","","<img src = 'targets/mask.png' width = '100%;'>","75","neg","CS","CS","2","category2/CS10.png","","targets/47.png","indirect","1","10"
"","html-keyboard-response","167","543673","0.0-10.0-0.11","qyfvgxycjb","one_one","1","direct_first","1","ok09as04","1","27","1","1","3","1","","0","1","0","null","","","<div style=""font-size:60px;"">+</div>","null","","","","","","","","","",""
"","html-keyboard-response","168","543769","0.0-10.0-1.11","qyfvgxycjb","one_one","1","direct_first","1","ok09as04","1","27","1","1","3","1","","0","1","0","null","","","<img src = 'category2/CS8.png' width = '100%;'>","null","","","","","","","","","",""
"","html-keyboard-response","169","544026","0.0-10.0-2.11","qyfvgxycjb","one_one","1","direct_first","1","ok09as04","1","27","1","1","3","1","","0","1","0","null","","","<img src = 'targets/13.png' width = '100%;'>","null","","","","","","","","","",""
"","html-keyboard-response","170","544702","0.0-10.0-3.11","qyfvgxycjb","one_one","1","direct_first","1","ok09as04","1","27","1","1","3","1","","0","1","0","674.5250000385568","","","<img src = 'targets/mask.png' width = '100%;'>","68","neg","GS","GSold","2","category2/CS8.png","","targets/13.png","indirect","0","11"
"","html-keyboard-response","171","546206","0.0-10.0-0.12","qyfvgxycjb","one_one","1","direct_first","1","ok09as04","1","27","1","1","3","1","","0","1","0","null","","","<div style=""font-size:60px;"">+</div>","null","","","","","","","","","",""
"","html-keyboard-response","172","546302","0.0-10.0-1.12","qyfvgxycjb","one_one","1","direct_first","1","ok09as04","1","27","1","1","3","1","","0","1","0","null","","","<img src = 'category4/CS4.png' width = '100%;'>","null","","","","","","","","","",""
"","html-keyboard-response","173","546557","0.0-10.0-2.12","qyfvgxycjb","one_one","1","direct_first","1","ok09as04","1","27","1","1","3","1","","0","1","0","null","","","<img src = 'targets/15.png' width = '100%;'>","null","","","","","","","","","",""
"","html-keyboard-response","174","549080","0.0-10.0-3.12","qyfvgxycjb","one_one","1","direct_first","1","ok09as04","1","27","1","1","3","1","","0","1","0","2519.51499999268","","","<img src = 'targets/mask.png' width = '100%;'>","75","neg","GS","GSold","4","category4/CS4.png","","targets/15.png","indirect","1","12"
"","html-keyboard-response","175","550590","0.0-10.0-0.13","qyfvgxycjb","one_one","1","direct_first","1","ok09as04","1","27","1","1","3","1","","0","1","0","null","","","<div style=""font-size:60px;"">+</div>","null","","","","","","","","","",""
"","html-keyboard-response","176","550682","0.0-10.0-1.13","qyfvgxycjb","one_one","1","direct_first","1","ok09as04","1","27","1","1","3","1","","0","1","0","null","","","<img src = 'category3/CS9.png' width = '100%;'>","null","","","","","","","","","",""
"","html-keyboard-response","177","550941","0.0-10.0-2.13","qyfvgxycjb","one_one","1","direct_first","1","ok09as04","1","27","1","1","3","1","","0","1","0","null","","","<img src = 'targets/2.png' width = '100%;'>","null","","","","","","","","","",""
"","html-keyboard-response","178","551535","0.0-10.0-3.13","qyfvgxycjb","one_one","1","direct_first","1","ok09as04","1","27","1","1","3","1","","0","1","0","592.8900000290014","","","<img src = 'targets/mask.png' width = '100%;'>","75","pos","GS","GSold","3","category3/CS9.png","","targets/2.png","indirect","1","13"
"","html-keyboard-response","179","553037","0.0-10.0-0.14","qyfvgxycjb","one_one","1","direct_first","1","ok09as04","1","27","1","1","3","1","","0","1","0","null","","","<div style=""font-size:60px;"">+</div>","null","","","","","","","","","",""
"","html-keyboard-response","180","553133","0.0-10.0-1.14","qyfvgxycjb","one_one","1","direct_first","1","ok09as04","1","27","1","1","3","1","","0","1","0","null","","","<img src = 'category3/CS3.png' width = '100%;'>","null","","","","","","","","","",""
"","html-keyboard-response","181","553386","0.0-10.0-2.14","qyfvgxycjb","one_one","1","direct_first","1","ok09as04","1","27","1","1","3","1","","0","1","0","null","","","<img src = 'targets/28.png' width = '100%;'>","null","","","","","","","","","",""
"","html-keyboard-response","182","554263","0.0-10.0-3.14","qyfvgxycjb","one_one","1","direct_first","1","ok09as04","1","27","1","1","3","1","","0","1","0","876.2599999899976","","","<img src = 'targets/mask.png' width = '100%;'>","68","pos","CS","CS","3","category3/CS3.png","","targets/28.png","indirect","0","14"
"","html-keyboard-response","183","555769","0.0-10.0-0.15","qyfvgxycjb","one_one","1","direct_first","1","ok09as04","1","27","1","1","3","1","","0","1","0","null","","","<div style=""font-size:60px;"">+</div>","null","","","","","","","","","",""
"","html-keyboard-response","184","555865","0.0-10.0-1.15","qyfvgxycjb","one_one","1","direct_first","1","ok09as04","1","27","1","1","3","1","","0","1","0","null","","","<img src = 'category1/CS10.png' width = '100%;'>","null","","","","","","","","","",""
"","html-keyboard-response","185","556121","0.0-10.0-2.15","qyfvgxycjb","one_one","1","direct_first","1","ok09as04","1","27","1","1","3","1","","0","1","0","null","","","<img src = 'targets/45.png' width = '100%;'>","null","","","","","","","","","",""
"","html-keyboard-response","186","556754","0.0-10.0-3.15","qyfvgxycjb","one_one","1","direct_first","1","ok09as04","1","27","1","1","3","1","","0","1","0","632.1599999791943","","","<img src = 'targets/mask.png' width = '100%;'>","75","pos","CS","CS","1","category1/CS10.png","","targets/45.png","indirect","1","15"
"","survey-html-form","187","559410","0.0-11.0","qyfvgxycjb","one_one","1","direct_first","1","ok09as04","1","27","1","1","3","1","","0","1","0","2155.0200000056066","","{}","","","","","","","","","","","",""
"","html-keyboard-response","188","562418","0.0-12.0-0.0","qyfvgxycjb","one_one","1","direct_first","1","ok09as04","1","27","1","1","3","1","","0","1","0","null","","","<div style=""font-size:60px;"">+</div>","null","","","","","","","","","",""
"","html-keyboard-response","189","562514","0.0-12.0-1.0","qyfvgxycjb","one_one","1","direct_first","1","ok09as04","1","27","1","1","3","1","","0","1","0","null","","","<img src = 'category2/men.png' width = '100%;'>","null","","","","","","","","","",""
"","html-keyboard-response","190","562771","0.0-12.0-2.0","qyfvgxycjb","one_one","1","direct_first","1","ok09as04","1","27","1","1","3","1","","0","1","0","null","","","<img src = 'targets/46.png' width = '100%;'>","null","","","","","","","","","",""
"","html-keyboard-response","191","563389","0.0-12.0-3.0","qyfvgxycjb","one_one","1","direct_first","1","ok09as04","1","27","1","1","3","1","","0","1","0","615.9050000132993","","","<img src = 'targets/mask.png' width = '100%;'>","75","neg","GS","abstract","2","category2/men.png","","targets/46.png","indirect","1","16"
"","html-keyboard-response","192","564894","0.0-12.0-0.1","qyfvgxycjb","one_one","1","direct_first","1","ok09as04","1","27","1","1","3","1","","0","1","0","null","","","<div style=""font-size:60px;"">+</div>","null","","","","","","","","","",""
"","html-keyboard-response","193","564989","0.0-12.0-1.1","qyfvgxycjb","one_one","1","direct_first","1","ok09as04","1","27","1","1","3","1","","0","1","0","null","","","<img src = 'category4/GS2.png' width = '100%;'>","null","","","","","","","","","",""
"","html-keyboard-response","194","565245","0.0-12.0-2.1","qyfvgxycjb","one_one","1","direct_first","1","ok09as04","1","27","1","1","3","1","","0","1","0","null","","","<img src = 'targets/26.png' width = '100%;'>","null","","","","","","","","","",""
"","html-keyboard-response","195","566368","0.0-12.0-3.1","qyfvgxycjb","one_one","1","direct_first","1","ok09as04","1","27","1","1","3","1","","0","1","0","1121.7499999911524","","","<img src = 'targets/mask.png' width = '100%;'>","68","neg","GS","GSnew","4","category4/GS2.png","","targets/26.png","indirect","0","17"
"","html-keyboard-response","196","567877","0.0-12.0-0.2","qyfvgxycjb","one_one","1","direct_first","1","ok09as04","1","27","1","1","3","1","","0","1","0","null","","","<div style=""font-size:60px;"">+</div>","null","","","","","","","","","",""
"","html-keyboard-response","197","567969","0.0-12.0-1.2","qyfvgxycjb","one_one","1","direct_first","1","ok09as04","1","27","1","1","3","1","","0","1","0","null","","","<img src = 'category4/lin.png' width = '100%;'>","null","","","","","","","","","",""
"","html-keyboard-response","198","568224","0.0-12.0-2.2","qyfvgxycjb","one_one","1","direct_first","1","ok09as04","1","27","1","1","3","1","","0","1","0","null","","","<img src = 'targets/18.png' width = '100%;'>","null","","","","","","","","","",""
"","html-keyboard-response","199","569590","0.0-12.0-3.2","qyfvgxycjb","one_one","1","direct_first","1","ok09as04","1","27","1","1","3","1","","0","1","0","1364.579999994021","","","<img src = 'targets/mask.png' width = '100%;'>","68","neg","GS","abstract","4","category4/lin.png","","targets/18.png","indirect","0","18"
"","html-keyboard-response","200","571098","0.0-12.0-0.3","qyfvgxycjb","one_one","1","direct_first","1","ok09as04","1","27","1","1","3","1","","0","1","0","null","","","<div style=""font-size:60px;"">+</div>","null","","","","","","","","","",""
"","html-keyboard-response","201","571195","0.0-12.0-1.3","qyfvgxycjb","one_one","1","direct_first","1","ok09as04","1","27","1","1","3","1","","0","1","0","null","","","<img src = 'category1/GS2.png' width = '100%;'>","null","","","","","","","","","",""
"","html-keyboard-response","202","571450","0.0-12.0-2.3","qyfvgxycjb","one_one","1","direct_first","1","ok09as04","1","27","1","1","3","1","","0","1","0","null","","","<img src = 'targets/32.png' width = '100%;'>","null","","","","","","","","","",""
"","html-keyboard-response","203","572401","0.0-12.0-3.3","qyfvgxycjb","one_one","1","direct_first","1","ok09as04","1","27","1","1","3","1","","0","1","0","949.3750000256114","","","<img src = 'targets/mask.png' width = '100%;'>","75","pos","GS","GSnew","1","category1/GS2.png","","targets/32.png","indirect","1","19"
"","html-keyboard-response","204","573902","0.0-12.0-0.4","qyfvgxycjb","one_one","1","direct_first","1","ok09as04","1","27","1","1","3","1","","0","1","0","null","","","<div style=""font-size:60px;"">+</div>","null","","","","","","","","","",""
"","html-keyboard-response","205","573998","0.0-12.0-1.4","qyfvgxycjb","one_one","1","direct_first","1","ok09as04","1","27","1","1","3","1","","0","1","0","null","","","<img src = 'category4/GS1.png' width = '100%;'>","null","","","","","","","","","",""
"","html-keyboard-response","206","574253","0.0-12.0-2.4","qyfvgxycjb","one_one","1","direct_first","1","ok09as04","1","27","1","1","3","1","","0","1","0","null","","","<img src = 'targets/12.png' width = '100%;'>","null","","","","","","","","","",""
"","html-keyboard-response","207","574950","0.0-12.0-3.4","qyfvgxycjb","one_one","1","direct_first","1","ok09as04","1","27","1","1","3","1","","0","1","0","695.1550000230782","","","<img src = 'targets/mask.png' width = '100%;'>","75","neg","GS","GSnew","4","category4/GS1.png","","targets/12.png","indirect","1","20"
"","html-keyboard-response","208","576458","0.0-12.0-0.5","qyfvgxycjb","one_one","1","direct_first","1","ok09as04","1","27","1","1","3","1","","0","1","0","null","","","<div style=""font-size:60px;"">+</div>","null","","","","","","","","","",""
"","html-keyboard-response","209","576554","0.0-12.0-1.5","qyfvgxycjb","one_one","1","direct_first","1","ok09as04","1","27","1","1","3","1","","0","1","0","null","","","<img src = 'category3/GS2.png' width = '100%;'>","null","","","","","","","","","",""
"","html-keyboard-response","210","576810","0.0-12.0-2.5","qyfvgxycjb","one_one","1","direct_first","1","ok09as04","1","27","1","1","3","1","","0","1","0","null","","","<img src = 'targets/41.png' width = '100%;'>","null","","","","","","","","","",""
"","html-keyboard-response","211","577554","0.0-12.0-3.5","qyfvgxycjb","one_one","1","direct_first","1","ok09as04","1","27","1","1","3","1","","0","1","0","743.2049999479204","","","<img src = 'targets/mask.png' width = '100%;'>","75","pos","GS","GSnew","3","category3/GS2.png","","targets/41.png","indirect","1","21"
"","html-keyboard-response","212","579059","0.0-12.0-0.6","qyfvgxycjb","one_one","1","direct_first","1","ok09as04","1","27","1","1","3","1","","0","1","0","null","","","<div style=""font-size:60px;"">+</div>","null","","","","","","","","","",""
"","html-keyboard-response","213","579151","0.0-12.0-1.6","qyfvgxycjb","one_one","1","direct_first","1","ok09as04","1","27","1","1","3","1","","0","1","0","null","","","<img src = 'category1/GS3.png' width = '100%;'>","null","","","","","","","","","",""
"","html-keyboard-response","214","579407","0.0-12.0-2.6","qyfvgxycjb","one_one","1","direct_first","1","ok09as04","1","27","1","1","3","1","","0","1","0","null","","","<img src = 'targets/23.png' width = '100%;'>","null","","","","","","","","","",""
"","html-keyboard-response","215","582015","0.0-12.0-3.6","qyfvgxycjb","one_one","1","direct_first","1","ok09as04","1","27","1","1","3","1","","0","1","0","2607.7449999866076","","","<img src = 'targets/mask.png' width = '100%;'>","68","pos","GS","GSnew","1","category1/GS3.png","","targets/23.png","indirect","0","22"
"","html-keyboard-response","216","583520","0.0-12.0-0.7","qyfvgxycjb","one_one","1","direct_first","1","ok09as04","1","27","1","1","3","1","","0","1","0","null","","","<div style=""font-size:60px;"">+</div>","null","","","","","","","","","",""
"","html-keyboard-response","217","583614","0.0-12.0-1.7","qyfvgxycjb","one_one","1","direct_first","1","ok09as04","1","27","1","1","3","1","","0","1","0","null","","","<img src = 'category3/wang.png' width = '100%;'>","null","","","","","","","","","",""
"","html-keyboard-response","218","583870","0.0-12.0-2.7","qyfvgxycjb","one_one","1","direct_first","1","ok09as04","1","27","1","1","3","1","","0","1","0","null","","","<img src = 'targets/1.png' width = '100%;'>","null","","","","","","","","","",""
"","html-keyboard-response","219","585647","0.0-12.0-3.7","qyfvgxycjb","one_one","1","direct_first","1","ok09as04","1","27","1","1","3","1","","0","1","0","1776.3850000337698","","","<img src = 'targets/mask.png' width = '100%;'>","68","pos","GS","abstract","3","category3/wang.png","","targets/1.png","indirect","0","23"
"","html-keyboard-response","220","587153","0.0-12.0-0.8","qyfvgxycjb","one_one","1","direct_first","1","ok09as04","1","27","1","1","3","1","","0","1","0","null","","","<div style=""font-size:60px;"">+</div>","null","","","","","","","","","",""
"","html-keyboard-response","221","587245","0.0-12.0-1.8","qyfvgxycjb","one_one","1","direct_first","1","ok09as04","1","27","1","1","3","1","","0","1","0","null","","","<img src = 'category2/GS3.png' width = '100%;'>","null","","","","","","","","","",""
"","html-keyboard-response","222","587497","0.0-12.0-2.8","qyfvgxycjb","one_one","1","direct_first","1","ok09as04","1","27","1","1","3","1","","0","1","0","null","","","<img src = 'targets/35.png' width = '100%;'>","null","","","","","","","","","",""
"","html-keyboard-response","223","588534","0.0-12.0-3.8","qyfvgxycjb","one_one","1","direct_first","1","ok09as04","1","27","1","1","3","1","","0","1","0","1035.280000010971","","","<img src = 'targets/mask.png' width = '100%;'>","68","neg","GS","GSnew","2","category2/GS3.png","","targets/35.png","indirect","0","24"
"","html-keyboard-response","224","590038","0.0-12.0-0.9","qyfvgxycjb","one_one","1","direct_first","1","ok09as04","1","27","1","1","3","1","","0","1","0","null","","","<div style=""font-size:60px;"">+</div>","null","","","","","","","","","",""
"","html-keyboard-response","225","590134","0.0-12.0-1.9","qyfvgxycjb","one_one","1","direct_first","1","ok09as04","1","27","1","1","3","1","","0","1","0","null","","","<img src = 'category3/GS1.png' width = '100%;'>","null","","","","","","","","","",""
"","html-keyboard-response","226","590389","0.0-12.0-2.9","qyfvgxycjb","one_one","1","direct_first","1","ok09as04","1","27","1","1","3","1","","0","1","0","null","","","<img src = 'targets/33.png' width = '100%;'>","null","","","","","","","","","",""
"","html-keyboard-response","227","591021","0.0-12.0-3.9","qyfvgxycjb","one_one","1","direct_first","1","ok09as04","1","27","1","1","3","1","","0","1","0","630.0150000024587","","","<img src = 'targets/mask.png' width = '100%;'>","75","pos","GS","GSnew","3","category3/GS1.png","","targets/33.png","indirect","1","25"
"","html-keyboard-response","228","592526","0.0-12.0-0.10","qyfvgxycjb","one_one","1","direct_first","1","ok09as04","1","27","1","1","3","1","","0","1","0","null","","","<div style=""font-size:60px;"">+</div>","null","","","","","","","","","",""
"","html-keyboard-response","229","592621","0.0-12.0-1.10","qyfvgxycjb","one_one","1","direct_first","1","ok09as04","1","27","1","1","3","1","","0","1","0","null","","","<img src = 'category2/GS2.png' width = '100%;'>","null","","","","","","","","","",""
"","html-keyboard-response","230","592875","0.0-12.0-2.10","qyfvgxycjb","one_one","1","direct_first","1","ok09as04","1","27","1","1","3","1","","0","1","0","null","","","<img src = 'targets/5.png' width = '100%;'>","null","","","","","","","","","",""
"","html-keyboard-response","231","593435","0.0-12.0-3.10","qyfvgxycjb","one_one","1","direct_first","1","ok09as04","1","27","1","1","3","1","","0","1","0","559.1500000446104","","","<img src = 'targets/mask.png' width = '100%;'>","75","neg","GS","GSnew","2","category2/GS2.png","","targets/5.png","indirect","1","26"
"","html-keyboard-response","232","594941","0.0-12.0-0.11","qyfvgxycjb","one_one","1","direct_first","1","ok09as04","1","27","1","1","3","1","","0","1","0","null","","","<div style=""font-size:60px;"">+</div>","null","","","","","","","","","",""
"","html-keyboard-response","233","595033","0.0-12.0-1.11","qyfvgxycjb","one_one","1","direct_first","1","ok09as04","1","27","1","1","3","1","","0","1","0","null","","","<img src = 'category1/GS1.png' width = '100%;'>","null","","","","","","","","","",""
"","html-keyboard-response","234","595288","0.0-12.0-2.11","qyfvgxycjb","one_one","1","direct_first","1","ok09as04","1","27","1","1","3","1","","0","1","0","null","","","<img src = 'targets/39.png' width = '100%;'>","null","","","","","","","","","",""
"","html-keyboard-response","235","595800","0.0-12.0-3.11","qyfvgxycjb","one_one","1","direct_first","1","ok09as04","1","27","1","1","3","1","","0","1","0","510.96500002313405","","","<img src = 'targets/mask.png' width = '100%;'>","75","pos","GS","GSnew","1","category1/GS1.png","","targets/39.png","indirect","1","27"
"","html-keyboard-response","236","597309","0.0-12.0-0.12","qyfvgxycjb","one_one","1","direct_first","1","ok09as04","1","27","1","1","3","1","","0","1","0","null","","","<div style=""font-size:60px;"">+</div>","null","","","","","","","","","",""
"","html-keyboard-response","237","597405","0.0-12.0-1.12","qyfvgxycjb","one_one","1","direct_first","1","ok09as04","1","27","1","1","3","1","","0","1","0","null","","","<img src = 'category1/ma.png' width = '100%;'>","null","","","","","","","","","",""
"","html-keyboard-response","238","597661","0.0-12.0-2.12","qyfvgxycjb","one_one","1","direct_first","1","ok09as04","1","27","1","1","3","1","","0","1","0","null","","","<img src = 'targets/43.png' width = '100%;'>","null","","","","","","","","","",""
"","html-keyboard-response","239","598381","0.0-12.0-3.12","qyfvgxycjb","one_one","1","direct_first","1","ok09as04","1","27","1","1","3","1","","0","1","0","718.5049999970943","","","<img src = 'targets/mask.png' width = '100%;'>","68","pos","GS","abstract","1","category1/ma.png","","targets/43.png","indirect","0","28"
"","html-keyboard-response","240","599889","0.0-12.0-0.13","qyfvgxycjb","one_one","1","direct_first","1","ok09as04","1","27","1","1","3","1","","0","1","0","null","","","<div style=""font-size:60px;"">+</div>","null","","","","","","","","","",""
"","html-keyboard-response","241","599985","0.0-12.0-1.13","qyfvgxycjb","one_one","1","direct_first","1","ok09as04","1","27","1","1","3","1","","0","1","0","null","","","<img src = 'category3/GS3.png' width = '100%;'>","null","","","","","","","","","",""
"","html-keyboard-response","242","600241","0.0-12.0-2.13","qyfvgxycjb","one_one","1","direct_first","1","ok09as04","1","27","1","1","3","1","","0","1","0","null","","","<img src = 'targets/40.png' width = '100%;'>","null","","","","","","","","","",""
"","html-keyboard-response","243","601268","0.0-12.0-3.13","qyfvgxycjb","one_one","1","direct_first","1","ok09as04","1","27","1","1","3","1","","0","1","0","1026.4399999869056","","","<img src = 'targets/mask.png' width = '100%;'>","68","pos","GS","GSnew","3","category3/GS3.png","","targets/40.png","indirect","0","29"
"","html-keyboard-response","244","602773","0.0-12.0-0.14","qyfvgxycjb","one_one","1","direct_first","1","ok09as04","1","27","1","1","3","1","","0","1","0","null","","","<div style=""font-size:60px;"">+</div>","null","","","","","","","","","",""
"","html-keyboard-response","245","602867","0.0-12.0-1.14","qyfvgxycjb","one_one","1","direct_first","1","ok09as04","1","27","1","1","3","1","","0","1","0","null","","","<img src = 'category2/GS1.png' width = '100%;'>","null","","","","","","","","","",""
"","html-keyboard-response","246","603127","0.0-12.0-2.14","qyfvgxycjb","one_one","1","direct_first","1","ok09as04","1","27","1","1","3","1","","0","1","0","null","","","<img src = 'targets/16.png' width = '100%;'>","null","","","","","","","","","",""
"","html-keyboard-response","247","603911","0.0-12.0-3.14","qyfvgxycjb","one_one","1","direct_first","1","ok09as04","1","27","1","1","3","1","","0","1","0","783.2599999965169","","","<img src = 'targets/mask.png' width = '100%;'>","68","neg","GS","GSnew","2","category2/GS1.png","","targets/16.png","indirect","0","30"
"","html-keyboard-response","248","605418","0.0-12.0-0.15","qyfvgxycjb","one_one","1","direct_first","1","ok09as04","1","27","1","1","3","1","","0","1","0","null","","","<div style=""font-size:60px;"">+</div>","null","","","","","","","","","",""
"","html-keyboard-response","249","605509","0.0-12.0-1.15","qyfvgxycjb","one_one","1","direct_first","1","ok09as04","1","27","1","1","3","1","","0","1","0","null","","","<img src = 'category4/GS3.png' width = '100%;'>","null","","","","","","","","","",""
"","html-keyboard-response","250","605766","0.0-12.0-2.15","qyfvgxycjb","one_one","1","direct_first","1","ok09as04","1","27","1","1","3","1","","0","1","0","null","","","<img src = 'targets/7.png' width = '100%;'>","null","","","","","","","","","",""
"","html-keyboard-response","251","607128","0.0-12.0-3.15","qyfvgxycjb","one_one","1","direct_first","1","ok09as04","1","27","1","1","3","1","","0","1","0","1360.7600000104867","","","<img src = 'targets/mask.png' width = '100%;'>","75","neg","GS","GSnew","4","category4/GS3.png","","targets/7.png","indirect","1","31"
"","survey-html-form","252","611300","0.0-13.0","qyfvgxycjb","one_one","1","direct_first","1","ok09as04","1","27","1","1","3","1","","0","1","0","3668.665000004694","","{}","","","","","","","","","","","",""
"","image-slider-response","253","616646","0.0-14.0-0.0","qyfvgxycjb","one_one","1","direct_first","1","ok09as04","1","27","1","1","3","1","","0","1","0","4339.195000007749","","","","","pos","All","all","3","category3/wang_all.png","34","","all","",""
"","image-slider-response","254","619678","0.0-14.0-0.1","qyfvgxycjb","one_one","1","direct_first","1","ok09as04","1","27","1","1","3","1","","0","1","0","3029.9050000030547","","","","","pos","All","all","1","category1/ma_all.png","-84","","all","",""
"","image-slider-response","255","622479","0.0-14.0-0.2","qyfvgxycjb","one_one","1","direct_first","1","ok09as04","1","27","1","1","3","1","","0","1","0","2798.469999979716","","","","","neg","All","all","2","category2/men_all.png","65","","all","",""
"","image-slider-response","256","625663","0.0-14.0-0.3","qyfvgxycjb","one_one","1","direct_first","1","ok09as04","1","27","1","1","3","1","","0","1","0","3182.0300000254065","","","","","neg","All","all","4","category4/lin_all.png","-86","","all","",""
"","survey-text","257","628359","0.0-15.0","qyfvgxycjb","one_one","1","direct_first","1","ok09as04","1","27","1","1","3","1","","0","1","0","2685.8099999953993","","{""comment"":""""}","","","","","","","","","","","",""
"","survey-html-form","258","639535","0.0-16.0","qyfvgxycjb","one_one","1","direct_first","1","ok09as04","1","27","1","1","3","1","","0","1","0","11173.045000003185","","{""hinschauen"":""0"",""ablenkung"":""1"",""gewissenhaft"":""0""}","","","","","","","","","","","",""
