"success","trial_type","trial_index","time_elapsed","internal_node_id","subject","condition","condition_code","measure","measure_code","codeword","gender","age","education","chinese","fach","handedness","rt","url","responses","stimulus","key_press","val","type","type_specific","category","cs_selected","target","indirect","task","nr_pres","response"
"true","fullscreen","0","4901","0.0-0.0","oqpth3331g","many_one","0","indirect_first","0","CK05EN27","1","22","1","1","3","1","","","","","","","","","","","","","","",""
"","external-html","1","40218","0.0-1.0","oqpth3331g","many_one","0","indirect_first","0","CK05EN27","1","22","1","1","3","1","35271.415000082925","text/information.html","","","","","","","","","","","","",""
"","external-html","2","58147","0.0-2.0","oqpth3331g","many_one","0","indirect_first","0","CK05EN27","1","22","1","1","3","1","17847.765000071377","text/consent.html","","","","","","","","","","","","",""
"","survey-html-form","3","90563","0.0-3.0","oqpth3331g","many_one","0","indirect_first","0","CK05EN27","1","22","1","1","3","1","32411.9649999775","","{""codeword_enter"":""CK05EN27""}","","","","","","","","","","","",""
"","survey-html-form","4","149484","0.0-4.0","oqpth3331g","many_one","0","indirect_first","0","CK05EN27","1","22","1","1","3","1","58917.35000000335","","{""age"":""22"",""education"":""1"",""subject"":""3"",""gender"":""1"",""handedness"":""1"",""chinese"":""1""}","","","","","","","","","","","",""
"","survey-html-form","5","201585","0.0-5.0","oqpth3331g","many_one","0","indirect_first","0","CK05EN27","1","22","1","1","3","1","52098.50999992341","","{}","","","","","","","","","","","",""
"","html-keyboard-response","6","205600","0.0-6.0-0.0-0.0","oqpth3331g","many_one","0","indirect_first","0","CK05EN27","1","22","1","1","3","1","null","","","<div class = 'row'><div class = 'column'><img src = 'category4/CS9.png' width = '70%;'></div><div class = 'column'><img src = 'uspos/2208.bmp' width = '100%;'></div></div>","null","pos","CS","CS","4","category4/CS9.png","","","","",""
"","html-keyboard-response","7","208107","0.0-6.0-0.0-0.1","oqpth3331g","many_one","0","indirect_first","0","CK05EN27","1","22","1","1","3","1","null","","","<div class = 'row'><div class = 'column'><img src = 'category3/CS3.png' width = '70%;'></div><div class = 'column'><img src = 'usneg/6570.1.bmp' width = '100%;'></div></div>","null","neg","CS","CS","3","category3/CS3.png","","","","",""
"","html-keyboard-response","8","210614","0.0-6.0-0.0-0.2","oqpth3331g","many_one","0","indirect_first","0","CK05EN27","1","22","1","1","3","1","null","","","<div class = 'row'><div class = 'column'><img src = 'category1/CS7.png' width = '70%;'></div><div class = 'column'><img src = 'uspos/1463.bmp' width = '100%;'></div></div>","null","pos","CS","CS","1","category1/CS7.png","","","","",""
"","html-keyboard-response","9","213121","0.0-6.0-0.0-0.3","oqpth3331g","many_one","0","indirect_first","0","CK05EN27","1","22","1","1","3","1","null","","","<div class = 'row'><div class = 'column'><img src = 'category3/CS9.png' width = '70%;'></div><div class = 'column'><img src = 'usneg/9435.bmp' width = '100%;'></div></div>","null","neg","CS","CS","3","category3/CS9.png","","","","",""
"","html-keyboard-response","10","215632","0.0-6.0-0.0-0.4","oqpth3331g","many_one","0","indirect_first","0","CK05EN27","1","22","1","1","3","1","null","","","<div class = 'row'><div class = 'column'><img src = 'usneg/6020.bmp' width = '100%;'></div><div class = 'column'><img src = 'category2/CS7.png' width = '70%;'></div></div>","null","neg","CS","CS","2","category2/CS7.png","","","","",""
"","html-keyboard-response","11","218143","0.0-6.0-0.0-0.5","oqpth3331g","many_one","0","indirect_first","0","CK05EN27","1","22","1","1","3","1","null","","","<div class = 'row'><div class = 'column'><img src = 'uspos/2900.2.bmp' width = '100%;'></div><div class = 'column'><img src = 'category4/CS3.png' width = '70%;'></div></div>","null","pos","CS","CS","4","category4/CS3.png","","","","",""
"","html-keyboard-response","12","220663","0.0-6.0-0.0-0.6","oqpth3331g","many_one","0","indirect_first","0","CK05EN27","1","22","1","1","3","1","null","","","<div class = 'row'><div class = 'column'><img src = 'uspos/2030.bmp' width = '100%;'></div><div class = 'column'><img src = 'category1/CS8.png' width = '70%;'></div></div>","null","pos","CS","CS","1","category1/CS8.png","","","","",""
"","html-keyboard-response","13","223174","0.0-6.0-0.0-0.7","oqpth3331g","many_one","0","indirect_first","0","CK05EN27","1","22","1","1","3","1","null","","","<div class = 'row'><div class = 'column'><img src = 'usneg/9041.bmp' width = '100%;'></div><div class = 'column'><img src = 'category3/CS4.png' width = '70%;'></div></div>","null","neg","CS","CS","3","category3/CS4.png","","","","",""
"","html-keyboard-response","14","225688","0.0-6.0-0.0-0.8","oqpth3331g","many_one","0","indirect_first","0","CK05EN27","1","22","1","1","3","1","null","","","<div class = 'row'><div class = 'column'><img src = 'category1/CS1.png' width = '70%;'></div><div class = 'column'><img src = 'uspos/5470.bmp' width = '100%;'></div></div>","null","pos","CS","CS","1","category1/CS1.png","","","","",""
"","html-keyboard-response","15","228208","0.0-6.0-0.0-0.9","oqpth3331g","many_one","0","indirect_first","0","CK05EN27","1","22","1","1","3","1","null","","","<div class = 'row'><div class = 'column'><img src = 'usneg/6212.bmp' width = '100%;'></div><div class = 'column'><img src = 'category3/CS5.png' width = '70%;'></div></div>","null","neg","CS","CS","3","category3/CS5.png","","","","",""
"","html-keyboard-response","16","230724","0.0-6.0-0.0-0.10","oqpth3331g","many_one","0","indirect_first","0","CK05EN27","1","22","1","1","3","1","null","","","<div class = 'row'><div class = 'column'><img src = 'category4/CS5.png' width = '70%;'></div><div class = 'column'><img src = 'uspos/2360.bmp' width = '100%;'></div></div>","null","pos","CS","CS","4","category4/CS5.png","","","","",""
"","html-keyboard-response","17","233239","0.0-6.0-0.0-0.11","oqpth3331g","many_one","0","indirect_first","0","CK05EN27","1","22","1","1","3","1","null","","","<div class = 'row'><div class = 'column'><img src = 'category2/CS4.png' width = '70%;'></div><div class = 'column'><img src = 'usneg/2900.bmp' width = '100%;'></div></div>","null","neg","CS","CS","2","category2/CS4.png","","","","",""
"","html-keyboard-response","18","235756","0.0-6.0-0.0-0.12","oqpth3331g","many_one","0","indirect_first","0","CK05EN27","1","22","1","1","3","1","null","","","<div class = 'row'><div class = 'column'><img src = 'uspos/8350.bmp' width = '100%;'></div><div class = 'column'><img src = 'category1/CS5.png' width = '70%;'></div></div>","null","pos","CS","CS","1","category1/CS5.png","","","","",""
"","html-keyboard-response","19","238263","0.0-6.0-0.0-0.13","oqpth3331g","many_one","0","indirect_first","0","CK05EN27","1","22","1","1","3","1","null","","","<div class = 'row'><div class = 'column'><img src = 'usneg/9290.bmp' width = '100%;'></div><div class = 'column'><img src = 'category2/CS3.png' width = '70%;'></div></div>","null","neg","CS","CS","2","category2/CS3.png","","","","",""
"","html-keyboard-response","20","240780","0.0-6.0-0.0-0.14","oqpth3331g","many_one","0","indirect_first","0","CK05EN27","1","22","1","1","3","1","null","","","<div class = 'row'><div class = 'column'><img src = 'uspos/2311.bmp' width = '100%;'></div><div class = 'column'><img src = 'category1/CS3.png' width = '70%;'></div></div>","null","pos","CS","CS","1","category1/CS3.png","","","","",""
"","html-keyboard-response","21","243317","0.0-6.0-0.0-0.15","oqpth3331g","many_one","0","indirect_first","0","CK05EN27","1","22","1","1","3","1","null","","","<div class = 'row'><div class = 'column'><img src = 'category2/CS2.png' width = '70%;'></div><div class = 'column'><img src = 'usneg/9182.bmp' width = '100%;'></div></div>","null","neg","CS","CS","2","category2/CS2.png","","","","",""
"","html-keyboard-response","22","245823","0.0-6.0-0.0-0.16","oqpth3331g","many_one","0","indirect_first","0","CK05EN27","1","22","1","1","3","1","null","","","<div class = 'row'><div class = 'column'><img src = 'usneg/9404.bmp' width = '100%;'></div><div class = 'column'><img src = 'category3/CS10.png' width = '70%;'></div></div>","null","neg","CS","CS","3","category3/CS10.png","","","","",""
"","html-keyboard-response","23","248334","0.0-6.0-0.0-0.17","oqpth3331g","many_one","0","indirect_first","0","CK05EN27","1","22","1","1","3","1","null","","","<div class = 'row'><div class = 'column'><img src = 'usneg/7380.bmp' width = '100%;'></div><div class = 'column'><img src = 'category2/CS5.png' width = '70%;'></div></div>","null","neg","CS","CS","2","category2/CS5.png","","","","",""
"","html-keyboard-response","24","250851","0.0-6.0-0.0-0.18","oqpth3331g","many_one","0","indirect_first","0","CK05EN27","1","22","1","1","3","1","null","","","<div class = 'row'><div class = 'column'><img src = 'category4/CS7.png' width = '70%;'></div><div class = 'column'><img src = 'uspos/2341.bmp' width = '100%;'></div></div>","null","pos","CS","CS","4","category4/CS7.png","","","","",""
"","html-keyboard-response","25","253367","0.0-6.0-0.0-0.19","oqpth3331g","many_one","0","indirect_first","0","CK05EN27","1","22","1","1","3","1","null","","","<div class = 'row'><div class = 'column'><img src = 'uspos/4625.bmp' width = '100%;'></div><div class = 'column'><img src = 'category4/CS2.png' width = '70%;'></div></div>","null","pos","CS","CS","4","category4/CS2.png","","","","",""
"","survey-html-form","26","271881","0.0-6.0-1.0","oqpth3331g","many_one","0","indirect_first","0","CK05EN27","1","22","1","1","3","1","18006.62999995984","","{}","","","","","","","","","","","",""
"","html-keyboard-response","27","275916","0.0-6.0-2.0-0.0","oqpth3331g","many_one","0","indirect_first","0","CK05EN27","1","22","1","1","3","1","null","","","<div class = 'row'><div class = 'column'><img src = 'uspos/2360.bmp' width = '100%;'></div><div class = 'column'><img src = 'category4/CS5.png' width = '70%;'></div></div>","null","pos","CS","CS","4","category4/CS5.png","","","","",""
"","html-keyboard-response","28","278427","0.0-6.0-2.0-0.1","oqpth3331g","many_one","0","indirect_first","0","CK05EN27","1","22","1","1","3","1","null","","","<div class = 'row'><div class = 'column'><img src = 'uspos/2030.bmp' width = '100%;'></div><div class = 'column'><img src = 'category1/CS8.png' width = '70%;'></div></div>","null","pos","CS","CS","1","category1/CS8.png","","","","",""
"","html-keyboard-response","29","280941","0.0-6.0-2.0-0.2","oqpth3331g","many_one","0","indirect_first","0","CK05EN27","1","22","1","1","3","1","null","","","<div class = 'row'><div class = 'column'><img src = 'usneg/9404.bmp' width = '100%;'></div><div class = 'column'><img src = 'category3/CS10.png' width = '70%;'></div></div>","null","neg","CS","CS","3","category3/CS10.png","","","","",""
"","html-keyboard-response","30","283452","0.0-6.0-2.0-0.3","oqpth3331g","many_one","0","indirect_first","0","CK05EN27","1","22","1","1","3","1","null","","","<div class = 'row'><div class = 'column'><img src = 'category1/CS7.png' width = '70%;'></div><div class = 'column'><img src = 'uspos/1463.bmp' width = '100%;'></div></div>","null","pos","CS","CS","1","category1/CS7.png","","","","",""
"","html-keyboard-response","31","285968","0.0-6.0-2.0-0.4","oqpth3331g","many_one","0","indirect_first","0","CK05EN27","1","22","1","1","3","1","null","","","<div class = 'row'><div class = 'column'><img src = 'category1/CS1.png' width = '70%;'></div><div class = 'column'><img src = 'uspos/5470.bmp' width = '100%;'></div></div>","null","pos","CS","CS","1","category1/CS1.png","","","","",""
"","html-keyboard-response","32","288478","0.0-6.0-2.0-0.5","oqpth3331g","many_one","0","indirect_first","0","CK05EN27","1","22","1","1","3","1","null","","","<div class = 'row'><div class = 'column'><img src = 'category2/CS7.png' width = '70%;'></div><div class = 'column'><img src = 'usneg/6020.bmp' width = '100%;'></div></div>","null","neg","CS","CS","2","category2/CS7.png","","","","",""
"","html-keyboard-response","33","291000","0.0-6.0-2.0-0.6","oqpth3331g","many_one","0","indirect_first","0","CK05EN27","1","22","1","1","3","1","null","","","<div class = 'row'><div class = 'column'><img src = 'uspos/8350.bmp' width = '100%;'></div><div class = 'column'><img src = 'category1/CS5.png' width = '70%;'></div></div>","null","pos","CS","CS","1","category1/CS5.png","","","","",""
"","html-keyboard-response","34","293515","0.0-6.0-2.0-0.7","oqpth3331g","many_one","0","indirect_first","0","CK05EN27","1","22","1","1","3","1","null","","","<div class = 'row'><div class = 'column'><img src = 'uspos/2311.bmp' width = '100%;'></div><div class = 'column'><img src = 'category1/CS3.png' width = '70%;'></div></div>","null","pos","CS","CS","1","category1/CS3.png","","","","",""
"","html-keyboard-response","35","296031","0.0-6.0-2.0-0.8","oqpth3331g","many_one","0","indirect_first","0","CK05EN27","1","22","1","1","3","1","null","","","<div class = 'row'><div class = 'column'><img src = 'category4/CS9.png' width = '70%;'></div><div class = 'column'><img src = 'uspos/2208.bmp' width = '100%;'></div></div>","null","pos","CS","CS","4","category4/CS9.png","","","","",""
"","html-keyboard-response","36","298543","0.0-6.0-2.0-0.9","oqpth3331g","many_one","0","indirect_first","0","CK05EN27","1","22","1","1","3","1","null","","","<div class = 'row'><div class = 'column'><img src = 'category3/CS3.png' width = '70%;'></div><div class = 'column'><img src = 'usneg/6570.1.bmp' width = '100%;'></div></div>","null","neg","CS","CS","3","category3/CS3.png","","","","",""
"","html-keyboard-response","37","301060","0.0-6.0-2.0-0.10","oqpth3331g","many_one","0","indirect_first","0","CK05EN27","1","22","1","1","3","1","null","","","<div class = 'row'><div class = 'column'><img src = 'uspos/2900.2.bmp' width = '100%;'></div><div class = 'column'><img src = 'category4/CS3.png' width = '70%;'></div></div>","null","pos","CS","CS","4","category4/CS3.png","","","","",""
"","html-keyboard-response","38","303578","0.0-6.0-2.0-0.11","oqpth3331g","many_one","0","indirect_first","0","CK05EN27","1","22","1","1","3","1","null","","","<div class = 'row'><div class = 'column'><img src = 'usneg/9182.bmp' width = '100%;'></div><div class = 'column'><img src = 'category2/CS2.png' width = '70%;'></div></div>","null","neg","CS","CS","2","category2/CS2.png","","","","",""
"","html-keyboard-response","39","306085","0.0-6.0-2.0-0.12","oqpth3331g","many_one","0","indirect_first","0","CK05EN27","1","22","1","1","3","1","null","","","<div class = 'row'><div class = 'column'><img src = 'uspos/2341.bmp' width = '100%;'></div><div class = 'column'><img src = 'category4/CS7.png' width = '70%;'></div></div>","null","pos","CS","CS","4","category4/CS7.png","","","","",""
"","html-keyboard-response","40","308592","0.0-6.0-2.0-0.13","oqpth3331g","many_one","0","indirect_first","0","CK05EN27","1","22","1","1","3","1","null","","","<div class = 'row'><div class = 'column'><img src = 'category2/CS5.png' width = '70%;'></div><div class = 'column'><img src = 'usneg/7380.bmp' width = '100%;'></div></div>","null","neg","CS","CS","2","category2/CS5.png","","","","",""
"","html-keyboard-response","41","311111","0.0-6.0-2.0-0.14","oqpth3331g","many_one","0","indirect_first","0","CK05EN27","1","22","1","1","3","1","null","","","<div class = 'row'><div class = 'column'><img src = 'usneg/9041.bmp' width = '100%;'></div><div class = 'column'><img src = 'category3/CS4.png' width = '70%;'></div></div>","null","neg","CS","CS","3","category3/CS4.png","","","","",""
"","html-keyboard-response","42","313627","0.0-6.0-2.0-0.15","oqpth3331g","many_one","0","indirect_first","0","CK05EN27","1","22","1","1","3","1","null","","","<div class = 'row'><div class = 'column'><img src = 'category3/CS5.png' width = '70%;'></div><div class = 'column'><img src = 'usneg/6212.bmp' width = '100%;'></div></div>","null","neg","CS","CS","3","category3/CS5.png","","","","",""
"","html-keyboard-response","43","316137","0.0-6.0-2.0-0.16","oqpth3331g","many_one","0","indirect_first","0","CK05EN27","1","22","1","1","3","1","null","","","<div class = 'row'><div class = 'column'><img src = 'usneg/9290.bmp' width = '100%;'></div><div class = 'column'><img src = 'category2/CS3.png' width = '70%;'></div></div>","null","neg","CS","CS","2","category2/CS3.png","","","","",""
"","html-keyboard-response","44","318652","0.0-6.0-2.0-0.17","oqpth3331g","many_one","0","indirect_first","0","CK05EN27","1","22","1","1","3","1","null","","","<div class = 'row'><div class = 'column'><img src = 'category2/CS4.png' width = '70%;'></div><div class = 'column'><img src = 'usneg/2900.bmp' width = '100%;'></div></div>","null","neg","CS","CS","2","category2/CS4.png","","","","",""
"","html-keyboard-response","45","321165","0.0-6.0-2.0-0.18","oqpth3331g","many_one","0","indirect_first","0","CK05EN27","1","22","1","1","3","1","null","","","<div class = 'row'><div class = 'column'><img src = 'category3/CS9.png' width = '70%;'></div><div class = 'column'><img src = 'usneg/9435.bmp' width = '100%;'></div></div>","null","neg","CS","CS","3","category3/CS9.png","","","","",""
"","html-keyboard-response","46","323674","0.0-6.0-2.0-0.19","oqpth3331g","many_one","0","indirect_first","0","CK05EN27","1","22","1","1","3","1","null","","","<div class = 'row'><div class = 'column'><img src = 'uspos/4625.bmp' width = '100%;'></div><div class = 'column'><img src = 'category4/CS2.png' width = '70%;'></div></div>","null","pos","CS","CS","4","category4/CS2.png","","","","",""
"","survey-html-form","47","365033","0.0-6.0-3.0","oqpth3331g","many_one","0","indirect_first","0","CK05EN27","1","22","1","1","3","1","40855.22500006482","","{}","","","","","","","","","","","",""
"","html-keyboard-response","48","369050","0.0-6.0-4.0-0.0","oqpth3331g","many_one","0","indirect_first","0","CK05EN27","1","22","1","1","3","1","null","","","<div class = 'row'><div class = 'column'><img src = 'uspos/1463.bmp' width = '100%;'></div><div class = 'column'><img src = 'category1/CS7.png' width = '70%;'></div></div>","null","pos","CS","CS","1","category1/CS7.png","","","","",""
"","html-keyboard-response","49","371562","0.0-6.0-4.0-0.1","oqpth3331g","many_one","0","indirect_first","0","CK05EN27","1","22","1","1","3","1","null","","","<div class = 'row'><div class = 'column'><img src = 'usneg/2900.bmp' width = '100%;'></div><div class = 'column'><img src = 'category2/CS4.png' width = '70%;'></div></div>","null","neg","CS","CS","2","category2/CS4.png","","","","",""
"","html-keyboard-response","50","374079","0.0-6.0-4.0-0.2","oqpth3331g","many_one","0","indirect_first","0","CK05EN27","1","22","1","1","3","1","null","","","<div class = 'row'><div class = 'column'><img src = 'category4/CS9.png' width = '70%;'></div><div class = 'column'><img src = 'uspos/2208.bmp' width = '100%;'></div></div>","null","pos","CS","CS","4","category4/CS9.png","","","","",""
"","html-keyboard-response","51","376595","0.0-6.0-4.0-0.3","oqpth3331g","many_one","0","indirect_first","0","CK05EN27","1","22","1","1","3","1","null","","","<div class = 'row'><div class = 'column'><img src = 'category2/CS3.png' width = '70%;'></div><div class = 'column'><img src = 'usneg/9290.bmp' width = '100%;'></div></div>","null","neg","CS","CS","2","category2/CS3.png","","","","",""
"","html-keyboard-response","52","379108","0.0-6.0-4.0-0.4","oqpth3331g","many_one","0","indirect_first","0","CK05EN27","1","22","1","1","3","1","null","","","<div class = 'row'><div class = 'column'><img src = 'usneg/9435.bmp' width = '100%;'></div><div class = 'column'><img src = 'category3/CS9.png' width = '70%;'></div></div>","null","neg","CS","CS","3","category3/CS9.png","","","","",""
"","html-keyboard-response","53","381621","0.0-6.0-4.0-0.5","oqpth3331g","many_one","0","indirect_first","0","CK05EN27","1","22","1","1","3","1","null","","","<div class = 'row'><div class = 'column'><img src = 'category2/CS2.png' width = '70%;'></div><div class = 'column'><img src = 'usneg/9182.bmp' width = '100%;'></div></div>","null","neg","CS","CS","2","category2/CS2.png","","","","",""
"","html-keyboard-response","54","384141","0.0-6.0-4.0-0.6","oqpth3331g","many_one","0","indirect_first","0","CK05EN27","1","22","1","1","3","1","null","","","<div class = 'row'><div class = 'column'><img src = 'uspos/4625.bmp' width = '100%;'></div><div class = 'column'><img src = 'category4/CS2.png' width = '70%;'></div></div>","null","pos","CS","CS","4","category4/CS2.png","","","","",""
"","html-keyboard-response","55","386654","0.0-6.0-4.0-0.7","oqpth3331g","many_one","0","indirect_first","0","CK05EN27","1","22","1","1","3","1","null","","","<div class = 'row'><div class = 'column'><img src = 'category3/CS4.png' width = '70%;'></div><div class = 'column'><img src = 'usneg/9041.bmp' width = '100%;'></div></div>","null","neg","CS","CS","3","category3/CS4.png","","","","",""
"","html-keyboard-response","56","389162","0.0-6.0-4.0-0.8","oqpth3331g","many_one","0","indirect_first","0","CK05EN27","1","22","1","1","3","1","null","","","<div class = 'row'><div class = 'column'><img src = 'usneg/7380.bmp' width = '100%;'></div><div class = 'column'><img src = 'category2/CS5.png' width = '70%;'></div></div>","null","neg","CS","CS","2","category2/CS5.png","","","","",""
"","html-keyboard-response","57","391677","0.0-6.0-4.0-0.9","oqpth3331g","many_one","0","indirect_first","0","CK05EN27","1","22","1","1","3","1","null","","","<div class = 'row'><div class = 'column'><img src = 'category3/CS10.png' width = '70%;'></div><div class = 'column'><img src = 'usneg/9404.bmp' width = '100%;'></div></div>","null","neg","CS","CS","3","category3/CS10.png","","","","",""
"","html-keyboard-response","58","394189","0.0-6.0-4.0-0.10","oqpth3331g","many_one","0","indirect_first","0","CK05EN27","1","22","1","1","3","1","null","","","<div class = 'row'><div class = 'column'><img src = 'category1/CS5.png' width = '70%;'></div><div class = 'column'><img src = 'uspos/8350.bmp' width = '100%;'></div></div>","null","pos","CS","CS","1","category1/CS5.png","","","","",""
"","html-keyboard-response","59","396703","0.0-6.0-4.0-0.11","oqpth3331g","many_one","0","indirect_first","0","CK05EN27","1","22","1","1","3","1","null","","","<div class = 'row'><div class = 'column'><img src = 'uspos/2900.2.bmp' width = '100%;'></div><div class = 'column'><img src = 'category4/CS3.png' width = '70%;'></div></div>","null","pos","CS","CS","4","category4/CS3.png","","","","",""
"","html-keyboard-response","60","399218","0.0-6.0-4.0-0.12","oqpth3331g","many_one","0","indirect_first","0","CK05EN27","1","22","1","1","3","1","null","","","<div class = 'row'><div class = 'column'><img src = 'category1/CS1.png' width = '70%;'></div><div class = 'column'><img src = 'uspos/5470.bmp' width = '100%;'></div></div>","null","pos","CS","CS","1","category1/CS1.png","","","","",""
"","html-keyboard-response","61","401731","0.0-6.0-4.0-0.13","oqpth3331g","many_one","0","indirect_first","0","CK05EN27","1","22","1","1","3","1","null","","","<div class = 'row'><div class = 'column'><img src = 'usneg/6570.1.bmp' width = '100%;'></div><div class = 'column'><img src = 'category3/CS3.png' width = '70%;'></div></div>","null","neg","CS","CS","3","category3/CS3.png","","","","",""
"","html-keyboard-response","62","404243","0.0-6.0-4.0-0.14","oqpth3331g","many_one","0","indirect_first","0","CK05EN27","1","22","1","1","3","1","null","","","<div class = 'row'><div class = 'column'><img src = 'uspos/2311.bmp' width = '100%;'></div><div class = 'column'><img src = 'category1/CS3.png' width = '70%;'></div></div>","null","pos","CS","CS","1","category1/CS3.png","","","","",""
"","html-keyboard-response","63","406761","0.0-6.0-4.0-0.15","oqpth3331g","many_one","0","indirect_first","0","CK05EN27","1","22","1","1","3","1","null","","","<div class = 'row'><div class = 'column'><img src = 'category2/CS7.png' width = '70%;'></div><div class = 'column'><img src = 'usneg/6020.bmp' width = '100%;'></div></div>","null","neg","CS","CS","2","category2/CS7.png","","","","",""
"","html-keyboard-response","64","409278","0.0-6.0-4.0-0.16","oqpth3331g","many_one","0","indirect_first","0","CK05EN27","1","22","1","1","3","1","null","","","<div class = 'row'><div class = 'column'><img src = 'usneg/6212.bmp' width = '100%;'></div><div class = 'column'><img src = 'category3/CS5.png' width = '70%;'></div></div>","null","neg","CS","CS","3","category3/CS5.png","","","","",""
"","html-keyboard-response","65","411787","0.0-6.0-4.0-0.17","oqpth3331g","many_one","0","indirect_first","0","CK05EN27","1","22","1","1","3","1","null","","","<div class = 'row'><div class = 'column'><img src = 'category4/CS7.png' width = '70%;'></div><div class = 'column'><img src = 'uspos/2341.bmp' width = '100%;'></div></div>","null","pos","CS","CS","4","category4/CS7.png","","","","",""
"","html-keyboard-response","66","414296","0.0-6.0-4.0-0.18","oqpth3331g","many_one","0","indirect_first","0","CK05EN27","1","22","1","1","3","1","null","","","<div class = 'row'><div class = 'column'><img src = 'uspos/2360.bmp' width = '100%;'></div><div class = 'column'><img src = 'category4/CS5.png' width = '70%;'></div></div>","null","pos","CS","CS","4","category4/CS5.png","","","","",""
"","html-keyboard-response","67","416809","0.0-6.0-4.0-0.19","oqpth3331g","many_one","0","indirect_first","0","CK05EN27","1","22","1","1","3","1","null","","","<div class = 'row'><div class = 'column'><img src = 'uspos/2030.bmp' width = '100%;'></div><div class = 'column'><img src = 'category1/CS8.png' width = '70%;'></div></div>","null","pos","CS","CS","1","category1/CS8.png","","","","",""
"","survey-html-form","68","418729","0.0-6.0-5.0","oqpth3331g","many_one","0","indirect_first","0","CK05EN27","1","22","1","1","3","1","1401.619999902323","","{}","","","","","","","","","","","",""
"","html-keyboard-response","69","422754","0.0-6.0-6.0-0.0","oqpth3331g","many_one","0","indirect_first","0","CK05EN27","1","22","1","1","3","1","null","","","<div class = 'row'><div class = 'column'><img src = 'usneg/9182.bmp' width = '100%;'></div><div class = 'column'><img src = 'category2/CS2.png' width = '70%;'></div></div>","null","neg","CS","CS","2","category2/CS2.png","","","","",""
"","html-keyboard-response","70","425272","0.0-6.0-6.0-0.1","oqpth3331g","many_one","0","indirect_first","0","CK05EN27","1","22","1","1","3","1","null","","","<div class = 'row'><div class = 'column'><img src = 'usneg/6020.bmp' width = '100%;'></div><div class = 'column'><img src = 'category2/CS7.png' width = '70%;'></div></div>","null","neg","CS","CS","2","category2/CS7.png","","","","",""
"","html-keyboard-response","71","427779","0.0-6.0-6.0-0.2","oqpth3331g","many_one","0","indirect_first","0","CK05EN27","1","22","1","1","3","1","null","","","<div class = 'row'><div class = 'column'><img src = 'category1/CS8.png' width = '70%;'></div><div class = 'column'><img src = 'uspos/2030.bmp' width = '100%;'></div></div>","null","pos","CS","CS","1","category1/CS8.png","","","","",""
"","html-keyboard-response","72","430294","0.0-6.0-6.0-0.3","oqpth3331g","many_one","0","indirect_first","0","CK05EN27","1","22","1","1","3","1","null","","","<div class = 'row'><div class = 'column'><img src = 'category2/CS3.png' width = '70%;'></div><div class = 'column'><img src = 'usneg/9290.bmp' width = '100%;'></div></div>","null","neg","CS","CS","2","category2/CS3.png","","","","",""
"","html-keyboard-response","73","432807","0.0-6.0-6.0-0.4","oqpth3331g","many_one","0","indirect_first","0","CK05EN27","1","22","1","1","3","1","null","","","<div class = 'row'><div class = 'column'><img src = 'uspos/2311.bmp' width = '100%;'></div><div class = 'column'><img src = 'category1/CS3.png' width = '70%;'></div></div>","null","pos","CS","CS","1","category1/CS3.png","","","","",""
"","html-keyboard-response","74","435319","0.0-6.0-6.0-0.5","oqpth3331g","many_one","0","indirect_first","0","CK05EN27","1","22","1","1","3","1","null","","","<div class = 'row'><div class = 'column'><img src = 'category1/CS1.png' width = '70%;'></div><div class = 'column'><img src = 'uspos/5470.bmp' width = '100%;'></div></div>","null","pos","CS","CS","1","category1/CS1.png","","","","",""
"","html-keyboard-response","75","437831","0.0-6.0-6.0-0.6","oqpth3331g","many_one","0","indirect_first","0","CK05EN27","1","22","1","1","3","1","null","","","<div class = 'row'><div class = 'column'><img src = 'category2/CS4.png' width = '70%;'></div><div class = 'column'><img src = 'usneg/2900.bmp' width = '100%;'></div></div>","null","neg","CS","CS","2","category2/CS4.png","","","","",""
"","html-keyboard-response","76","440346","0.0-6.0-6.0-0.7","oqpth3331g","many_one","0","indirect_first","0","CK05EN27","1","22","1","1","3","1","null","","","<div class = 'row'><div class = 'column'><img src = 'category4/CS5.png' width = '70%;'></div><div class = 'column'><img src = 'uspos/2360.bmp' width = '100%;'></div></div>","null","pos","CS","CS","4","category4/CS5.png","","","","",""
"","html-keyboard-response","77","442859","0.0-6.0-6.0-0.8","oqpth3331g","many_one","0","indirect_first","0","CK05EN27","1","22","1","1","3","1","null","","","<div class = 'row'><div class = 'column'><img src = 'uspos/4625.bmp' width = '100%;'></div><div class = 'column'><img src = 'category4/CS2.png' width = '70%;'></div></div>","null","pos","CS","CS","4","category4/CS2.png","","","","",""
"","html-keyboard-response","78","445376","0.0-6.0-6.0-0.9","oqpth3331g","many_one","0","indirect_first","0","CK05EN27","1","22","1","1","3","1","null","","","<div class = 'row'><div class = 'column'><img src = 'uspos/8350.bmp' width = '100%;'></div><div class = 'column'><img src = 'category1/CS5.png' width = '70%;'></div></div>","null","pos","CS","CS","1","category1/CS5.png","","","","",""
"","html-keyboard-response","79","447889","0.0-6.0-6.0-0.10","oqpth3331g","many_one","0","indirect_first","0","CK05EN27","1","22","1","1","3","1","null","","","<div class = 'row'><div class = 'column'><img src = 'uspos/2208.bmp' width = '100%;'></div><div class = 'column'><img src = 'category4/CS9.png' width = '70%;'></div></div>","null","pos","CS","CS","4","category4/CS9.png","","","","",""
"","html-keyboard-response","80","450395","0.0-6.0-6.0-0.11","oqpth3331g","many_one","0","indirect_first","0","CK05EN27","1","22","1","1","3","1","null","","","<div class = 'row'><div class = 'column'><img src = 'category3/CS9.png' width = '70%;'></div><div class = 'column'><img src = 'usneg/9435.bmp' width = '100%;'></div></div>","null","neg","CS","CS","3","category3/CS9.png","","","","",""
"","html-keyboard-response","81","452912","0.0-6.0-6.0-0.12","oqpth3331g","many_one","0","indirect_first","0","CK05EN27","1","22","1","1","3","1","null","","","<div class = 'row'><div class = 'column'><img src = 'usneg/6570.1.bmp' width = '100%;'></div><div class = 'column'><img src = 'category3/CS3.png' width = '70%;'></div></div>","null","neg","CS","CS","3","category3/CS3.png","","","","",""
"","html-keyboard-response","82","455423","0.0-6.0-6.0-0.13","oqpth3331g","many_one","0","indirect_first","0","CK05EN27","1","22","1","1","3","1","null","","","<div class = 'row'><div class = 'column'><img src = 'category3/CS4.png' width = '70%;'></div><div class = 'column'><img src = 'usneg/9041.bmp' width = '100%;'></div></div>","null","neg","CS","CS","3","category3/CS4.png","","","","",""
"","html-keyboard-response","83","457934","0.0-6.0-6.0-0.14","oqpth3331g","many_one","0","indirect_first","0","CK05EN27","1","22","1","1","3","1","null","","","<div class = 'row'><div class = 'column'><img src = 'uspos/2341.bmp' width = '100%;'></div><div class = 'column'><img src = 'category4/CS7.png' width = '70%;'></div></div>","null","pos","CS","CS","4","category4/CS7.png","","","","",""
"","html-keyboard-response","84","460452","0.0-6.0-6.0-0.15","oqpth3331g","many_one","0","indirect_first","0","CK05EN27","1","22","1","1","3","1","null","","","<div class = 'row'><div class = 'column'><img src = 'category2/CS5.png' width = '70%;'></div><div class = 'column'><img src = 'usneg/7380.bmp' width = '100%;'></div></div>","null","neg","CS","CS","2","category2/CS5.png","","","","",""
"","html-keyboard-response","85","462963","0.0-6.0-6.0-0.16","oqpth3331g","many_one","0","indirect_first","0","CK05EN27","1","22","1","1","3","1","null","","","<div class = 'row'><div class = 'column'><img src = 'category1/CS7.png' width = '70%;'></div><div class = 'column'><img src = 'uspos/1463.bmp' width = '100%;'></div></div>","null","pos","CS","CS","1","category1/CS7.png","","","","",""
"","html-keyboard-response","86","465481","0.0-6.0-6.0-0.17","oqpth3331g","many_one","0","indirect_first","0","CK05EN27","1","22","1","1","3","1","null","","","<div class = 'row'><div class = 'column'><img src = 'category3/CS10.png' width = '70%;'></div><div class = 'column'><img src = 'usneg/9404.bmp' width = '100%;'></div></div>","null","neg","CS","CS","3","category3/CS10.png","","","","",""
"","html-keyboard-response","87","467997","0.0-6.0-6.0-0.18","oqpth3331g","many_one","0","indirect_first","0","CK05EN27","1","22","1","1","3","1","null","","","<div class = 'row'><div class = 'column'><img src = 'category3/CS5.png' width = '70%;'></div><div class = 'column'><img src = 'usneg/6212.bmp' width = '100%;'></div></div>","null","neg","CS","CS","3","category3/CS5.png","","","","",""
"","html-keyboard-response","88","470506","0.0-6.0-6.0-0.19","oqpth3331g","many_one","0","indirect_first","0","CK05EN27","1","22","1","1","3","1","null","","","<div class = 'row'><div class = 'column'><img src = 'uspos/2900.2.bmp' width = '100%;'></div><div class = 'column'><img src = 'category4/CS3.png' width = '70%;'></div></div>","null","pos","CS","CS","4","category4/CS3.png","","","","",""
"","html-keyboard-response","89","556298","0.0-7.0","oqpth3331g","many_one","0","indirect_first","0","CK05EN27","1","22","1","1","3","1","85285.00999999233","","","<p>Sie sehen nun die chinesischen Zeichen nur ganz kurz. Danach sehen Sie die jeweilige Aussprache der Zeichen als Silbe auf dem Bildschrim. Ihre Aufgabe ist es, für jede Silbe anzugeben, ob diese etwas angenehmes, oder unangenehmes bedeuten könnte. Verlassen Sie sich hier vor allem auf Ihre Intuition.<br><br>Die Zeichen werden nur zur Orientierung dargestellt, beachten Sie sie deshalb nicht. Konzentrieren Sie sich vor allem auf die Silben. <br>Reagieren Sie mit folgenden zwei Tasten: <br><br><b>'D' </b> wenn die Silbe etwas <b>unangenehmes</b> bedeuten könnte. <br><b>'K'</b> wenn die Silbe etwas <b>angenehmes</b> bedeuten könnte. <br><br>Bitte legen Sie nun den Zeigefinger der linken Hand auf die Taste 'D' und den Zeigefinger der rechten Hand auf die Taste 'K'. <br>Reagieren Sie auf jede Silbe so schnell wie möglich. Uns interessiert Ihre spontane Reaktion. <br> <br> <br>Drücken Sie 'D' oder 'K', um die nächste Aufgabe zu starten. </p>","75","","","","","","","","","",""
"","html-keyboard-response","90","559310","0.0-8.0-0.0","oqpth3331g","many_one","0","indirect_first","0","CK05EN27","1","22","1","1","3","1","null","","","<div style=""font-size:60px;"">+</div>","null","","","","","","","","","",""
"","html-keyboard-response","91","559405","0.0-8.0-1.0","oqpth3331g","many_one","0","indirect_first","0","CK05EN27","1","22","1","1","3","1","null","","","<img src = 'category1/CS3.png' width = '100%;'>","null","","","","","","","","","",""
"","html-keyboard-response","92","559671","0.0-8.0-2.0","oqpth3331g","many_one","0","indirect_first","0","CK05EN27","1","22","1","1","3","1","null","","","<img src = 'targets/43.png' width = '100%;'>","null","","","","","","","","","",""
"","html-keyboard-response","93","571514","0.0-8.0-3.0","oqpth3331g","many_one","0","indirect_first","0","CK05EN27","1","22","1","1","3","1","11842.665000120178","","","<img src = 'targets/mask.png' width = '100%;'>","75","pos","CS","CS","1","category1/CS3.png","targets/43.png","1","indirect","0",""
"","html-keyboard-response","94","573023","0.0-8.0-0.1","oqpth3331g","many_one","0","indirect_first","0","CK05EN27","1","22","1","1","3","1","null","","","<div style=""font-size:60px;"">+</div>","null","","","","","","","","","",""
"","html-keyboard-response","95","573121","0.0-8.0-1.1","oqpth3331g","many_one","0","indirect_first","0","CK05EN27","1","22","1","1","3","1","null","","","<img src = 'category3/CS1.png' width = '100%;'>","null","","","","","","","","","",""
"","html-keyboard-response","96","573382","0.0-8.0-2.1","oqpth3331g","many_one","0","indirect_first","0","CK05EN27","1","22","1","1","3","1","null","","","<img src = 'targets/12.png' width = '100%;'>","null","","","","","","","","","",""
"","html-keyboard-response","97","575134","0.0-8.0-3.1","oqpth3331g","many_one","0","indirect_first","0","CK05EN27","1","22","1","1","3","1","1749.769999878481","","","<img src = 'targets/mask.png' width = '100%;'>","75","neg","GS","GSold","3","category3/CS1.png","targets/12.png","1","indirect","1",""
"","html-keyboard-response","98","576646","0.0-8.0-0.2","oqpth3331g","many_one","0","indirect_first","0","CK05EN27","1","22","1","1","3","1","null","","","<div style=""font-size:60px;"">+</div>","null","","","","","","","","","",""
"","html-keyboard-response","99","576738","0.0-8.0-1.2","oqpth3331g","many_one","0","indirect_first","0","CK05EN27","1","22","1","1","3","1","null","","","<img src = 'category4/CS5.png' width = '100%;'>","null","","","","","","","","","",""
"","html-keyboard-response","100","576996","0.0-8.0-2.2","oqpth3331g","many_one","0","indirect_first","0","CK05EN27","1","22","1","1","3","1","null","","","<img src = 'targets/36.png' width = '100%;'>","null","","","","","","","","","",""
"","html-keyboard-response","101","577715","0.0-8.0-3.2","oqpth3331g","many_one","0","indirect_first","0","CK05EN27","1","22","1","1","3","1","715.6849999446422","","","<img src = 'targets/mask.png' width = '100%;'>","68","pos","CS","CS","4","category4/CS5.png","targets/36.png","0","indirect","2",""
"","html-keyboard-response","102","579227","0.0-8.0-0.3","oqpth3331g","many_one","0","indirect_first","0","CK05EN27","1","22","1","1","3","1","null","","","<div style=""font-size:60px;"">+</div>","null","","","","","","","","","",""
"","html-keyboard-response","103","579325","0.0-8.0-1.3","oqpth3331g","many_one","0","indirect_first","0","CK05EN27","1","22","1","1","3","1","null","","","<img src = 'category1/CS5.png' width = '100%;'>","null","","","","","","","","","",""
"","html-keyboard-response","104","579587","0.0-8.0-2.3","oqpth3331g","many_one","0","indirect_first","0","CK05EN27","1","22","1","1","3","1","null","","","<img src = 'targets/42.png' width = '100%;'>","null","","","","","","","","","",""
"","html-keyboard-response","105","580803","0.0-8.0-3.3","oqpth3331g","many_one","0","indirect_first","0","CK05EN27","1","22","1","1","3","1","1214.4450000487268","","","<img src = 'targets/mask.png' width = '100%;'>","75","pos","CS","CS","1","category1/CS5.png","targets/42.png","1","indirect","3",""
"","html-keyboard-response","106","582320","0.0-8.0-0.4","oqpth3331g","many_one","0","indirect_first","0","CK05EN27","1","22","1","1","3","1","null","","","<div style=""font-size:60px;"">+</div>","null","","","","","","","","","",""
"","html-keyboard-response","107","582415","0.0-8.0-1.4","oqpth3331g","many_one","0","indirect_first","0","CK05EN27","1","22","1","1","3","1","null","","","<img src = 'category4/CS9.png' width = '100%;'>","null","","","","","","","","","",""
"","html-keyboard-response","108","582677","0.0-8.0-2.4","oqpth3331g","many_one","0","indirect_first","0","CK05EN27","1","22","1","1","3","1","null","","","<img src = 'targets/39.png' width = '100%;'>","null","","","","","","","","","",""
"","html-keyboard-response","109","584232","0.0-8.0-3.4","oqpth3331g","many_one","0","indirect_first","0","CK05EN27","1","22","1","1","3","1","1553.7449999246746","","","<img src = 'targets/mask.png' width = '100%;'>","75","pos","CS","CS","4","category4/CS9.png","targets/39.png","1","indirect","4",""
"","html-keyboard-response","110","585743","0.0-8.0-0.5","oqpth3331g","many_one","0","indirect_first","0","CK05EN27","1","22","1","1","3","1","null","","","<div style=""font-size:60px;"">+</div>","null","","","","","","","","","",""
"","html-keyboard-response","111","585837","0.0-8.0-1.5","oqpth3331g","many_one","0","indirect_first","0","CK05EN27","1","22","1","1","3","1","null","","","<img src = 'category2/CS5.png' width = '100%;'>","null","","","","","","","","","",""
"","html-keyboard-response","112","586098","0.0-8.0-2.5","oqpth3331g","many_one","0","indirect_first","0","CK05EN27","1","22","1","1","3","1","null","","","<img src = 'targets/44.png' width = '100%;'>","null","","","","","","","","","",""
"","html-keyboard-response","113","588832","0.0-8.0-3.5","oqpth3331g","many_one","0","indirect_first","0","CK05EN27","1","22","1","1","3","1","2732.5599999167025","","","<img src = 'targets/mask.png' width = '100%;'>","68","neg","CS","CS","2","category2/CS5.png","targets/44.png","0","indirect","5",""
"","html-keyboard-response","114","590342","0.0-8.0-0.6","oqpth3331g","many_one","0","indirect_first","0","CK05EN27","1","22","1","1","3","1","null","","","<div style=""font-size:60px;"">+</div>","null","","","","","","","","","",""
"","html-keyboard-response","115","590439","0.0-8.0-1.6","oqpth3331g","many_one","0","indirect_first","0","CK05EN27","1","22","1","1","3","1","null","","","<img src = 'category4/CS2.png' width = '100%;'>","null","","","","","","","","","",""
"","html-keyboard-response","116","590705","0.0-8.0-2.6","oqpth3331g","many_one","0","indirect_first","0","CK05EN27","1","22","1","1","3","1","null","","","<img src = 'targets/30.png' width = '100%;'>","null","","","","","","","","","",""
"","html-keyboard-response","117","592136","0.0-8.0-3.6","oqpth3331g","many_one","0","indirect_first","0","CK05EN27","1","22","1","1","3","1","1429.8800001852214","","","<img src = 'targets/mask.png' width = '100%;'>","68","pos","CS","CS","4","category4/CS2.png","targets/30.png","0","indirect","6",""
"","html-keyboard-response","118","593651","0.0-8.0-0.7","oqpth3331g","many_one","0","indirect_first","0","CK05EN27","1","22","1","1","3","1","null","","","<div style=""font-size:60px;"">+</div>","null","","","","","","","","","",""
"","html-keyboard-response","119","593747","0.0-8.0-1.7","oqpth3331g","many_one","0","indirect_first","0","CK05EN27","1","22","1","1","3","1","null","","","<img src = 'category2/CS3.png' width = '100%;'>","null","","","","","","","","","",""
"","html-keyboard-response","120","594011","0.0-8.0-2.7","oqpth3331g","many_one","0","indirect_first","0","CK05EN27","1","22","1","1","3","1","null","","","<img src = 'targets/24.png' width = '100%;'>","null","","","","","","","","","",""
"","html-keyboard-response","121","596084","0.0-8.0-3.7","oqpth3331g","many_one","0","indirect_first","0","CK05EN27","1","22","1","1","3","1","2070.98999992013","","","<img src = 'targets/mask.png' width = '100%;'>","68","neg","CS","CS","2","category2/CS3.png","targets/24.png","0","indirect","7",""
"","html-keyboard-response","122","597591","0.0-8.0-0.8","oqpth3331g","many_one","0","indirect_first","0","CK05EN27","1","22","1","1","3","1","null","","","<div style=""font-size:60px;"">+</div>","null","","","","","","","","","",""
"","html-keyboard-response","123","597686","0.0-8.0-1.8","oqpth3331g","many_one","0","indirect_first","0","CK05EN27","1","22","1","1","3","1","null","","","<img src = 'category3/CS5.png' width = '100%;'>","null","","","","","","","","","",""
"","html-keyboard-response","124","597951","0.0-8.0-2.8","oqpth3331g","many_one","0","indirect_first","0","CK05EN27","1","22","1","1","3","1","null","","","<img src = 'targets/16.png' width = '100%;'>","null","","","","","","","","","",""
"","html-keyboard-response","125","600524","0.0-8.0-3.8","oqpth3331g","many_one","0","indirect_first","0","CK05EN27","1","22","1","1","3","1","2571.15999981761","","","<img src = 'targets/mask.png' width = '100%;'>","75","neg","CS","CS","3","category3/CS5.png","targets/16.png","1","indirect","8",""
"","html-keyboard-response","126","602035","0.0-8.0-0.9","oqpth3331g","many_one","0","indirect_first","0","CK05EN27","1","22","1","1","3","1","null","","","<div style=""font-size:60px;"">+</div>","null","","","","","","","","","",""
"","html-keyboard-response","127","602130","0.0-8.0-1.9","oqpth3331g","many_one","0","indirect_first","0","CK05EN27","1","22","1","1","3","1","null","","","<img src = 'category1/CS7.png' width = '100%;'>","null","","","","","","","","","",""
"","html-keyboard-response","128","602387","0.0-8.0-2.9","oqpth3331g","many_one","0","indirect_first","0","CK05EN27","1","22","1","1","3","1","null","","","<img src = 'targets/48.png' width = '100%;'>","null","","","","","","","","","",""
"","html-keyboard-response","129","605626","0.0-8.0-3.9","oqpth3331g","many_one","0","indirect_first","0","CK05EN27","1","22","1","1","3","1","3237.595000071451","","","<img src = 'targets/mask.png' width = '100%;'>","68","pos","CS","CS","1","category1/CS7.png","targets/48.png","0","indirect","9",""
"","html-keyboard-response","130","607139","0.0-8.0-0.10","oqpth3331g","many_one","0","indirect_first","0","CK05EN27","1","22","1","1","3","1","null","","","<div style=""font-size:60px;"">+</div>","null","","","","","","","","","",""
"","html-keyboard-response","131","607235","0.0-8.0-1.10","oqpth3331g","many_one","0","indirect_first","0","CK05EN27","1","22","1","1","3","1","null","","","<img src = 'category3/CS9.png' width = '100%;'>","null","","","","","","","","","",""
"","html-keyboard-response","132","607499","0.0-8.0-2.10","oqpth3331g","many_one","0","indirect_first","0","CK05EN27","1","22","1","1","3","1","null","","","<img src = 'targets/4.png' width = '100%;'>","null","","","","","","","","","",""
"","html-keyboard-response","133","608649","0.0-8.0-3.10","oqpth3331g","many_one","0","indirect_first","0","CK05EN27","1","22","1","1","3","1","1146.5299997944385","","","<img src = 'targets/mask.png' width = '100%;'>","68","neg","CS","CS","3","category3/CS9.png","targets/4.png","0","indirect","10",""
"","html-keyboard-response","134","610161","0.0-8.0-0.11","oqpth3331g","many_one","0","indirect_first","0","CK05EN27","1","22","1","1","3","1","null","","","<div style=""font-size:60px;"">+</div>","null","","","","","","","","","",""
"","html-keyboard-response","135","610253","0.0-8.0-1.11","oqpth3331g","many_one","0","indirect_first","0","CK05EN27","1","22","1","1","3","1","null","","","<img src = 'category3/CS3.png' width = '100%;'>","null","","","","","","","","","",""
"","html-keyboard-response","136","610514","0.0-8.0-2.11","oqpth3331g","many_one","0","indirect_first","0","CK05EN27","1","22","1","1","3","1","null","","","<img src = 'targets/14.png' width = '100%;'>","null","","","","","","","","","",""
"","html-keyboard-response","137","613308","0.0-8.0-3.11","oqpth3331g","many_one","0","indirect_first","0","CK05EN27","1","22","1","1","3","1","2792.064999928698","","","<img src = 'targets/mask.png' width = '100%;'>","75","neg","CS","CS","3","category3/CS3.png","targets/14.png","1","indirect","11",""
"","html-keyboard-response","138","614825","0.0-8.0-0.12","oqpth3331g","many_one","0","indirect_first","0","CK05EN27","1","22","1","1","3","1","null","","","<div style=""font-size:60px;"">+</div>","null","","","","","","","","","",""
"","html-keyboard-response","139","614921","0.0-8.0-1.12","oqpth3331g","many_one","0","indirect_first","0","CK05EN27","1","22","1","1","3","1","null","","","<img src = 'category3/CS4.png' width = '100%;'>","null","","","","","","","","","",""
"","html-keyboard-response","140","615181","0.0-8.0-2.12","oqpth3331g","many_one","0","indirect_first","0","CK05EN27","1","22","1","1","3","1","null","","","<img src = 'targets/9.png' width = '100%;'>","null","","","","","","","","","",""
"","html-keyboard-response","141","618436","0.0-8.0-3.12","oqpth3331g","many_one","0","indirect_first","0","CK05EN27","1","22","1","1","3","1","3253.4700001124293","","","<img src = 'targets/mask.png' width = '100%;'>","75","neg","CS","CS","3","category3/CS4.png","targets/9.png","1","indirect","12",""
"","html-keyboard-response","142","619951","0.0-8.0-0.13","oqpth3331g","many_one","0","indirect_first","0","CK05EN27","1","22","1","1","3","1","null","","","<div style=""font-size:60px;"">+</div>","null","","","","","","","","","",""
"","html-keyboard-response","143","620044","0.0-8.0-1.13","oqpth3331g","many_one","0","indirect_first","0","CK05EN27","1","22","1","1","3","1","null","","","<img src = 'category1/CS1.png' width = '100%;'>","null","","","","","","","","","",""
"","html-keyboard-response","144","620299","0.0-8.0-2.13","oqpth3331g","many_one","0","indirect_first","0","CK05EN27","1","22","1","1","3","1","null","","","<img src = 'targets/27.png' width = '100%;'>","null","","","","","","","","","",""
"","html-keyboard-response","145","622100","0.0-8.0-3.13","oqpth3331g","many_one","0","indirect_first","0","CK05EN27","1","22","1","1","3","1","1797.980000032112","","","<img src = 'targets/mask.png' width = '100%;'>","68","pos","CS","CS","1","category1/CS1.png","targets/27.png","0","indirect","13",""
"","html-keyboard-response","146","623606","0.0-8.0-0.14","oqpth3331g","many_one","0","indirect_first","0","CK05EN27","1","22","1","1","3","1","null","","","<div style=""font-size:60px;"">+</div>","null","","","","","","","","","",""
"","html-keyboard-response","147","623702","0.0-8.0-1.14","oqpth3331g","many_one","0","indirect_first","0","CK05EN27","1","22","1","1","3","1","null","","","<img src = 'category4/CS3.png' width = '100%;'>","null","","","","","","","","","",""
"","html-keyboard-response","148","623960","0.0-8.0-2.14","oqpth3331g","many_one","0","indirect_first","0","CK05EN27","1","22","1","1","3","1","null","","","<img src = 'targets/19.png' width = '100%;'>","null","","","","","","","","","",""
"","html-keyboard-response","149","625359","0.0-8.0-3.14","oqpth3331g","many_one","0","indirect_first","0","CK05EN27","1","22","1","1","3","1","1396.5449999086559","","","<img src = 'targets/mask.png' width = '100%;'>","75","pos","CS","CS","4","category4/CS3.png","targets/19.png","1","indirect","14",""
"","html-keyboard-response","150","626873","0.0-8.0-0.15","oqpth3331g","many_one","0","indirect_first","0","CK05EN27","1","22","1","1","3","1","null","","","<div style=""font-size:60px;"">+</div>","null","","","","","","","","","",""
"","html-keyboard-response","151","626971","0.0-8.0-1.15","oqpth3331g","many_one","0","indirect_first","0","CK05EN27","1","22","1","1","3","1","null","","","<img src = 'category4/CS6.png' width = '100%;'>","null","","","","","","","","","",""
"","html-keyboard-response","152","627231","0.0-8.0-2.15","oqpth3331g","many_one","0","indirect_first","0","CK05EN27","1","22","1","1","3","1","null","","","<img src = 'targets/6.png' width = '100%;'>","null","","","","","","","","","",""
"","html-keyboard-response","153","628745","0.0-8.0-3.15","oqpth3331g","many_one","0","indirect_first","0","CK05EN27","1","22","1","1","3","1","1512.4400001950562","","","<img src = 'targets/mask.png' width = '100%;'>","75","pos","GS","GSold","4","category4/CS6.png","targets/6.png","1","indirect","15",""
"","html-keyboard-response","154","630253","0.0-8.0-0.16","oqpth3331g","many_one","0","indirect_first","0","CK05EN27","1","22","1","1","3","1","null","","","<div style=""font-size:60px;"">+</div>","null","","","","","","","","","",""
"","html-keyboard-response","155","630345","0.0-8.0-1.16","oqpth3331g","many_one","0","indirect_first","0","CK05EN27","1","22","1","1","3","1","null","","","<img src = 'category2/CS2.png' width = '100%;'>","null","","","","","","","","","",""
"","html-keyboard-response","156","630606","0.0-8.0-2.16","oqpth3331g","many_one","0","indirect_first","0","CK05EN27","1","22","1","1","3","1","null","","","<img src = 'targets/35.png' width = '100%;'>","null","","","","","","","","","",""
"","html-keyboard-response","157","631821","0.0-8.0-3.16","oqpth3331g","many_one","0","indirect_first","0","CK05EN27","1","22","1","1","3","1","1213.230000110343","","","<img src = 'targets/mask.png' width = '100%;'>","75","neg","CS","CS","2","category2/CS2.png","targets/35.png","1","indirect","16",""
"","html-keyboard-response","158","633333","0.0-8.0-0.17","oqpth3331g","many_one","0","indirect_first","0","CK05EN27","1","22","1","1","3","1","null","","","<div style=""font-size:60px;"">+</div>","null","","","","","","","","","",""
"","html-keyboard-response","159","633434","0.0-8.0-1.17","oqpth3331g","many_one","0","indirect_first","0","CK05EN27","1","22","1","1","3","1","null","","","<img src = 'category4/CS7.png' width = '100%;'>","null","","","","","","","","","",""
"","html-keyboard-response","160","633697","0.0-8.0-2.17","oqpth3331g","many_one","0","indirect_first","0","CK05EN27","1","22","1","1","3","1","null","","","<img src = 'targets/10.png' width = '100%;'>","null","","","","","","","","","",""
"","html-keyboard-response","161","634454","0.0-8.0-3.17","oqpth3331g","many_one","0","indirect_first","0","CK05EN27","1","22","1","1","3","1","755.024999845773","","","<img src = 'targets/mask.png' width = '100%;'>","68","pos","CS","CS","4","category4/CS7.png","targets/10.png","0","indirect","17",""
"","html-keyboard-response","162","635967","0.0-8.0-0.18","oqpth3331g","many_one","0","indirect_first","0","CK05EN27","1","22","1","1","3","1","null","","","<div style=""font-size:60px;"">+</div>","null","","","","","","","","","",""
"","html-keyboard-response","163","636064","0.0-8.0-1.18","oqpth3331g","many_one","0","indirect_first","0","CK05EN27","1","22","1","1","3","1","null","","","<img src = 'category3/CS10.png' width = '100%;'>","null","","","","","","","","","",""
"","html-keyboard-response","164","636336","0.0-8.0-2.18","oqpth3331g","many_one","0","indirect_first","0","CK05EN27","1","22","1","1","3","1","null","","","<img src = 'targets/13.png' width = '100%;'>","null","","","","","","","","","",""
"","html-keyboard-response","165","637672","0.0-8.0-3.18","oqpth3331g","many_one","0","indirect_first","0","CK05EN27","1","22","1","1","3","1","1334.8250000271946","","","<img src = 'targets/mask.png' width = '100%;'>","68","neg","CS","CS","3","category3/CS10.png","targets/13.png","0","indirect","18",""
"","html-keyboard-response","166","639181","0.0-8.0-0.19","oqpth3331g","many_one","0","indirect_first","0","CK05EN27","1","22","1","1","3","1","null","","","<div style=""font-size:60px;"">+</div>","null","","","","","","","","","",""
"","html-keyboard-response","167","639277","0.0-8.0-1.19","oqpth3331g","many_one","0","indirect_first","0","CK05EN27","1","22","1","1","3","1","null","","","<img src = 'category3/CS8.png' width = '100%;'>","null","","","","","","","","","",""
"","html-keyboard-response","168","639533","0.0-8.0-2.19","oqpth3331g","many_one","0","indirect_first","0","CK05EN27","1","22","1","1","3","1","null","","","<img src = 'targets/11.png' width = '100%;'>","null","","","","","","","","","",""
"","html-keyboard-response","169","640603","0.0-8.0-3.19","oqpth3331g","many_one","0","indirect_first","0","CK05EN27","1","22","1","1","3","1","1068.144999910146","","","<img src = 'targets/mask.png' width = '100%;'>","75","neg","GS","GSold","3","category3/CS8.png","targets/11.png","1","indirect","19",""
"","html-keyboard-response","170","642111","0.0-8.0-0.20","oqpth3331g","many_one","0","indirect_first","0","CK05EN27","1","22","1","1","3","1","null","","","<div style=""font-size:60px;"">+</div>","null","","","","","","","","","",""
"","html-keyboard-response","171","642213","0.0-8.0-1.20","oqpth3331g","many_one","0","indirect_first","0","CK05EN27","1","22","1","1","3","1","null","","","<img src = 'category3/CS2.png' width = '100%;'>","null","","","","","","","","","",""
"","html-keyboard-response","172","642473","0.0-8.0-2.20","oqpth3331g","many_one","0","indirect_first","0","CK05EN27","1","22","1","1","3","1","null","","","<img src = 'targets/25.png' width = '100%;'>","null","","","","","","","","","",""
"","html-keyboard-response","173","643503","0.0-8.0-3.20","oqpth3331g","many_one","0","indirect_first","0","CK05EN27","1","22","1","1","3","1","1026.7300000414252","","","<img src = 'targets/mask.png' width = '100%;'>","75","neg","GS","GSold","3","category3/CS2.png","targets/25.png","1","indirect","20",""
"","html-keyboard-response","174","645014","0.0-8.0-0.21","oqpth3331g","many_one","0","indirect_first","0","CK05EN27","1","22","1","1","3","1","null","","","<div style=""font-size:60px;"">+</div>","null","","","","","","","","","",""
"","html-keyboard-response","175","645115","0.0-8.0-1.21","oqpth3331g","many_one","0","indirect_first","0","CK05EN27","1","22","1","1","3","1","null","","","<img src = 'category2/CS7.png' width = '100%;'>","null","","","","","","","","","",""
"","html-keyboard-response","176","645373","0.0-8.0-2.21","oqpth3331g","many_one","0","indirect_first","0","CK05EN27","1","22","1","1","3","1","null","","","<img src = 'targets/20.png' width = '100%;'>","null","","","","","","","","","",""
"","html-keyboard-response","177","647648","0.0-8.0-3.21","oqpth3331g","many_one","0","indirect_first","0","CK05EN27","1","22","1","1","3","1","2274.8650000430644","","","<img src = 'targets/mask.png' width = '100%;'>","75","neg","CS","CS","2","category2/CS7.png","targets/20.png","1","indirect","21",""
"","html-keyboard-response","178","649157","0.0-8.0-0.22","oqpth3331g","many_one","0","indirect_first","0","CK05EN27","1","22","1","1","3","1","null","","","<div style=""font-size:60px;"">+</div>","null","","","","","","","","","",""
"","html-keyboard-response","179","649253","0.0-8.0-1.22","oqpth3331g","many_one","0","indirect_first","0","CK05EN27","1","22","1","1","3","1","null","","","<img src = 'category1/CS8.png' width = '100%;'>","null","","","","","","","","","",""
"","html-keyboard-response","180","649518","0.0-8.0-2.22","oqpth3331g","many_one","0","indirect_first","0","CK05EN27","1","22","1","1","3","1","null","","","<img src = 'targets/18.png' width = '100%;'>","null","","","","","","","","","",""
"","html-keyboard-response","181","652120","0.0-8.0-3.22","oqpth3331g","many_one","0","indirect_first","0","CK05EN27","1","22","1","1","3","1","2599.195000017062","","","<img src = 'targets/mask.png' width = '100%;'>","68","pos","CS","CS","1","category1/CS8.png","targets/18.png","0","indirect","22",""
"","html-keyboard-response","182","653629","0.0-8.0-0.23","oqpth3331g","many_one","0","indirect_first","0","CK05EN27","1","22","1","1","3","1","null","","","<div style=""font-size:60px;"">+</div>","null","","","","","","","","","",""
"","html-keyboard-response","183","653733","0.0-8.0-1.23","oqpth3331g","many_one","0","indirect_first","0","CK05EN27","1","22","1","1","3","1","null","","","<img src = 'category2/CS4.png' width = '100%;'>","null","","","","","","","","","",""
"","html-keyboard-response","184","653994","0.0-8.0-2.23","oqpth3331g","many_one","0","indirect_first","0","CK05EN27","1","22","1","1","3","1","null","","","<img src = 'targets/37.png' width = '100%;'>","null","","","","","","","","","",""
"","html-keyboard-response","185","657769","0.0-8.0-3.23","oqpth3331g","many_one","0","indirect_first","0","CK05EN27","1","22","1","1","3","1","3771.9699998851866","","","<img src = 'targets/mask.png' width = '100%;'>","68","neg","CS","CS","2","category2/CS4.png","targets/37.png","0","indirect","23",""
"","survey-html-form","186","674033","0.0-9.0","oqpth3331g","many_one","0","indirect_first","0","CK05EN27","1","22","1","1","3","1","15759.684999939054","","{}","","","","","","","","","","","",""
"","html-keyboard-response","187","677043","0.0-10.0-0.0","oqpth3331g","many_one","0","indirect_first","0","CK05EN27","1","22","1","1","3","1","null","","","<div style=""font-size:60px;"">+</div>","null","","","","","","","","","",""
"","html-keyboard-response","188","677139","0.0-10.0-1.0","oqpth3331g","many_one","0","indirect_first","0","CK05EN27","1","22","1","1","3","1","null","","","<img src = 'category2/CS1.png' width = '100%;'>","null","","","","","","","","","",""
"","html-keyboard-response","189","677402","0.0-10.0-2.0","oqpth3331g","many_one","0","indirect_first","0","CK05EN27","1","22","1","1","3","1","null","","","<img src = 'targets/5.png' width = '100%;'>","null","","","","","","","","","",""
"","html-keyboard-response","190","678274","0.0-10.0-3.0","oqpth3331g","many_one","0","indirect_first","0","CK05EN27","1","22","1","1","3","1","868.5300000943244","","","<img src = 'targets/mask.png' width = '100%;'>","75","neg","GS","GSold","2","category2/CS1.png","targets/5.png","1","indirect","24",""
"","html-keyboard-response","191","679783","0.0-10.0-0.1","oqpth3331g","many_one","0","indirect_first","0","CK05EN27","1","22","1","1","3","1","null","","","<div style=""font-size:60px;"">+</div>","null","","","","","","","","","",""
"","html-keyboard-response","192","679879","0.0-10.0-1.1","oqpth3331g","many_one","0","indirect_first","0","CK05EN27","1","22","1","1","3","1","null","","","<img src = 'category2/GS2.png' width = '100%;'>","null","","","","","","","","","",""
"","html-keyboard-response","193","680144","0.0-10.0-2.1","oqpth3331g","many_one","0","indirect_first","0","CK05EN27","1","22","1","1","3","1","null","","","<img src = 'targets/29.png' width = '100%;'>","null","","","","","","","","","",""
"","html-keyboard-response","194","681090","0.0-10.0-3.1","oqpth3331g","many_one","0","indirect_first","0","CK05EN27","1","22","1","1","3","1","944.6900000330061","","","<img src = 'targets/mask.png' width = '100%;'>","68","neg","GS","GSnew","2","category2/GS2.png","targets/29.png","0","indirect","25",""
"","html-keyboard-response","195","682607","0.0-10.0-0.2","oqpth3331g","many_one","0","indirect_first","0","CK05EN27","1","22","1","1","3","1","null","","","<div style=""font-size:60px;"">+</div>","null","","","","","","","","","",""
"","html-keyboard-response","196","682701","0.0-10.0-1.2","oqpth3331g","many_one","0","indirect_first","0","CK05EN27","1","22","1","1","3","1","null","","","<img src = 'category3/GS2.png' width = '100%;'>","null","","","","","","","","","",""
"","html-keyboard-response","197","682962","0.0-10.0-2.2","oqpth3331g","many_one","0","indirect_first","0","CK05EN27","1","22","1","1","3","1","null","","","<img src = 'targets/23.png' width = '100%;'>","null","","","","","","","","","",""
"","html-keyboard-response","198","683594","0.0-10.0-3.2","oqpth3331g","many_one","0","indirect_first","0","CK05EN27","1","22","1","1","3","1","630.5549999233335","","","<img src = 'targets/mask.png' width = '100%;'>","68","neg","GS","GSnew","3","category3/GS2.png","targets/23.png","0","indirect","26",""
"","html-keyboard-response","199","685110","0.0-10.0-0.3","oqpth3331g","many_one","0","indirect_first","0","CK05EN27","1","22","1","1","3","1","null","","","<div style=""font-size:60px;"">+</div>","null","","","","","","","","","",""
"","html-keyboard-response","200","685205","0.0-10.0-1.3","oqpth3331g","many_one","0","indirect_first","0","CK05EN27","1","22","1","1","3","1","null","","","<img src = 'category3/GS1.png' width = '100%;'>","null","","","","","","","","","",""
"","html-keyboard-response","201","685464","0.0-10.0-2.3","oqpth3331g","many_one","0","indirect_first","0","CK05EN27","1","22","1","1","3","1","null","","","<img src = 'targets/31.png' width = '100%;'>","null","","","","","","","","","",""
"","html-keyboard-response","202","686152","0.0-10.0-3.3","oqpth3331g","many_one","0","indirect_first","0","CK05EN27","1","22","1","1","3","1","686.2299998756498","","","<img src = 'targets/mask.png' width = '100%;'>","68","neg","GS","GSnew","3","category3/GS1.png","targets/31.png","0","indirect","27",""
"","html-keyboard-response","203","687665","0.0-10.0-0.4","oqpth3331g","many_one","0","indirect_first","0","CK05EN27","1","22","1","1","3","1","null","","","<div style=""font-size:60px;"">+</div>","null","","","","","","","","","",""
"","html-keyboard-response","204","687759","0.0-10.0-1.4","oqpth3331g","many_one","0","indirect_first","0","CK05EN27","1","22","1","1","3","1","null","","","<img src = 'category2/CS10.png' width = '100%;'>","null","","","","","","","","","",""
"","html-keyboard-response","205","688021","0.0-10.0-2.4","oqpth3331g","many_one","0","indirect_first","0","CK05EN27","1","22","1","1","3","1","null","","","<img src = 'targets/21.png' width = '100%;'>","null","","","","","","","","","",""
"","html-keyboard-response","206","688661","0.0-10.0-3.4","oqpth3331g","many_one","0","indirect_first","0","CK05EN27","1","22","1","1","3","1","638.414999935776","","","<img src = 'targets/mask.png' width = '100%;'>","68","neg","GS","GSold","2","category2/CS10.png","targets/21.png","0","indirect","28",""
"","html-keyboard-response","207","690200","0.0-10.0-0.5","oqpth3331g","many_one","0","indirect_first","0","CK05EN27","1","22","1","1","3","1","null","","","<div style=""font-size:60px;"">+</div>","null","","","","","","","","","",""
"","html-keyboard-response","208","690300","0.0-10.0-1.5","oqpth3331g","many_one","0","indirect_first","0","CK05EN27","1","22","1","1","3","1","null","","","<img src = 'category1/CS10.png' width = '100%;'>","null","","","","","","","","","",""
"","html-keyboard-response","209","690615","0.0-10.0-2.5","oqpth3331g","many_one","0","indirect_first","0","CK05EN27","1","22","1","1","3","1","null","","","<img src = 'targets/47.png' width = '100%;'>","null","","","","","","","","","",""
"","html-keyboard-response","210","691442","0.0-10.0-3.5","oqpth3331g","many_one","0","indirect_first","0","CK05EN27","1","22","1","1","3","1","825.8500001393259","","","<img src = 'targets/mask.png' width = '100%;'>","68","pos","GS","GSold","1","category1/CS10.png","targets/47.png","0","indirect","29",""
"","html-keyboard-response","211","692962","0.0-10.0-0.6","oqpth3331g","many_one","0","indirect_first","0","CK05EN27","1","22","1","1","3","1","null","","","<div style=""font-size:60px;"">+</div>","null","","","","","","","","","",""
"","html-keyboard-response","212","693059","0.0-10.0-1.6","oqpth3331g","many_one","0","indirect_first","0","CK05EN27","1","22","1","1","3","1","null","","","<img src = 'category1/CS9.png' width = '100%;'>","null","","","","","","","","","",""
"","html-keyboard-response","213","693327","0.0-10.0-2.6","oqpth3331g","many_one","0","indirect_first","0","CK05EN27","1","22","1","1","3","1","null","","","<img src = 'targets/41.png' width = '100%;'>","null","","","","","","","","","",""
"","html-keyboard-response","214","693976","0.0-10.0-3.6","oqpth3331g","many_one","0","indirect_first","0","CK05EN27","1","22","1","1","3","1","646.8350000213832","","","<img src = 'targets/mask.png' width = '100%;'>","75","pos","GS","GSold","1","category1/CS9.png","targets/41.png","1","indirect","30",""
"","html-keyboard-response","215","695489","0.0-10.0-0.7","oqpth3331g","many_one","0","indirect_first","0","CK05EN27","1","22","1","1","3","1","null","","","<div style=""font-size:60px;"">+</div>","null","","","","","","","","","",""
"","html-keyboard-response","216","695585","0.0-10.0-1.7","oqpth3331g","many_one","0","indirect_first","0","CK05EN27","1","22","1","1","3","1","null","","","<img src = 'category2/men.png' width = '100%;'>","null","","","","","","","","","",""
"","html-keyboard-response","217","695843","0.0-10.0-2.7","oqpth3331g","many_one","0","indirect_first","0","CK05EN27","1","22","1","1","3","1","null","","","<img src = 'targets/22.png' width = '100%;'>","null","","","","","","","","","",""
"","html-keyboard-response","218","696669","0.0-10.0-3.7","oqpth3331g","many_one","0","indirect_first","0","CK05EN27","1","22","1","1","3","1","823.7149999476969","","","<img src = 'targets/mask.png' width = '100%;'>","75","neg","GS","abstract","2","category2/men.png","targets/22.png","1","indirect","31",""
"","html-keyboard-response","219","698183","0.0-10.0-0.8","oqpth3331g","many_one","0","indirect_first","0","CK05EN27","1","22","1","1","3","1","null","","","<div style=""font-size:60px;"">+</div>","null","","","","","","","","","",""
"","html-keyboard-response","220","698278","0.0-10.0-1.8","oqpth3331g","many_one","0","indirect_first","0","CK05EN27","1","22","1","1","3","1","null","","","<img src = 'category1/CS6.png' width = '100%;'>","null","","","","","","","","","",""
"","html-keyboard-response","221","698544","0.0-10.0-2.8","oqpth3331g","many_one","0","indirect_first","0","CK05EN27","1","22","1","1","3","1","null","","","<img src = 'targets/38.png' width = '100%;'>","null","","","","","","","","","",""
"","html-keyboard-response","222","699237","0.0-10.0-3.8","oqpth3331g","many_one","0","indirect_first","0","CK05EN27","1","22","1","1","3","1","682.7050000429153","","","<img src = 'targets/mask.png' width = '100%;'>","75","pos","GS","GSold","1","category1/CS6.png","targets/38.png","1","indirect","32",""
"","html-keyboard-response","223","700745","0.0-10.0-0.9","oqpth3331g","many_one","0","indirect_first","0","CK05EN27","1","22","1","1","3","1","null","","","<div style=""font-size:60px;"">+</div>","null","","","","","","","","","",""
"","html-keyboard-response","224","700843","0.0-10.0-1.9","oqpth3331g","many_one","0","indirect_first","0","CK05EN27","1","22","1","1","3","1","null","","","<img src = 'category1/ma.png' width = '100%;'>","null","","","","","","","","","",""
"","html-keyboard-response","225","701098","0.0-10.0-2.9","oqpth3331g","many_one","0","indirect_first","0","CK05EN27","1","22","1","1","3","1","null","","","<img src = 'targets/1.png' width = '100%;'>","null","","","","","","","","","",""
"","html-keyboard-response","226","701874","0.0-10.0-3.9","oqpth3331g","many_one","0","indirect_first","0","CK05EN27","1","22","1","1","3","1","773.8499999977648","","","<img src = 'targets/mask.png' width = '100%;'>","68","pos","GS","abstract","1","category1/ma.png","targets/1.png","0","indirect","33",""
"","html-keyboard-response","227","703384","0.0-10.0-0.10","oqpth3331g","many_one","0","indirect_first","0","CK05EN27","1","22","1","1","3","1","null","","","<div style=""font-size:60px;"">+</div>","null","","","","","","","","","",""
"","html-keyboard-response","228","703477","0.0-10.0-1.10","oqpth3331g","many_one","0","indirect_first","0","CK05EN27","1","22","1","1","3","1","null","","","<img src = 'category1/GS1.png' width = '100%;'>","null","","","","","","","","","",""
"","html-keyboard-response","229","703729","0.0-10.0-2.10","oqpth3331g","many_one","0","indirect_first","0","CK05EN27","1","22","1","1","3","1","null","","","<img src = 'targets/15.png' width = '100%;'>","null","","","","","","","","","",""
"","html-keyboard-response","230","705423","0.0-10.0-3.10","oqpth3331g","many_one","0","indirect_first","0","CK05EN27","1","22","1","1","3","1","1690.7299999147654","","","<img src = 'targets/mask.png' width = '100%;'>","75","pos","GS","GSnew","1","category1/GS1.png","targets/15.png","1","indirect","34",""
"","html-keyboard-response","231","706938","0.0-10.0-0.11","oqpth3331g","many_one","0","indirect_first","0","CK05EN27","1","22","1","1","3","1","null","","","<div style=""font-size:60px;"">+</div>","null","","","","","","","","","",""
"","html-keyboard-response","232","707035","0.0-10.0-1.11","oqpth3331g","many_one","0","indirect_first","0","CK05EN27","1","22","1","1","3","1","null","","","<img src = 'category4/CS10.png' width = '100%;'>","null","","","","","","","","","",""
"","html-keyboard-response","233","707292","0.0-10.0-2.11","oqpth3331g","many_one","0","indirect_first","0","CK05EN27","1","22","1","1","3","1","null","","","<img src = 'targets/34.png' width = '100%;'>","null","","","","","","","","","",""
"","html-keyboard-response","234","708555","0.0-10.0-3.11","oqpth3331g","many_one","0","indirect_first","0","CK05EN27","1","22","1","1","3","1","1260.8199999667704","","","<img src = 'targets/mask.png' width = '100%;'>","75","pos","GS","GSold","4","category4/CS10.png","targets/34.png","1","indirect","35",""
"","html-keyboard-response","235","710071","0.0-10.0-0.12","oqpth3331g","many_one","0","indirect_first","0","CK05EN27","1","22","1","1","3","1","null","","","<div style=""font-size:60px;"">+</div>","null","","","","","","","","","",""
"","html-keyboard-response","236","710165","0.0-10.0-1.12","oqpth3331g","many_one","0","indirect_first","0","CK05EN27","1","22","1","1","3","1","null","","","<img src = 'category1/GS3.png' width = '100%;'>","null","","","","","","","","","",""
"","html-keyboard-response","237","710431","0.0-10.0-2.12","oqpth3331g","many_one","0","indirect_first","0","CK05EN27","1","22","1","1","3","1","null","","","<img src = 'targets/8.png' width = '100%;'>","null","","","","","","","","","",""
"","html-keyboard-response","238","711820","0.0-10.0-3.12","oqpth3331g","many_one","0","indirect_first","0","CK05EN27","1","22","1","1","3","1","1385.4099998716265","","","<img src = 'targets/mask.png' width = '100%;'>","68","pos","GS","GSnew","1","category1/GS3.png","targets/8.png","0","indirect","36",""
"","html-keyboard-response","239","713333","0.0-10.0-0.13","oqpth3331g","many_one","0","indirect_first","0","CK05EN27","1","22","1","1","3","1","null","","","<div style=""font-size:60px;"">+</div>","null","","","","","","","","","",""
"","html-keyboard-response","240","713434","0.0-10.0-1.13","oqpth3331g","many_one","0","indirect_first","0","CK05EN27","1","22","1","1","3","1","null","","","<img src = 'category4/lin.png' width = '100%;'>","null","","","","","","","","","",""
"","html-keyboard-response","241","713693","0.0-10.0-2.13","oqpth3331g","many_one","0","indirect_first","0","CK05EN27","1","22","1","1","3","1","null","","","<img src = 'targets/7.png' width = '100%;'>","null","","","","","","","","","",""
"","html-keyboard-response","242","714805","0.0-10.0-3.13","oqpth3331g","many_one","0","indirect_first","0","CK05EN27","1","22","1","1","3","1","1109.0249998960644","","","<img src = 'targets/mask.png' width = '100%;'>","68","pos","GS","abstract","4","category4/lin.png","targets/7.png","0","indirect","37",""
"","html-keyboard-response","243","716311","0.0-10.0-0.14","oqpth3331g","many_one","0","indirect_first","0","CK05EN27","1","22","1","1","3","1","null","","","<div style=""font-size:60px;"">+</div>","null","","","","","","","","","",""
"","html-keyboard-response","244","716406","0.0-10.0-1.14","oqpth3331g","many_one","0","indirect_first","0","CK05EN27","1","22","1","1","3","1","null","","","<img src = 'category2/CS6.png' width = '100%;'>","null","","","","","","","","","",""
"","html-keyboard-response","245","716670","0.0-10.0-2.14","oqpth3331g","many_one","0","indirect_first","0","CK05EN27","1","22","1","1","3","1","null","","","<img src = 'targets/32.png' width = '100%;'>","null","","","","","","","","","",""
"","html-keyboard-response","246","717753","0.0-10.0-3.14","oqpth3331g","many_one","0","indirect_first","0","CK05EN27","1","22","1","1","3","1","1080.9149998240173","","","<img src = 'targets/mask.png' width = '100%;'>","75","neg","GS","GSold","2","category2/CS6.png","targets/32.png","1","indirect","38",""
"","html-keyboard-response","247","719262","0.0-10.0-0.15","oqpth3331g","many_one","0","indirect_first","0","CK05EN27","1","22","1","1","3","1","null","","","<div style=""font-size:60px;"">+</div>","null","","","","","","","","","",""
"","html-keyboard-response","248","719361","0.0-10.0-1.15","oqpth3331g","many_one","0","indirect_first","0","CK05EN27","1","22","1","1","3","1","null","","","<img src = 'category4/CS8.png' width = '100%;'>","null","","","","","","","","","",""
"","html-keyboard-response","249","719620","0.0-10.0-2.15","oqpth3331g","many_one","0","indirect_first","0","CK05EN27","1","22","1","1","3","1","null","","","<img src = 'targets/45.png' width = '100%;'>","null","","","","","","","","","",""
"","html-keyboard-response","250","720381","0.0-10.0-3.15","oqpth3331g","many_one","0","indirect_first","0","CK05EN27","1","22","1","1","3","1","759.1349999420345","","","<img src = 'targets/mask.png' width = '100%;'>","68","pos","GS","GSold","4","category4/CS8.png","targets/45.png","0","indirect","39",""
"","html-keyboard-response","251","721890","0.0-10.0-0.16","oqpth3331g","many_one","0","indirect_first","0","CK05EN27","1","22","1","1","3","1","null","","","<div style=""font-size:60px;"">+</div>","null","","","","","","","","","",""
"","html-keyboard-response","252","721990","0.0-10.0-1.16","oqpth3331g","many_one","0","indirect_first","0","CK05EN27","1","22","1","1","3","1","null","","","<img src = 'category2/GS3.png' width = '100%;'>","null","","","","","","","","","",""
"","html-keyboard-response","253","722249","0.0-10.0-2.16","oqpth3331g","many_one","0","indirect_first","0","CK05EN27","1","22","1","1","3","1","null","","","<img src = 'targets/2.png' width = '100%;'>","null","","","","","","","","","",""
"","html-keyboard-response","254","723528","0.0-10.0-3.16","oqpth3331g","many_one","0","indirect_first","0","CK05EN27","1","22","1","1","3","1","1277.5299998465925","","","<img src = 'targets/mask.png' width = '100%;'>","68","neg","GS","GSnew","2","category2/GS3.png","targets/2.png","0","indirect","40",""
"","html-keyboard-response","255","725039","0.0-10.0-0.17","oqpth3331g","many_one","0","indirect_first","0","CK05EN27","1","22","1","1","3","1","null","","","<div style=""font-size:60px;"">+</div>","null","","","","","","","","","",""
"","html-keyboard-response","256","725135","0.0-10.0-1.17","oqpth3331g","many_one","0","indirect_first","0","CK05EN27","1","22","1","1","3","1","null","","","<img src = 'category3/GS3.png' width = '100%;'>","null","","","","","","","","","",""
"","html-keyboard-response","257","725392","0.0-10.0-2.17","oqpth3331g","many_one","0","indirect_first","0","CK05EN27","1","22","1","1","3","1","null","","","<img src = 'targets/26.png' width = '100%;'>","null","","","","","","","","","",""
"","html-keyboard-response","258","726914","0.0-10.0-3.17","oqpth3331g","many_one","0","indirect_first","0","CK05EN27","1","22","1","1","3","1","1520.7450001034886","","","<img src = 'targets/mask.png' width = '100%;'>","75","neg","GS","GSnew","3","category3/GS3.png","targets/26.png","1","indirect","41",""
"","html-keyboard-response","259","728429","0.0-10.0-0.18","oqpth3331g","many_one","0","indirect_first","0","CK05EN27","1","22","1","1","3","1","null","","","<div style=""font-size:60px;"">+</div>","null","","","","","","","","","",""
"","html-keyboard-response","260","728527","0.0-10.0-1.18","oqpth3331g","many_one","0","indirect_first","0","CK05EN27","1","22","1","1","3","1","null","","","<img src = 'category3/wang.png' width = '100%;'>","null","","","","","","","","","",""
"","html-keyboard-response","261","728786","0.0-10.0-2.18","oqpth3331g","many_one","0","indirect_first","0","CK05EN27","1","22","1","1","3","1","null","","","<img src = 'targets/3.png' width = '100%;'>","null","","","","","","","","","",""
"","html-keyboard-response","262","730737","0.0-10.0-3.18","oqpth3331g","many_one","0","indirect_first","0","CK05EN27","1","22","1","1","3","1","1947.0850001089275","","","<img src = 'targets/mask.png' width = '100%;'>","68","neg","GS","abstract","3","category3/wang.png","targets/3.png","0","indirect","42",""
"","html-keyboard-response","263","732248","0.0-10.0-0.19","oqpth3331g","many_one","0","indirect_first","0","CK05EN27","1","22","1","1","3","1","null","","","<div style=""font-size:60px;"">+</div>","null","","","","","","","","","",""
"","html-keyboard-response","264","732345","0.0-10.0-1.19","oqpth3331g","many_one","0","indirect_first","0","CK05EN27","1","22","1","1","3","1","null","","","<img src = 'category1/GS2.png' width = '100%;'>","null","","","","","","","","","",""
"","html-keyboard-response","265","732604","0.0-10.0-2.19","oqpth3331g","many_one","0","indirect_first","0","CK05EN27","1","22","1","1","3","1","null","","","<img src = 'targets/17.png' width = '100%;'>","null","","","","","","","","","",""
"","html-keyboard-response","266","733430","0.0-10.0-3.19","oqpth3331g","many_one","0","indirect_first","0","CK05EN27","1","22","1","1","3","1","823.2849999330938","","","<img src = 'targets/mask.png' width = '100%;'>","68","pos","GS","GSnew","1","category1/GS2.png","targets/17.png","0","indirect","43",""
"","html-keyboard-response","267","734937","0.0-10.0-0.20","oqpth3331g","many_one","0","indirect_first","0","CK05EN27","1","22","1","1","3","1","null","","","<div style=""font-size:60px;"">+</div>","null","","","","","","","","","",""
"","html-keyboard-response","268","735034","0.0-10.0-1.20","oqpth3331g","many_one","0","indirect_first","0","CK05EN27","1","22","1","1","3","1","null","","","<img src = 'category2/GS1.png' width = '100%;'>","null","","","","","","","","","",""
"","html-keyboard-response","269","735300","0.0-10.0-2.20","oqpth3331g","many_one","0","indirect_first","0","CK05EN27","1","22","1","1","3","1","null","","","<img src = 'targets/28.png' width = '100%;'>","null","","","","","","","","","",""
"","html-keyboard-response","270","736442","0.0-10.0-3.20","oqpth3331g","many_one","0","indirect_first","0","CK05EN27","1","22","1","1","3","1","1138.5200000368059","","","<img src = 'targets/mask.png' width = '100%;'>","75","neg","GS","GSnew","2","category2/GS1.png","targets/28.png","1","indirect","44",""
"","html-keyboard-response","271","737952","0.0-10.0-0.21","oqpth3331g","many_one","0","indirect_first","0","CK05EN27","1","22","1","1","3","1","null","","","<div style=""font-size:60px;"">+</div>","null","","","","","","","","","",""
"","html-keyboard-response","272","738051","0.0-10.0-1.21","oqpth3331g","many_one","0","indirect_first","0","CK05EN27","1","22","1","1","3","1","null","","","<img src = 'category4/GS3.png' width = '100%;'>","null","","","","","","","","","",""
"","html-keyboard-response","273","738320","0.0-10.0-2.21","oqpth3331g","many_one","0","indirect_first","0","CK05EN27","1","22","1","1","3","1","null","","","<img src = 'targets/40.png' width = '100%;'>","null","","","","","","","","","",""
"","html-keyboard-response","274","739475","0.0-10.0-3.21","oqpth3331g","many_one","0","indirect_first","0","CK05EN27","1","22","1","1","3","1","1150.4500000737607","","","<img src = 'targets/mask.png' width = '100%;'>","75","pos","GS","GSnew","4","category4/GS3.png","targets/40.png","1","indirect","45",""
"","html-keyboard-response","275","740988","0.0-10.0-0.22","oqpth3331g","many_one","0","indirect_first","0","CK05EN27","1","22","1","1","3","1","null","","","<div style=""font-size:60px;"">+</div>","null","","","","","","","","","",""
"","html-keyboard-response","276","741091","0.0-10.0-1.22","oqpth3331g","many_one","0","indirect_first","0","CK05EN27","1","22","1","1","3","1","null","","","<img src = 'category4/GS1.png' width = '100%;'>","null","","","","","","","","","",""
"","html-keyboard-response","277","741353","0.0-10.0-2.22","oqpth3331g","many_one","0","indirect_first","0","CK05EN27","1","22","1","1","3","1","null","","","<img src = 'targets/33.png' width = '100%;'>","null","","","","","","","","","",""
"","html-keyboard-response","278","742454","0.0-10.0-3.22","oqpth3331g","many_one","0","indirect_first","0","CK05EN27","1","22","1","1","3","1","1098.3349999878556","","","<img src = 'targets/mask.png' width = '100%;'>","68","pos","GS","GSnew","4","category4/GS1.png","targets/33.png","0","indirect","46",""
"","html-keyboard-response","279","743963","0.0-10.0-0.23","oqpth3331g","many_one","0","indirect_first","0","CK05EN27","1","22","1","1","3","1","null","","","<div style=""font-size:60px;"">+</div>","null","","","","","","","","","",""
"","html-keyboard-response","280","744058","0.0-10.0-1.23","oqpth3331g","many_one","0","indirect_first","0","CK05EN27","1","22","1","1","3","1","null","","","<img src = 'category4/GS2.png' width = '100%;'>","null","","","","","","","","","",""
"","html-keyboard-response","281","744316","0.0-10.0-2.23","oqpth3331g","many_one","0","indirect_first","0","CK05EN27","1","22","1","1","3","1","null","","","<img src = 'targets/46.png' width = '100%;'>","null","","","","","","","","","",""
"","html-keyboard-response","282","745162","0.0-10.0-3.23","oqpth3331g","many_one","0","indirect_first","0","CK05EN27","1","22","1","1","3","1","844.1249998286366","","","<img src = 'targets/mask.png' width = '100%;'>","68","pos","GS","GSnew","4","category4/GS2.png","targets/46.png","0","indirect","47",""
"","survey-html-form","283","758848","0.0-11.0","oqpth3331g","many_one","0","indirect_first","0","CK05EN27","1","22","1","1","3","1","13181.80499994196","","{}","","","","","","","","","","","",""
"","image-slider-response","284","781776","0.0-12.0-0.0","oqpth3331g","many_one","0","indirect_first","0","CK05EN27","1","22","1","1","3","1","20923.130000010133","","","","","neg","GS","GSold","2","category2/CS10.png","targets/21.png","","direct","","-46"
"","image-slider-response","285","791376","0.0-12.0-0.1","oqpth3331g","many_one","0","indirect_first","0","CK05EN27","1","22","1","1","3","1","9596.88499988988","","","","","pos","GS","GSold","1","category1/CS9.png","targets/41.png","","direct","","60"
"","image-slider-response","286","795192","0.0-12.0-0.2","oqpth3331g","many_one","0","indirect_first","0","CK05EN27","1","22","1","1","3","1","3814.119999995455","","","","","neg","GS","GSnew","2","category2/GS3.png","targets/2.png","","direct","","-56"
"","image-slider-response","287","799616","0.0-12.0-0.3","oqpth3331g","many_one","0","indirect_first","0","CK05EN27","1","22","1","1","3","1","4422.68000007607","","","","","neg","CS","CS","3","category3/CS4.png","targets/9.png","","direct","","-28"
"","image-slider-response","288","803264","0.0-12.0-0.4","oqpth3331g","many_one","0","indirect_first","0","CK05EN27","1","22","1","1","3","1","3645.784999942407","","","","","pos","GS","GSnew","4","category4/GS3.png","targets/40.png","","direct","","68"
"","image-slider-response","289","807568","0.0-12.0-0.5","oqpth3331g","many_one","0","indirect_first","0","CK05EN27","1","22","1","1","3","1","4301.810000091791","","","","","neg","GS","GSold","3","category3/CS8.png","targets/11.png","","direct","","20"
"","image-slider-response","290","811456","0.0-12.0-0.6","oqpth3331g","many_one","0","indirect_first","0","CK05EN27","1","22","1","1","3","1","3886.299999896437","","","","","pos","GS","GSold","4","category4/CS10.png","targets/34.png","","direct","","21"
"","image-slider-response","291","814960","0.0-12.0-0.7","oqpth3331g","many_one","0","indirect_first","0","CK05EN27","1","22","1","1","3","1","3502.020000014454","","","","","pos","GS","abstract","4","category4/lin.png","targets/7.png","","direct","","36"
"","image-slider-response","292","821808","0.0-12.0-0.8","oqpth3331g","many_one","0","indirect_first","0","CK05EN27","1","22","1","1","3","1","6846.2700000964105","","","","","neg","GS","GSold","2","category2/CS6.png","targets/32.png","","direct","","-62"
"","image-slider-response","293","825456","0.0-12.0-0.9","oqpth3331g","many_one","0","indirect_first","0","CK05EN27","1","22","1","1","3","1","3646.4750000741333","","","","","neg","CS","CS","2","category2/CS4.png","targets/37.png","","direct","","-64"
"","image-slider-response","294","828432","0.0-12.0-0.10","oqpth3331g","many_one","0","indirect_first","0","CK05EN27","1","22","1","1","3","1","2974.6499999891967","","","","","neg","CS","CS","2","category2/CS5.png","targets/44.png","","direct","","-63"
"","image-slider-response","295","833944","0.0-12.0-0.11","oqpth3331g","many_one","0","indirect_first","0","CK05EN27","1","22","1","1","3","1","5509.940000018105","","","","","pos","CS","CS","1","category1/CS1.png","targets/27.png","","direct","","15"
"","image-slider-response","296","837744","0.0-12.0-0.12","oqpth3331g","many_one","0","indirect_first","0","CK05EN27","1","22","1","1","3","1","3797.939999960363","","","","","pos","GS","GSnew","4","category4/GS1.png","targets/33.png","","direct","","68"
"","image-slider-response","297","842008","0.0-12.0-0.13","oqpth3331g","many_one","0","indirect_first","0","CK05EN27","1","22","1","1","3","1","4262.910000048578","","","","","pos","CS","CS","4","category4/CS9.png","targets/39.png","","direct","","37"
"","image-slider-response","298","845840","0.0-12.0-0.14","oqpth3331g","many_one","0","indirect_first","0","CK05EN27","1","22","1","1","3","1","3830.13500017114","","","","","neg","CS","CS","3","category3/CS5.png","targets/16.png","","direct","","-62"
"","image-slider-response","299","851080","0.0-12.0-0.15","oqpth3331g","many_one","0","indirect_first","0","CK05EN27","1","22","1","1","3","1","5237.770000007004","","","","","pos","CS","CS","4","category4/CS2.png","targets/30.png","","direct","","81"
"","image-slider-response","300","854464","0.0-12.0-0.16","oqpth3331g","many_one","0","indirect_first","0","CK05EN27","1","22","1","1","3","1","3382.1950000710785","","","","","pos","GS","GSnew","1","category1/GS3.png","targets/8.png","","direct","","59"
"","image-slider-response","301","858600","0.0-12.0-0.17","oqpth3331g","many_one","0","indirect_first","0","CK05EN27","1","22","1","1","3","1","4134.21000004746","","","","","pos","GS","GSold","4","category4/CS8.png","targets/45.png","","direct","","71"
"","image-slider-response","302","862296","0.0-12.0-0.18","oqpth3331g","many_one","0","indirect_first","0","CK05EN27","1","22","1","1","3","1","3694.3849998060614","","","","","neg","GS","abstract","2","category2/men.png","targets/22.png","","direct","","-56"
"","image-slider-response","303","865088","0.0-12.0-0.19","oqpth3331g","many_one","0","indirect_first","0","CK05EN27","1","22","1","1","3","1","2790.3700000606477","","","","","neg","CS","CS","2","category2/CS7.png","targets/20.png","","direct","","-78"
"","image-slider-response","304","868576","0.0-12.0-0.20","oqpth3331g","many_one","0","indirect_first","0","CK05EN27","1","22","1","1","3","1","3486.6000001784414","","","","","pos","GS","GSnew","4","category4/GS2.png","targets/46.png","","direct","","28"
"","image-slider-response","305","871504","0.0-12.0-0.21","oqpth3331g","many_one","0","indirect_first","0","CK05EN27","1","22","1","1","3","1","2925.959999905899","","","","","pos","CS","CS","4","category4/CS5.png","targets/36.png","","direct","","83"
"","image-slider-response","306","878216","0.0-12.0-0.22","oqpth3331g","many_one","0","indirect_first","0","CK05EN27","1","22","1","1","3","1","6709.9549998529255","","","","","neg","CS","CS","3","category3/CS9.png","targets/4.png","","direct","","-63"
"","image-slider-response","307","884623","0.0-12.0-0.23","oqpth3331g","many_one","0","indirect_first","0","CK05EN27","1","22","1","1","3","1","6405.354999937117","","","","","neg","GS","GSold","3","category3/CS2.png","targets/25.png","","direct","","-17"
"","image-slider-response","308","888071","0.0-12.0-0.24","oqpth3331g","many_one","0","indirect_first","0","CK05EN27","1","22","1","1","3","1","3446.0849999450147","","","","","pos","CS","CS","4","category4/CS3.png","targets/19.png","","direct","","87"
"","image-slider-response","309","896624","0.0-12.0-0.25","oqpth3331g","many_one","0","indirect_first","0","CK05EN27","1","22","1","1","3","1","8550.709999864921","","","","","neg","GS","GSold","3","category3/CS1.png","targets/12.png","","direct","","-40"
"","image-slider-response","310","900776","0.0-12.0-0.26","oqpth3331g","many_one","0","indirect_first","0","CK05EN27","1","22","1","1","3","1","4150.214999914169","","","","","neg","GS","GSnew","2","category2/GS1.png","targets/28.png","","direct","","72"
"","image-slider-response","311","908280","0.0-12.0-0.27","oqpth3331g","many_one","0","indirect_first","0","CK05EN27","1","22","1","1","3","1","7501.785000087693","","","","","pos","GS","GSnew","1","category1/GS1.png","targets/15.png","","direct","","61"
"","image-slider-response","312","910831","0.0-12.0-0.28","oqpth3331g","many_one","0","indirect_first","0","CK05EN27","1","22","1","1","3","1","2550.1850000582635","","","","","neg","GS","GSnew","3","category3/GS1.png","targets/31.png","","direct","","92"
"","image-slider-response","313","914552","0.0-12.0-0.29","oqpth3331g","many_one","0","indirect_first","0","CK05EN27","1","22","1","1","3","1","3718.535000225529","","","","","pos","CS","CS","1","category1/CS7.png","targets/48.png","","direct","","74"
"","image-slider-response","314","918711","0.0-12.0-0.30","oqpth3331g","many_one","0","indirect_first","0","CK05EN27","1","22","1","1","3","1","4158.51500001736","","","","","pos","CS","CS","4","category4/CS7.png","targets/10.png","","direct","","24"
"","image-slider-response","315","921280","0.0-12.0-0.31","oqpth3331g","many_one","0","indirect_first","0","CK05EN27","1","22","1","1","3","1","2566.0749999806285","","","","","pos","GS","GSold","4","category4/CS6.png","targets/6.png","","direct","","23"
"","image-slider-response","316","925456","0.0-12.0-0.32","oqpth3331g","many_one","0","indirect_first","0","CK05EN27","1","22","1","1","3","1","4174.809999996796","","","","","pos","CS","CS","1","category1/CS5.png","targets/42.png","","direct","","93"
"","image-slider-response","317","930632","0.0-12.0-0.33","oqpth3331g","many_one","0","indirect_first","0","CK05EN27","1","22","1","1","3","1","5174.264999805018","","","","","neg","GS","GSnew","3","category3/GS2.png","targets/23.png","","direct","","-43"
"","image-slider-response","318","934352","0.0-12.0-0.34","oqpth3331g","many_one","0","indirect_first","0","CK05EN27","1","22","1","1","3","1","3718.1549998931587","","","","","neg","GS","GSnew","2","category2/GS2.png","targets/29.png","","direct","","16"
"","image-slider-response","319","938208","0.0-12.0-0.35","oqpth3331g","many_one","0","indirect_first","0","CK05EN27","1","22","1","1","3","1","3854.0199999697506","","","","","pos","CS","CS","1","category1/CS3.png","targets/43.png","","direct","","12"
"","image-slider-response","320","941192","0.0-12.0-0.36","oqpth3331g","many_one","0","indirect_first","0","CK05EN27","1","22","1","1","3","1","2982.2400000412017","","","","","neg","GS","GSold","2","category2/CS1.png","targets/5.png","","direct","","-65"
"","image-slider-response","321","949984","0.0-12.0-0.37","oqpth3331g","many_one","0","indirect_first","0","CK05EN27","1","22","1","1","3","1","8790.350000141189","","","","","pos","GS","abstract","1","category1/ma.png","targets/1.png","","direct","","-13"
"","image-slider-response","322","954128","0.0-12.0-0.38","oqpth3331g","many_one","0","indirect_first","0","CK05EN27","1","22","1","1","3","1","4142.089999979362","","","","","neg","GS","GSnew","3","category3/GS3.png","targets/26.png","","direct","","-84"
"","image-slider-response","323","957240","0.0-12.0-0.39","oqpth3331g","many_one","0","indirect_first","0","CK05EN27","1","22","1","1","3","1","3110.5299999471754","","","","","neg","CS","CS","3","category3/CS10.png","targets/13.png","","direct","","64"
"","image-slider-response","324","960112","0.0-12.0-0.40","oqpth3331g","many_one","0","indirect_first","0","CK05EN27","1","22","1","1","3","1","2870.5749998334795","","","","","pos","GS","GSold","1","category1/CS10.png","targets/47.png","","direct","","40"
"","image-slider-response","325","962432","0.0-12.0-0.41","oqpth3331g","many_one","0","indirect_first","0","CK05EN27","1","22","1","1","3","1","2318.1600000243634","","","","","pos","GS","GSnew","1","category1/GS2.png","targets/17.png","","direct","","50"
"","image-slider-response","326","964504","0.0-12.0-0.42","oqpth3331g","many_one","0","indirect_first","0","CK05EN27","1","22","1","1","3","1","2070.2649999875575","","","","","pos","GS","GSold","1","category1/CS6.png","targets/38.png","","direct","","41"
"","image-slider-response","327","971184","0.0-12.0-0.43","oqpth3331g","many_one","0","indirect_first","0","CK05EN27","1","22","1","1","3","1","6678.920000093058","","","","","pos","CS","CS","1","category1/CS8.png","targets/18.png","","direct","","18"
"","image-slider-response","328","974440","0.0-12.0-0.44","oqpth3331g","many_one","0","indirect_first","0","CK05EN27","1","22","1","1","3","1","3254.380000056699","","","","","neg","GS","abstract","3","category3/wang.png","targets/3.png","","direct","","-89"
"","image-slider-response","329","978616","0.0-12.0-0.45","oqpth3331g","many_one","0","indirect_first","0","CK05EN27","1","22","1","1","3","1","4174.210000084713","","","","","neg","CS","CS","3","category3/CS3.png","targets/14.png","","direct","","-94"
"","image-slider-response","330","985024","0.0-12.0-0.46","oqpth3331g","many_one","0","indirect_first","0","CK05EN27","1","22","1","1","3","1","6406.299999915063","","","","","neg","CS","CS","2","category2/CS2.png","targets/35.png","","direct","","-76"
"","image-slider-response","331","987488","0.0-12.0-0.47","oqpth3331g","many_one","0","indirect_first","0","CK05EN27","1","22","1","1","3","1","2462.1300001163036","","","","","neg","CS","CS","2","category2/CS3.png","targets/24.png","","direct","","-86"
"","survey-html-form","332","1026688","0.0-13.0","oqpth3331g","many_one","0","indirect_first","0","CK05EN27","1","22","1","1","3","1","39199.19499987736","","{}","","","","","","","","","","","",""
"","image-slider-response","333","1034432","0.0-14.0-0.0","oqpth3331g","many_one","0","indirect_first","0","CK05EN27","1","22","1","1","3","1","6731.695000082254","","","","","neg","All","all","3","category3/wang_all.png","","","all","","-73"
"","image-slider-response","334","1037464","0.0-14.0-0.1","oqpth3331g","many_one","0","indirect_first","0","CK05EN27","1","22","1","1","3","1","3030.209999997169","","","","","neg","All","all","2","category2/men_all.png","","","all","","-76"
"","image-slider-response","335","1041296","0.0-14.0-0.2","oqpth3331g","many_one","0","indirect_first","0","CK05EN27","1","22","1","1","3","1","3830.789999803528","","","","","pos","All","all","1","category1/ma_all.png","","","all","","30"
"","image-slider-response","336","1044048","0.0-14.0-0.3","oqpth3331g","many_one","0","indirect_first","0","CK05EN27","1","22","1","1","3","1","2750.3299999516457","","","","","pos","All","all","4","category4/lin_all.png","","","all","","78"
"","survey-text","337","1238304","0.0-15.0","oqpth3331g","many_one","0","indirect_first","0","CK05EN27","1","22","1","1","3","1","194035.98499996588","","{""Q0"":""Die kurzen Pausen in der Wahrnehmungsphase haben geholfen sich besser zu konzentrieren.\nManche Zeichen assoziiert man direkt mit dem entsprechenden Bild aus der Wahrnehmungsphase, andere überhaupt nicht. ""}","","","","","","","","","","","",""
