"success","trial_type","trial_index","time_elapsed","internal_node_id","subject","condition","condition_code","measure","measure_code","codeword","gender","age","education","chinese","fach","handedness","comment","hinschauen","ablenkung","gewissenhaft","rt","url","responses","stimulus","key_press","val","type","type_specific","category","cs_selected","target","indirect","task","nr_pres","response"
"true","fullscreen","0","5572","0.0-0.0","z4qlfzhz4b","many_one","0","indirect_first","0","st05en12","0","20","1","1","3","1","","0","1","0","","","","","","","","","","","","","","",""
"","external-html","1","187718","0.0-1.0","z4qlfzhz4b","many_one","0","indirect_first","0","st05en12","0","20","1","1","3","1","","0","1","0","182102","text/information.html","","","","","","","","","","","","",""
"","external-html","2","198875","0.0-2.0","z4qlfzhz4b","many_one","0","indirect_first","0","st05en12","0","20","1","1","3","1","","0","1","0","11048.99999999997","text/consent.html","","","","","","","","","","","","",""
"","survey-html-form","3","233787","0.0-3.0","z4qlfzhz4b","many_one","0","indirect_first","0","st05en12","0","20","1","1","3","1","","0","1","0","34911","","{""codeword_enter"":""st05en12""}","","","","","","","","","","","",""
"","survey-html-form","4","251811","0.0-4.0","z4qlfzhz4b","many_one","0","indirect_first","0","st05en12","0","20","1","1","3","1","","0","1","0","18021.99999999994","","{""age"":""20"",""education"":""1"",""subject"":""3"",""gender"":""0"",""handedness"":""1"",""chinese"":""1""}","","","","","","","","","","","",""
"","survey-html-form","5","259682","0.0-5.0","z4qlfzhz4b","many_one","0","indirect_first","0","st05en12","0","20","1","1","3","1","","0","1","0","7868","","{}","","","","","","","","","","","",""
"","html-keyboard-response","6","263688","0.0-6.0-0.0-0.0","z4qlfzhz4b","many_one","0","indirect_first","0","st05en12","0","20","1","1","3","1","","0","1","0","null","","","<div class = 'row'><div class = 'column'><img src = 'category2/CS6.png' width = '70%;'></div><div class = 'column'><img src = 'usneg/9635.2.bmp' width = '100%;'></div></div>","null","neg","CS","CS","2","category2/CS6.png","","","","",""
"","html-keyboard-response","7","266194","0.0-6.0-0.0-0.1","z4qlfzhz4b","many_one","0","indirect_first","0","st05en12","0","20","1","1","3","1","","0","1","0","null","","","<div class = 'row'><div class = 'column'><img src = 'category3/CS5.png' width = '70%;'></div><div class = 'column'><img src = 'uspos/2900.2.bmp' width = '100%;'></div></div>","null","pos","CS","CS","3","category3/CS5.png","","","","",""
"","html-keyboard-response","8","268701","0.0-6.0-0.0-0.2","z4qlfzhz4b","many_one","0","indirect_first","0","st05en12","0","20","1","1","3","1","","0","1","0","null","","","<div class = 'row'><div class = 'column'><img src = 'category1/CS4.png' width = '70%;'></div><div class = 'column'><img src = 'uspos/2160.bmp' width = '100%;'></div></div>","null","pos","CS","CS","1","category1/CS4.png","","","","",""
"","html-keyboard-response","9","271207","0.0-6.0-0.0-0.3","z4qlfzhz4b","many_one","0","indirect_first","0","st05en12","0","20","1","1","3","1","","0","1","0","null","","","<div class = 'row'><div class = 'column'><img src = 'category3/CS4.png' width = '70%;'></div><div class = 'column'><img src = 'uspos/1460.bmp' width = '100%;'></div></div>","null","pos","CS","CS","3","category3/CS4.png","","","","",""
"","html-keyboard-response","10","273712","0.0-6.0-0.0-0.4","z4qlfzhz4b","many_one","0","indirect_first","0","st05en12","0","20","1","1","3","1","","0","1","0","null","","","<div class = 'row'><div class = 'column'><img src = 'category3/CS8.png' width = '70%;'></div><div class = 'column'><img src = 'uspos/8540.bmp' width = '100%;'></div></div>","null","pos","CS","CS","3","category3/CS8.png","","","","",""
"","html-keyboard-response","11","276216","0.0-6.0-0.0-0.5","z4qlfzhz4b","many_one","0","indirect_first","0","st05en12","0","20","1","1","3","1","","0","1","0","null","","","<div class = 'row'><div class = 'column'><img src = 'usneg/2900.bmp' width = '100%;'></div><div class = 'column'><img src = 'category4/CS1.png' width = '70%;'></div></div>","null","neg","CS","CS","4","category4/CS1.png","","","","",""
"","html-keyboard-response","12","278723","0.0-6.0-0.0-0.6","z4qlfzhz4b","many_one","0","indirect_first","0","st05en12","0","20","1","1","3","1","","0","1","0","null","","","<div class = 'row'><div class = 'column'><img src = 'uspos/8461.bmp' width = '100%;'></div><div class = 'column'><img src = 'category1/CS7.png' width = '70%;'></div></div>","null","pos","CS","CS","1","category1/CS7.png","","","","",""
"","html-keyboard-response","13","281231","0.0-6.0-0.0-0.7","z4qlfzhz4b","many_one","0","indirect_first","0","st05en12","0","20","1","1","3","1","","0","1","0","null","","","<div class = 'row'><div class = 'column'><img src = 'usneg/9560.bmp' width = '100%;'></div><div class = 'column'><img src = 'category2/CS7.png' width = '70%;'></div></div>","null","neg","CS","CS","2","category2/CS7.png","","","","",""
"","html-keyboard-response","14","283734","0.0-6.0-0.0-0.8","z4qlfzhz4b","many_one","0","indirect_first","0","st05en12","0","20","1","1","3","1","","0","1","0","null","","","<div class = 'row'><div class = 'column'><img src = 'category1/CS5.png' width = '70%;'></div><div class = 'column'><img src = 'uspos/8190.bmp' width = '100%;'></div></div>","null","pos","CS","CS","1","category1/CS5.png","","","","",""
"","html-keyboard-response","15","286241","0.0-6.0-0.0-0.9","z4qlfzhz4b","many_one","0","indirect_first","0","st05en12","0","20","1","1","3","1","","0","1","0","null","","","<div class = 'row'><div class = 'column'><img src = 'category2/CS3.png' width = '70%;'></div><div class = 'column'><img src = 'usneg/9220.bmp' width = '100%;'></div></div>","null","neg","CS","CS","2","category2/CS3.png","","","","",""
"","html-keyboard-response","16","288747","0.0-6.0-0.0-0.10","z4qlfzhz4b","many_one","0","indirect_first","0","st05en12","0","20","1","1","3","1","","0","1","0","null","","","<div class = 'row'><div class = 'column'><img src = 'category4/CS10.png' width = '70%;'></div><div class = 'column'><img src = 'usneg/9000.bmp' width = '100%;'></div></div>","null","neg","CS","CS","4","category4/CS10.png","","","","",""
"","html-keyboard-response","17","291254","0.0-6.0-0.0-0.11","z4qlfzhz4b","many_one","0","indirect_first","0","st05en12","0","20","1","1","3","1","","0","1","0","null","","","<div class = 'row'><div class = 'column'><img src = 'usneg/6020.bmp' width = '100%;'></div><div class = 'column'><img src = 'category4/CS2.png' width = '70%;'></div></div>","null","neg","CS","CS","4","category4/CS2.png","","","","",""
"","html-keyboard-response","18","293760","0.0-6.0-0.0-0.12","z4qlfzhz4b","many_one","0","indirect_first","0","st05en12","0","20","1","1","3","1","","0","1","0","null","","","<div class = 'row'><div class = 'column'><img src = 'usneg/3300.bmp' width = '100%;'></div><div class = 'column'><img src = 'category4/CS8.png' width = '70%;'></div></div>","null","neg","CS","CS","4","category4/CS8.png","","","","",""
"","html-keyboard-response","19","296264","0.0-6.0-0.0-0.13","z4qlfzhz4b","many_one","0","indirect_first","0","st05en12","0","20","1","1","3","1","","0","1","0","null","","","<div class = 'row'><div class = 'column'><img src = 'category4/CS9.png' width = '70%;'></div><div class = 'column'><img src = 'usneg/9342.bmp' width = '100%;'></div></div>","null","neg","CS","CS","4","category4/CS9.png","","","","",""
"","html-keyboard-response","20","298769","0.0-6.0-0.0-0.14","z4qlfzhz4b","many_one","0","indirect_first","0","st05en12","0","20","1","1","3","1","","0","1","0","null","","","<div class = 'row'><div class = 'column'><img src = 'category3/CS7.png' width = '70%;'></div><div class = 'column'><img src = 'uspos/2057.bmp' width = '100%;'></div></div>","null","pos","CS","CS","3","category3/CS7.png","","","","",""
"","html-keyboard-response","21","301275","0.0-6.0-0.0-0.15","z4qlfzhz4b","many_one","0","indirect_first","0","st05en12","0","20","1","1","3","1","","0","1","0","null","","","<div class = 'row'><div class = 'column'><img src = 'category2/CS8.png' width = '70%;'></div><div class = 'column'><img src = 'usneg/2205.bmp' width = '100%;'></div></div>","null","neg","CS","CS","2","category2/CS8.png","","","","",""
"","html-keyboard-response","22","303781","0.0-6.0-0.0-0.16","z4qlfzhz4b","many_one","0","indirect_first","0","st05en12","0","20","1","1","3","1","","0","1","0","null","","","<div class = 'row'><div class = 'column'><img src = 'category2/CS5.png' width = '70%;'></div><div class = 'column'><img src = 'usneg/9520.bmp' width = '100%;'></div></div>","null","neg","CS","CS","2","category2/CS5.png","","","","",""
"","html-keyboard-response","23","306287","0.0-6.0-0.0-0.17","z4qlfzhz4b","many_one","0","indirect_first","0","st05en12","0","20","1","1","3","1","","0","1","0","null","","","<div class = 'row'><div class = 'column'><img src = 'category3/CS1.png' width = '70%;'></div><div class = 'column'><img src = 'uspos/2150.bmp' width = '100%;'></div></div>","null","pos","CS","CS","3","category3/CS1.png","","","","",""
"","html-keyboard-response","24","308791","0.0-6.0-0.0-0.18","z4qlfzhz4b","many_one","0","indirect_first","0","st05en12","0","20","1","1","3","1","","0","1","0","null","","","<div class = 'row'><div class = 'column'><img src = 'uspos/2341.bmp' width = '100%;'></div><div class = 'column'><img src = 'category1/CS8.png' width = '70%;'></div></div>","null","pos","CS","CS","1","category1/CS8.png","","","","",""
"","html-keyboard-response","25","311295","0.0-6.0-0.0-0.19","z4qlfzhz4b","many_one","0","indirect_first","0","st05en12","0","20","1","1","3","1","","0","1","0","null","","","<div class = 'row'><div class = 'column'><img src = 'category1/CS10.png' width = '70%;'></div><div class = 'column'><img src = 'uspos/2030.bmp' width = '100%;'></div></div>","null","pos","CS","CS","1","category1/CS10.png","","","","",""
"","survey-html-form","26","314026","0.0-6.0-1.0","z4qlfzhz4b","many_one","0","indirect_first","0","st05en12","0","20","1","1","3","1","","0","1","0","2228","","{}","","","","","","","","","","","",""
"","html-keyboard-response","27","318031","0.0-6.0-2.0-0.0","z4qlfzhz4b","many_one","0","indirect_first","0","st05en12","0","20","1","1","3","1","","0","1","0","null","","","<div class = 'row'><div class = 'column'><img src = 'usneg/9000.bmp' width = '100%;'></div><div class = 'column'><img src = 'category4/CS10.png' width = '70%;'></div></div>","null","neg","CS","CS","4","category4/CS10.png","","","","",""
"","html-keyboard-response","28","320537","0.0-6.0-2.0-0.1","z4qlfzhz4b","many_one","0","indirect_first","0","st05en12","0","20","1","1","3","1","","0","1","0","null","","","<div class = 'row'><div class = 'column'><img src = 'usneg/9560.bmp' width = '100%;'></div><div class = 'column'><img src = 'category2/CS7.png' width = '70%;'></div></div>","null","neg","CS","CS","2","category2/CS7.png","","","","",""
"","html-keyboard-response","29","323045","0.0-6.0-2.0-0.2","z4qlfzhz4b","many_one","0","indirect_first","0","st05en12","0","20","1","1","3","1","","0","1","0","null","","","<div class = 'row'><div class = 'column'><img src = 'uspos/2160.bmp' width = '100%;'></div><div class = 'column'><img src = 'category1/CS4.png' width = '70%;'></div></div>","null","pos","CS","CS","1","category1/CS4.png","","","","",""
"","html-keyboard-response","30","325554","0.0-6.0-2.0-0.3","z4qlfzhz4b","many_one","0","indirect_first","0","st05en12","0","20","1","1","3","1","","0","1","0","null","","","<div class = 'row'><div class = 'column'><img src = 'category3/CS1.png' width = '70%;'></div><div class = 'column'><img src = 'uspos/2150.bmp' width = '100%;'></div></div>","null","pos","CS","CS","3","category3/CS1.png","","","","",""
"","html-keyboard-response","31","328062","0.0-6.0-2.0-0.4","z4qlfzhz4b","many_one","0","indirect_first","0","st05en12","0","20","1","1","3","1","","0","1","0","null","","","<div class = 'row'><div class = 'column'><img src = 'category1/CS7.png' width = '70%;'></div><div class = 'column'><img src = 'uspos/8461.bmp' width = '100%;'></div></div>","null","pos","CS","CS","1","category1/CS7.png","","","","",""
"","html-keyboard-response","32","330569","0.0-6.0-2.0-0.5","z4qlfzhz4b","many_one","0","indirect_first","0","st05en12","0","20","1","1","3","1","","0","1","0","null","","","<div class = 'row'><div class = 'column'><img src = 'category3/CS4.png' width = '70%;'></div><div class = 'column'><img src = 'uspos/1460.bmp' width = '100%;'></div></div>","null","pos","CS","CS","3","category3/CS4.png","","","","",""
"","html-keyboard-response","33","333077","0.0-6.0-2.0-0.6","z4qlfzhz4b","many_one","0","indirect_first","0","st05en12","0","20","1","1","3","1","","0","1","0","null","","","<div class = 'row'><div class = 'column'><img src = 'usneg/2900.bmp' width = '100%;'></div><div class = 'column'><img src = 'category4/CS1.png' width = '70%;'></div></div>","null","neg","CS","CS","4","category4/CS1.png","","","","",""
"","html-keyboard-response","34","335584","0.0-6.0-2.0-0.7","z4qlfzhz4b","many_one","0","indirect_first","0","st05en12","0","20","1","1","3","1","","0","1","0","null","","","<div class = 'row'><div class = 'column'><img src = 'category4/CS9.png' width = '70%;'></div><div class = 'column'><img src = 'usneg/9342.bmp' width = '100%;'></div></div>","null","neg","CS","CS","4","category4/CS9.png","","","","",""
"","html-keyboard-response","35","338092","0.0-6.0-2.0-0.8","z4qlfzhz4b","many_one","0","indirect_first","0","st05en12","0","20","1","1","3","1","","0","1","0","null","","","<div class = 'row'><div class = 'column'><img src = 'category3/CS5.png' width = '70%;'></div><div class = 'column'><img src = 'uspos/2900.2.bmp' width = '100%;'></div></div>","null","pos","CS","CS","3","category3/CS5.png","","","","",""
"","html-keyboard-response","36","340601","0.0-6.0-2.0-0.9","z4qlfzhz4b","many_one","0","indirect_first","0","st05en12","0","20","1","1","3","1","","0","1","0","null","","","<div class = 'row'><div class = 'column'><img src = 'category2/CS5.png' width = '70%;'></div><div class = 'column'><img src = 'usneg/9520.bmp' width = '100%;'></div></div>","null","neg","CS","CS","2","category2/CS5.png","","","","",""
"","html-keyboard-response","37","343103","0.0-6.0-2.0-0.10","z4qlfzhz4b","many_one","0","indirect_first","0","st05en12","0","20","1","1","3","1","","0","1","0","null","","","<div class = 'row'><div class = 'column'><img src = 'usneg/9220.bmp' width = '100%;'></div><div class = 'column'><img src = 'category2/CS3.png' width = '70%;'></div></div>","null","neg","CS","CS","2","category2/CS3.png","","","","",""
"","html-keyboard-response","38","345609","0.0-6.0-2.0-0.11","z4qlfzhz4b","many_one","0","indirect_first","0","st05en12","0","20","1","1","3","1","","0","1","0","null","","","<div class = 'row'><div class = 'column'><img src = 'category3/CS8.png' width = '70%;'></div><div class = 'column'><img src = 'uspos/8540.bmp' width = '100%;'></div></div>","null","pos","CS","CS","3","category3/CS8.png","","","","",""
"","html-keyboard-response","39","348114","0.0-6.0-2.0-0.12","z4qlfzhz4b","many_one","0","indirect_first","0","st05en12","0","20","1","1","3","1","","0","1","0","null","","","<div class = 'row'><div class = 'column'><img src = 'usneg/9635.2.bmp' width = '100%;'></div><div class = 'column'><img src = 'category2/CS6.png' width = '70%;'></div></div>","null","neg","CS","CS","2","category2/CS6.png","","","","",""
"","html-keyboard-response","40","350620","0.0-6.0-2.0-0.13","z4qlfzhz4b","many_one","0","indirect_first","0","st05en12","0","20","1","1","3","1","","0","1","0","null","","","<div class = 'row'><div class = 'column'><img src = 'uspos/2341.bmp' width = '100%;'></div><div class = 'column'><img src = 'category1/CS8.png' width = '70%;'></div></div>","null","pos","CS","CS","1","category1/CS8.png","","","","",""
"","html-keyboard-response","41","353126","0.0-6.0-2.0-0.14","z4qlfzhz4b","many_one","0","indirect_first","0","st05en12","0","20","1","1","3","1","","0","1","0","null","","","<div class = 'row'><div class = 'column'><img src = 'uspos/2057.bmp' width = '100%;'></div><div class = 'column'><img src = 'category3/CS7.png' width = '70%;'></div></div>","null","pos","CS","CS","3","category3/CS7.png","","","","",""
"","html-keyboard-response","42","355633","0.0-6.0-2.0-0.15","z4qlfzhz4b","many_one","0","indirect_first","0","st05en12","0","20","1","1","3","1","","0","1","0","null","","","<div class = 'row'><div class = 'column'><img src = 'uspos/2030.bmp' width = '100%;'></div><div class = 'column'><img src = 'category1/CS10.png' width = '70%;'></div></div>","null","pos","CS","CS","1","category1/CS10.png","","","","",""
"","html-keyboard-response","43","358139","0.0-6.0-2.0-0.16","z4qlfzhz4b","many_one","0","indirect_first","0","st05en12","0","20","1","1","3","1","","0","1","0","null","","","<div class = 'row'><div class = 'column'><img src = 'category2/CS8.png' width = '70%;'></div><div class = 'column'><img src = 'usneg/2205.bmp' width = '100%;'></div></div>","null","neg","CS","CS","2","category2/CS8.png","","","","",""
"","html-keyboard-response","44","360645","0.0-6.0-2.0-0.17","z4qlfzhz4b","many_one","0","indirect_first","0","st05en12","0","20","1","1","3","1","","0","1","0","null","","","<div class = 'row'><div class = 'column'><img src = 'usneg/3300.bmp' width = '100%;'></div><div class = 'column'><img src = 'category4/CS8.png' width = '70%;'></div></div>","null","neg","CS","CS","4","category4/CS8.png","","","","",""
"","html-keyboard-response","45","363151","0.0-6.0-2.0-0.18","z4qlfzhz4b","many_one","0","indirect_first","0","st05en12","0","20","1","1","3","1","","0","1","0","null","","","<div class = 'row'><div class = 'column'><img src = 'category1/CS5.png' width = '70%;'></div><div class = 'column'><img src = 'uspos/8190.bmp' width = '100%;'></div></div>","null","pos","CS","CS","1","category1/CS5.png","","","","",""
"","html-keyboard-response","46","365657","0.0-6.0-2.0-0.19","z4qlfzhz4b","many_one","0","indirect_first","0","st05en12","0","20","1","1","3","1","","0","1","0","null","","","<div class = 'row'><div class = 'column'><img src = 'usneg/6020.bmp' width = '100%;'></div><div class = 'column'><img src = 'category4/CS2.png' width = '70%;'></div></div>","null","neg","CS","CS","4","category4/CS2.png","","","","",""
"","survey-html-form","47","368165","0.0-6.0-3.0","z4qlfzhz4b","many_one","0","indirect_first","0","st05en12","0","20","1","1","3","1","","0","1","0","2006.0000000000582","","{}","","","","","","","","","","","",""
"","html-keyboard-response","48","372172","0.0-6.0-4.0-0.0","z4qlfzhz4b","many_one","0","indirect_first","0","st05en12","0","20","1","1","3","1","","0","1","0","null","","","<div class = 'row'><div class = 'column'><img src = 'category3/CS7.png' width = '70%;'></div><div class = 'column'><img src = 'uspos/2057.bmp' width = '100%;'></div></div>","null","pos","CS","CS","3","category3/CS7.png","","","","",""
"","html-keyboard-response","49","374681","0.0-6.0-4.0-0.1","z4qlfzhz4b","many_one","0","indirect_first","0","st05en12","0","20","1","1","3","1","","0","1","0","null","","","<div class = 'row'><div class = 'column'><img src = 'uspos/2150.bmp' width = '100%;'></div><div class = 'column'><img src = 'category3/CS1.png' width = '70%;'></div></div>","null","pos","CS","CS","3","category3/CS1.png","","","","",""
"","html-keyboard-response","50","377189","0.0-6.0-4.0-0.2","z4qlfzhz4b","many_one","0","indirect_first","0","st05en12","0","20","1","1","3","1","","0","1","0","null","","","<div class = 'row'><div class = 'column'><img src = 'usneg/9520.bmp' width = '100%;'></div><div class = 'column'><img src = 'category2/CS5.png' width = '70%;'></div></div>","null","neg","CS","CS","2","category2/CS5.png","","","","",""
"","html-keyboard-response","51","379694","0.0-6.0-4.0-0.3","z4qlfzhz4b","many_one","0","indirect_first","0","st05en12","0","20","1","1","3","1","","0","1","0","null","","","<div class = 'row'><div class = 'column'><img src = 'usneg/9560.bmp' width = '100%;'></div><div class = 'column'><img src = 'category2/CS7.png' width = '70%;'></div></div>","null","neg","CS","CS","2","category2/CS7.png","","","","",""
"","html-keyboard-response","52","382198","0.0-6.0-4.0-0.4","z4qlfzhz4b","many_one","0","indirect_first","0","st05en12","0","20","1","1","3","1","","0","1","0","null","","","<div class = 'row'><div class = 'column'><img src = 'category1/CS5.png' width = '70%;'></div><div class = 'column'><img src = 'uspos/8190.bmp' width = '100%;'></div></div>","null","pos","CS","CS","1","category1/CS5.png","","","","",""
"","html-keyboard-response","53","384704","0.0-6.0-4.0-0.5","z4qlfzhz4b","many_one","0","indirect_first","0","st05en12","0","20","1","1","3","1","","0","1","0","null","","","<div class = 'row'><div class = 'column'><img src = 'category4/CS9.png' width = '70%;'></div><div class = 'column'><img src = 'usneg/9342.bmp' width = '100%;'></div></div>","null","neg","CS","CS","4","category4/CS9.png","","","","",""
"","html-keyboard-response","54","387207","0.0-6.0-4.0-0.6","z4qlfzhz4b","many_one","0","indirect_first","0","st05en12","0","20","1","1","3","1","","0","1","0","null","","","<div class = 'row'><div class = 'column'><img src = 'category1/CS10.png' width = '70%;'></div><div class = 'column'><img src = 'uspos/2030.bmp' width = '100%;'></div></div>","null","pos","CS","CS","1","category1/CS10.png","","","","",""
"","html-keyboard-response","55","389712","0.0-6.0-4.0-0.7","z4qlfzhz4b","many_one","0","indirect_first","0","st05en12","0","20","1","1","3","1","","0","1","0","null","","","<div class = 'row'><div class = 'column'><img src = 'category2/CS6.png' width = '70%;'></div><div class = 'column'><img src = 'usneg/9635.2.bmp' width = '100%;'></div></div>","null","neg","CS","CS","2","category2/CS6.png","","","","",""
"","html-keyboard-response","56","392219","0.0-6.0-4.0-0.8","z4qlfzhz4b","many_one","0","indirect_first","0","st05en12","0","20","1","1","3","1","","0","1","0","null","","","<div class = 'row'><div class = 'column'><img src = 'usneg/2205.bmp' width = '100%;'></div><div class = 'column'><img src = 'category2/CS8.png' width = '70%;'></div></div>","null","neg","CS","CS","2","category2/CS8.png","","","","",""
"","html-keyboard-response","57","394724","0.0-6.0-4.0-0.9","z4qlfzhz4b","many_one","0","indirect_first","0","st05en12","0","20","1","1","3","1","","0","1","0","null","","","<div class = 'row'><div class = 'column'><img src = 'usneg/9000.bmp' width = '100%;'></div><div class = 'column'><img src = 'category4/CS10.png' width = '70%;'></div></div>","null","neg","CS","CS","4","category4/CS10.png","","","","",""
"","html-keyboard-response","58","397228","0.0-6.0-4.0-0.10","z4qlfzhz4b","many_one","0","indirect_first","0","st05en12","0","20","1","1","3","1","","0","1","0","null","","","<div class = 'row'><div class = 'column'><img src = 'category4/CS1.png' width = '70%;'></div><div class = 'column'><img src = 'usneg/2900.bmp' width = '100%;'></div></div>","null","neg","CS","CS","4","category4/CS1.png","","","","",""
"","html-keyboard-response","59","399744","0.0-6.0-4.0-0.11","z4qlfzhz4b","many_one","0","indirect_first","0","st05en12","0","20","1","1","3","1","","0","1","0","null","","","<div class = 'row'><div class = 'column'><img src = 'uspos/2341.bmp' width = '100%;'></div><div class = 'column'><img src = 'category1/CS8.png' width = '70%;'></div></div>","null","pos","CS","CS","1","category1/CS8.png","","","","",""
"","html-keyboard-response","60","402254","0.0-6.0-4.0-0.12","z4qlfzhz4b","many_one","0","indirect_first","0","st05en12","0","20","1","1","3","1","","0","1","0","null","","","<div class = 'row'><div class = 'column'><img src = 'category4/CS2.png' width = '70%;'></div><div class = 'column'><img src = 'usneg/6020.bmp' width = '100%;'></div></div>","null","neg","CS","CS","4","category4/CS2.png","","","","",""
"","html-keyboard-response","61","404758","0.0-6.0-4.0-0.13","z4qlfzhz4b","many_one","0","indirect_first","0","st05en12","0","20","1","1","3","1","","0","1","0","null","","","<div class = 'row'><div class = 'column'><img src = 'category3/CS8.png' width = '70%;'></div><div class = 'column'><img src = 'uspos/8540.bmp' width = '100%;'></div></div>","null","pos","CS","CS","3","category3/CS8.png","","","","",""
"","html-keyboard-response","62","407262","0.0-6.0-4.0-0.14","z4qlfzhz4b","many_one","0","indirect_first","0","st05en12","0","20","1","1","3","1","","0","1","0","null","","","<div class = 'row'><div class = 'column'><img src = 'uspos/8461.bmp' width = '100%;'></div><div class = 'column'><img src = 'category1/CS7.png' width = '70%;'></div></div>","null","pos","CS","CS","1","category1/CS7.png","","","","",""
"","html-keyboard-response","63","409765","0.0-6.0-4.0-0.15","z4qlfzhz4b","many_one","0","indirect_first","0","st05en12","0","20","1","1","3","1","","0","1","0","null","","","<div class = 'row'><div class = 'column'><img src = 'uspos/2160.bmp' width = '100%;'></div><div class = 'column'><img src = 'category1/CS4.png' width = '70%;'></div></div>","null","pos","CS","CS","1","category1/CS4.png","","","","",""
"","html-keyboard-response","64","412268","0.0-6.0-4.0-0.16","z4qlfzhz4b","many_one","0","indirect_first","0","st05en12","0","20","1","1","3","1","","0","1","0","null","","","<div class = 'row'><div class = 'column'><img src = 'usneg/9220.bmp' width = '100%;'></div><div class = 'column'><img src = 'category2/CS3.png' width = '70%;'></div></div>","null","neg","CS","CS","2","category2/CS3.png","","","","",""
"","html-keyboard-response","65","414771","0.0-6.0-4.0-0.17","z4qlfzhz4b","many_one","0","indirect_first","0","st05en12","0","20","1","1","3","1","","0","1","0","null","","","<div class = 'row'><div class = 'column'><img src = 'category3/CS4.png' width = '70%;'></div><div class = 'column'><img src = 'uspos/1460.bmp' width = '100%;'></div></div>","null","pos","CS","CS","3","category3/CS4.png","","","","",""
"","html-keyboard-response","66","417273","0.0-6.0-4.0-0.18","z4qlfzhz4b","many_one","0","indirect_first","0","st05en12","0","20","1","1","3","1","","0","1","0","null","","","<div class = 'row'><div class = 'column'><img src = 'category3/CS5.png' width = '70%;'></div><div class = 'column'><img src = 'uspos/2900.2.bmp' width = '100%;'></div></div>","null","pos","CS","CS","3","category3/CS5.png","","","","",""
"","html-keyboard-response","67","419780","0.0-6.0-4.0-0.19","z4qlfzhz4b","many_one","0","indirect_first","0","st05en12","0","20","1","1","3","1","","0","1","0","null","","","<div class = 'row'><div class = 'column'><img src = 'category4/CS8.png' width = '70%;'></div><div class = 'column'><img src = 'usneg/3300.bmp' width = '100%;'></div></div>","null","neg","CS","CS","4","category4/CS8.png","","","","",""
"","survey-html-form","68","424199","0.0-6.0-5.0","z4qlfzhz4b","many_one","0","indirect_first","0","st05en12","0","20","1","1","3","1","","0","1","0","3917","","{}","","","","","","","","","","","",""
"","html-keyboard-response","69","428206","0.0-6.0-6.0-0.0","z4qlfzhz4b","many_one","0","indirect_first","0","st05en12","0","20","1","1","3","1","","0","1","0","null","","","<div class = 'row'><div class = 'column'><img src = 'category3/CS8.png' width = '70%;'></div><div class = 'column'><img src = 'uspos/8540.bmp' width = '100%;'></div></div>","null","pos","CS","CS","3","category3/CS8.png","","","","",""
"","html-keyboard-response","70","430714","0.0-6.0-6.0-0.1","z4qlfzhz4b","many_one","0","indirect_first","0","st05en12","0","20","1","1","3","1","","0","1","0","null","","","<div class = 'row'><div class = 'column'><img src = 'usneg/9635.2.bmp' width = '100%;'></div><div class = 'column'><img src = 'category2/CS6.png' width = '70%;'></div></div>","null","neg","CS","CS","2","category2/CS6.png","","","","",""
"","html-keyboard-response","71","433220","0.0-6.0-6.0-0.2","z4qlfzhz4b","many_one","0","indirect_first","0","st05en12","0","20","1","1","3","1","","0","1","0","null","","","<div class = 'row'><div class = 'column'><img src = 'usneg/3300.bmp' width = '100%;'></div><div class = 'column'><img src = 'category4/CS8.png' width = '70%;'></div></div>","null","neg","CS","CS","4","category4/CS8.png","","","","",""
"","html-keyboard-response","72","435725","0.0-6.0-6.0-0.3","z4qlfzhz4b","many_one","0","indirect_first","0","st05en12","0","20","1","1","3","1","","0","1","0","null","","","<div class = 'row'><div class = 'column'><img src = 'uspos/2030.bmp' width = '100%;'></div><div class = 'column'><img src = 'category1/CS10.png' width = '70%;'></div></div>","null","pos","CS","CS","1","category1/CS10.png","","","","",""
"","html-keyboard-response","73","438231","0.0-6.0-6.0-0.4","z4qlfzhz4b","many_one","0","indirect_first","0","st05en12","0","20","1","1","3","1","","0","1","0","null","","","<div class = 'row'><div class = 'column'><img src = 'category3/CS7.png' width = '70%;'></div><div class = 'column'><img src = 'uspos/2057.bmp' width = '100%;'></div></div>","null","pos","CS","CS","3","category3/CS7.png","","","","",""
"","html-keyboard-response","74","440735","0.0-6.0-6.0-0.5","z4qlfzhz4b","many_one","0","indirect_first","0","st05en12","0","20","1","1","3","1","","0","1","0","null","","","<div class = 'row'><div class = 'column'><img src = 'uspos/2150.bmp' width = '100%;'></div><div class = 'column'><img src = 'category3/CS1.png' width = '70%;'></div></div>","null","pos","CS","CS","3","category3/CS1.png","","","","",""
"","html-keyboard-response","75","443241","0.0-6.0-6.0-0.6","z4qlfzhz4b","many_one","0","indirect_first","0","st05en12","0","20","1","1","3","1","","0","1","0","null","","","<div class = 'row'><div class = 'column'><img src = 'category1/CS8.png' width = '70%;'></div><div class = 'column'><img src = 'uspos/2341.bmp' width = '100%;'></div></div>","null","pos","CS","CS","1","category1/CS8.png","","","","",""
"","html-keyboard-response","76","445748","0.0-6.0-6.0-0.7","z4qlfzhz4b","many_one","0","indirect_first","0","st05en12","0","20","1","1","3","1","","0","1","0","null","","","<div class = 'row'><div class = 'column'><img src = 'usneg/9342.bmp' width = '100%;'></div><div class = 'column'><img src = 'category4/CS9.png' width = '70%;'></div></div>","null","neg","CS","CS","4","category4/CS9.png","","","","",""
"","html-keyboard-response","77","448251","0.0-6.0-6.0-0.8","z4qlfzhz4b","many_one","0","indirect_first","0","st05en12","0","20","1","1","3","1","","0","1","0","null","","","<div class = 'row'><div class = 'column'><img src = 'category1/CS7.png' width = '70%;'></div><div class = 'column'><img src = 'uspos/8461.bmp' width = '100%;'></div></div>","null","pos","CS","CS","1","category1/CS7.png","","","","",""
"","html-keyboard-response","78","450757","0.0-6.0-6.0-0.9","z4qlfzhz4b","many_one","0","indirect_first","0","st05en12","0","20","1","1","3","1","","0","1","0","null","","","<div class = 'row'><div class = 'column'><img src = 'uspos/1460.bmp' width = '100%;'></div><div class = 'column'><img src = 'category3/CS4.png' width = '70%;'></div></div>","null","pos","CS","CS","3","category3/CS4.png","","","","",""
"","html-keyboard-response","79","453263","0.0-6.0-6.0-0.10","z4qlfzhz4b","many_one","0","indirect_first","0","st05en12","0","20","1","1","3","1","","0","1","0","null","","","<div class = 'row'><div class = 'column'><img src = 'category2/CS5.png' width = '70%;'></div><div class = 'column'><img src = 'usneg/9520.bmp' width = '100%;'></div></div>","null","neg","CS","CS","2","category2/CS5.png","","","","",""
"","html-keyboard-response","80","455770","0.0-6.0-6.0-0.11","z4qlfzhz4b","many_one","0","indirect_first","0","st05en12","0","20","1","1","3","1","","0","1","0","null","","","<div class = 'row'><div class = 'column'><img src = 'uspos/2900.2.bmp' width = '100%;'></div><div class = 'column'><img src = 'category3/CS5.png' width = '70%;'></div></div>","null","pos","CS","CS","3","category3/CS5.png","","","","",""
"","html-keyboard-response","81","458278","0.0-6.0-6.0-0.12","z4qlfzhz4b","many_one","0","indirect_first","0","st05en12","0","20","1","1","3","1","","0","1","0","null","","","<div class = 'row'><div class = 'column'><img src = 'category2/CS7.png' width = '70%;'></div><div class = 'column'><img src = 'usneg/9560.bmp' width = '100%;'></div></div>","null","neg","CS","CS","2","category2/CS7.png","","","","",""
"","html-keyboard-response","82","460782","0.0-6.0-6.0-0.13","z4qlfzhz4b","many_one","0","indirect_first","0","st05en12","0","20","1","1","3","1","","0","1","0","null","","","<div class = 'row'><div class = 'column'><img src = 'usneg/2205.bmp' width = '100%;'></div><div class = 'column'><img src = 'category2/CS8.png' width = '70%;'></div></div>","null","neg","CS","CS","2","category2/CS8.png","","","","",""
"","html-keyboard-response","83","463288","0.0-6.0-6.0-0.14","z4qlfzhz4b","many_one","0","indirect_first","0","st05en12","0","20","1","1","3","1","","0","1","0","null","","","<div class = 'row'><div class = 'column'><img src = 'category1/CS5.png' width = '70%;'></div><div class = 'column'><img src = 'uspos/8190.bmp' width = '100%;'></div></div>","null","pos","CS","CS","1","category1/CS5.png","","","","",""
"","html-keyboard-response","84","465792","0.0-6.0-6.0-0.15","z4qlfzhz4b","many_one","0","indirect_first","0","st05en12","0","20","1","1","3","1","","0","1","0","null","","","<div class = 'row'><div class = 'column'><img src = 'category1/CS4.png' width = '70%;'></div><div class = 'column'><img src = 'uspos/2160.bmp' width = '100%;'></div></div>","null","pos","CS","CS","1","category1/CS4.png","","","","",""
"","html-keyboard-response","85","468298","0.0-6.0-6.0-0.16","z4qlfzhz4b","many_one","0","indirect_first","0","st05en12","0","20","1","1","3","1","","0","1","0","null","","","<div class = 'row'><div class = 'column'><img src = 'category4/CS1.png' width = '70%;'></div><div class = 'column'><img src = 'usneg/2900.bmp' width = '100%;'></div></div>","null","neg","CS","CS","4","category4/CS1.png","","","","",""
"","html-keyboard-response","86","470804","0.0-6.0-6.0-0.17","z4qlfzhz4b","many_one","0","indirect_first","0","st05en12","0","20","1","1","3","1","","0","1","0","null","","","<div class = 'row'><div class = 'column'><img src = 'category4/CS10.png' width = '70%;'></div><div class = 'column'><img src = 'usneg/9000.bmp' width = '100%;'></div></div>","null","neg","CS","CS","4","category4/CS10.png","","","","",""
"","html-keyboard-response","87","473309","0.0-6.0-6.0-0.18","z4qlfzhz4b","many_one","0","indirect_first","0","st05en12","0","20","1","1","3","1","","0","1","0","null","","","<div class = 'row'><div class = 'column'><img src = 'usneg/9220.bmp' width = '100%;'></div><div class = 'column'><img src = 'category2/CS3.png' width = '70%;'></div></div>","null","neg","CS","CS","2","category2/CS3.png","","","","",""
"","html-keyboard-response","88","475816","0.0-6.0-6.0-0.19","z4qlfzhz4b","many_one","0","indirect_first","0","st05en12","0","20","1","1","3","1","","0","1","0","null","","","<div class = 'row'><div class = 'column'><img src = 'category4/CS2.png' width = '70%;'></div><div class = 'column'><img src = 'usneg/6020.bmp' width = '100%;'></div></div>","null","neg","CS","CS","4","category4/CS2.png","","","","",""
"","html-keyboard-response","89","504916","0.0-7.0","z4qlfzhz4b","many_one","0","indirect_first","0","st05en12","0","20","1","1","3","1","","0","1","0","28595","","","<p>Sie sehen nun die chinesischen Zeichen nur ganz kurz. Danach sehen Sie die jeweilige Aussprache der Zeichen als Silbe auf dem Bildschrim. Ihre Aufgabe ist es, für jede Silbe anzugeben, ob diese etwas angenehmes, oder unangenehmes bedeuten könnte. Verlassen Sie sich hier vor allem auf Ihre Intuition.<br><br>Die Zeichen werden nur zur Orientierung dargestellt, beachten Sie sie deshalb nicht. Konzentrieren Sie sich vor allem auf die Silben. <br>Reagieren Sie mit folgenden zwei Tasten: <br><br><b>'D' </b> wenn die Silbe etwas <b>unangenehmes</b> bedeuten könnte. <br><b>'K'</b> wenn die Silbe etwas <b>angenehmes</b> bedeuten könnte. <br><br>Bitte legen Sie nun den Zeigefinger der linken Hand auf die Taste 'D' und den Zeigefinger der rechten Hand auf die Taste 'K'. <br>Reagieren Sie auf jede Silbe so schnell wie möglich. Uns interessiert Ihre spontane Reaktion. <br> <br> <br>Drücken Sie 'D' oder 'K', um die nächste Aufgabe zu starten. </p>","68","","","","","","","","","",""
"","html-keyboard-response","90","507920","0.0-8.0-0.0","z4qlfzhz4b","many_one","0","indirect_first","0","st05en12","0","20","1","1","3","1","","0","1","0","null","","","<div style=""font-size:60px;"">+</div>","null","","","","","","","","","",""
"","html-keyboard-response","91","508013","0.0-8.0-1.0","z4qlfzhz4b","many_one","0","indirect_first","0","st05en12","0","20","1","1","3","1","","0","1","0","null","","","<img src = 'category1/CS5.png' width = '100%;'>","null","","","","","","","","","",""
"","html-keyboard-response","92","508267","0.0-8.0-2.0","z4qlfzhz4b","many_one","0","indirect_first","0","st05en12","0","20","1","1","3","1","","0","1","0","null","","","<img src = 'targets/40.png' width = '100%;'>","null","","","","","","","","","",""
"","html-keyboard-response","93","512274","0.0-8.0-3.0","z4qlfzhz4b","many_one","0","indirect_first","0","st05en12","0","20","1","1","3","1","","0","1","0","4005","","","<img src = 'targets/mask.png' width = '100%;'>","75","pos","CS","CS","1","category1/CS5.png","targets/40.png","1","indirect","0",""
"","html-keyboard-response","94","513783","0.0-8.0-0.1","z4qlfzhz4b","many_one","0","indirect_first","0","st05en12","0","20","1","1","3","1","","0","1","0","null","","","<div style=""font-size:60px;"">+</div>","null","","","","","","","","","",""
"","html-keyboard-response","95","513876","0.0-8.0-1.1","z4qlfzhz4b","many_one","0","indirect_first","0","st05en12","0","20","1","1","3","1","","0","1","0","null","","","<img src = 'category3/CS7.png' width = '100%;'>","null","","","","","","","","","",""
"","html-keyboard-response","96","514129","0.0-8.0-2.1","z4qlfzhz4b","many_one","0","indirect_first","0","st05en12","0","20","1","1","3","1","","0","1","0","null","","","<img src = 'targets/31.png' width = '100%;'>","null","","","","","","","","","",""
"","html-keyboard-response","97","515525","0.0-8.0-3.1","z4qlfzhz4b","many_one","0","indirect_first","0","st05en12","0","20","1","1","3","1","","0","1","0","1394","","","<img src = 'targets/mask.png' width = '100%;'>","75","pos","CS","CS","3","category3/CS7.png","targets/31.png","1","indirect","1",""
"","html-keyboard-response","98","517033","0.0-8.0-0.2","z4qlfzhz4b","many_one","0","indirect_first","0","st05en12","0","20","1","1","3","1","","0","1","0","null","","","<div style=""font-size:60px;"">+</div>","null","","","","","","","","","",""
"","html-keyboard-response","99","517126","0.0-8.0-1.2","z4qlfzhz4b","many_one","0","indirect_first","0","st05en12","0","20","1","1","3","1","","0","1","0","null","","","<img src = 'category3/CS4.png' width = '100%;'>","null","","","","","","","","","",""
"","html-keyboard-response","100","517378","0.0-8.0-2.2","z4qlfzhz4b","many_one","0","indirect_first","0","st05en12","0","20","1","1","3","1","","0","1","0","null","","","<img src = 'targets/6.png' width = '100%;'>","null","","","","","","","","","",""
"","html-keyboard-response","101","518531","0.0-8.0-3.2","z4qlfzhz4b","many_one","0","indirect_first","0","st05en12","0","20","1","1","3","1","","0","1","0","1151.0000000001164","","","<img src = 'targets/mask.png' width = '100%;'>","75","pos","CS","CS","3","category3/CS4.png","targets/6.png","1","indirect","2",""
"","html-keyboard-response","102","520034","0.0-8.0-0.3","z4qlfzhz4b","many_one","0","indirect_first","0","st05en12","0","20","1","1","3","1","","0","1","0","null","","","<div style=""font-size:60px;"">+</div>","null","","","","","","","","","",""
"","html-keyboard-response","103","520126","0.0-8.0-1.3","z4qlfzhz4b","many_one","0","indirect_first","0","st05en12","0","20","1","1","3","1","","0","1","0","null","","","<img src = 'category1/CS7.png' width = '100%;'>","null","","","","","","","","","",""
"","html-keyboard-response","104","520380","0.0-8.0-2.3","z4qlfzhz4b","many_one","0","indirect_first","0","st05en12","0","20","1","1","3","1","","0","1","0","null","","","<img src = 'targets/41.png' width = '100%;'>","null","","","","","","","","","",""
"","html-keyboard-response","105","520480","0.0-8.0-3.3","z4qlfzhz4b","many_one","0","indirect_first","0","st05en12","0","20","1","1","3","1","","0","1","0","99","","","<img src = 'targets/mask.png' width = '100%;'>","68","pos","CS","CS","1","category1/CS7.png","targets/41.png","0","indirect","3",""
"","html-keyboard-response","106","521985","0.0-8.0-0.4","z4qlfzhz4b","many_one","0","indirect_first","0","st05en12","0","20","1","1","3","1","","0","1","0","null","","","<div style=""font-size:60px;"">+</div>","null","","","","","","","","","",""
"","html-keyboard-response","107","522078","0.0-8.0-1.4","z4qlfzhz4b","many_one","0","indirect_first","0","st05en12","0","20","1","1","3","1","","0","1","0","null","","","<img src = 'category2/CS8.png' width = '100%;'>","null","","","","","","","","","",""
"","html-keyboard-response","108","522332","0.0-8.0-2.4","z4qlfzhz4b","many_one","0","indirect_first","0","st05en12","0","20","1","1","3","1","","0","1","0","null","","","<img src = 'targets/43.png' width = '100%;'>","null","","","","","","","","","",""
"","html-keyboard-response","109","522900","0.0-8.0-3.4","z4qlfzhz4b","many_one","0","indirect_first","0","st05en12","0","20","1","1","3","1","","0","1","0","567.0000000001164","","","<img src = 'targets/mask.png' width = '100%;'>","75","neg","CS","CS","2","category2/CS8.png","targets/43.png","1","indirect","4",""
"","html-keyboard-response","110","524406","0.0-8.0-0.5","z4qlfzhz4b","many_one","0","indirect_first","0","st05en12","0","20","1","1","3","1","","0","1","0","null","","","<div style=""font-size:60px;"">+</div>","null","","","","","","","","","",""
"","html-keyboard-response","111","524499","0.0-8.0-1.5","z4qlfzhz4b","many_one","0","indirect_first","0","st05en12","0","20","1","1","3","1","","0","1","0","null","","","<img src = 'category4/CS1.png' width = '100%;'>","null","","","","","","","","","",""
"","html-keyboard-response","112","524755","0.0-8.0-2.5","z4qlfzhz4b","many_one","0","indirect_first","0","st05en12","0","20","1","1","3","1","","0","1","0","null","","","<img src = 'targets/17.png' width = '100%;'>","null","","","","","","","","","",""
"","html-keyboard-response","113","525571","0.0-8.0-3.5","z4qlfzhz4b","many_one","0","indirect_first","0","st05en12","0","20","1","1","3","1","","0","1","0","815","","","<img src = 'targets/mask.png' width = '100%;'>","68","neg","CS","CS","4","category4/CS1.png","targets/17.png","0","indirect","5",""
"","html-keyboard-response","114","527077","0.0-8.0-0.6","z4qlfzhz4b","many_one","0","indirect_first","0","st05en12","0","20","1","1","3","1","","0","1","0","null","","","<div style=""font-size:60px;"">+</div>","null","","","","","","","","","",""
"","html-keyboard-response","115","527169","0.0-8.0-1.6","z4qlfzhz4b","many_one","0","indirect_first","0","st05en12","0","20","1","1","3","1","","0","1","0","null","","","<img src = 'category4/CS2.png' width = '100%;'>","null","","","","","","","","","",""
"","html-keyboard-response","116","527425","0.0-8.0-2.6","z4qlfzhz4b","many_one","0","indirect_first","0","st05en12","0","20","1","1","3","1","","0","1","0","null","","","<img src = 'targets/11.png' width = '100%;'>","null","","","","","","","","","",""
"","html-keyboard-response","117","528323","0.0-8.0-3.6","z4qlfzhz4b","many_one","0","indirect_first","0","st05en12","0","20","1","1","3","1","","0","1","0","897.0000000001164","","","<img src = 'targets/mask.png' width = '100%;'>","75","neg","CS","CS","4","category4/CS2.png","targets/11.png","1","indirect","6",""
"","html-keyboard-response","118","529827","0.0-8.0-0.7","z4qlfzhz4b","many_one","0","indirect_first","0","st05en12","0","20","1","1","3","1","","0","1","0","null","","","<div style=""font-size:60px;"">+</div>","null","","","","","","","","","",""
"","html-keyboard-response","119","529922","0.0-8.0-1.7","z4qlfzhz4b","many_one","0","indirect_first","0","st05en12","0","20","1","1","3","1","","0","1","0","null","","","<img src = 'category3/CS8.png' width = '100%;'>","null","","","","","","","","","",""
"","html-keyboard-response","120","530178","0.0-8.0-2.7","z4qlfzhz4b","many_one","0","indirect_first","0","st05en12","0","20","1","1","3","1","","0","1","0","null","","","<img src = 'targets/21.png' width = '100%;'>","null","","","","","","","","","",""
"","html-keyboard-response","121","530798","0.0-8.0-3.7","z4qlfzhz4b","many_one","0","indirect_first","0","st05en12","0","20","1","1","3","1","","0","1","0","618.9999999998836","","","<img src = 'targets/mask.png' width = '100%;'>","75","pos","CS","CS","3","category3/CS8.png","targets/21.png","1","indirect","7",""
"","html-keyboard-response","122","532305","0.0-8.0-0.8","z4qlfzhz4b","many_one","0","indirect_first","0","st05en12","0","20","1","1","3","1","","0","1","0","null","","","<div style=""font-size:60px;"">+</div>","null","","","","","","","","","",""
"","html-keyboard-response","123","532397","0.0-8.0-1.8","z4qlfzhz4b","many_one","0","indirect_first","0","st05en12","0","20","1","1","3","1","","0","1","0","null","","","<img src = 'category1/CS4.png' width = '100%;'>","null","","","","","","","","","",""
"","html-keyboard-response","124","532650","0.0-8.0-2.8","z4qlfzhz4b","many_one","0","indirect_first","0","st05en12","0","20","1","1","3","1","","0","1","0","null","","","<img src = 'targets/45.png' width = '100%;'>","null","","","","","","","","","",""
"","html-keyboard-response","125","533137","0.0-8.0-3.8","z4qlfzhz4b","many_one","0","indirect_first","0","st05en12","0","20","1","1","3","1","","0","1","0","485","","","<img src = 'targets/mask.png' width = '100%;'>","68","pos","CS","CS","1","category1/CS4.png","targets/45.png","0","indirect","8",""
"","html-keyboard-response","126","534643","0.0-8.0-0.9","z4qlfzhz4b","many_one","0","indirect_first","0","st05en12","0","20","1","1","3","1","","0","1","0","null","","","<div style=""font-size:60px;"">+</div>","null","","","","","","","","","",""
"","html-keyboard-response","127","534736","0.0-8.0-1.9","z4qlfzhz4b","many_one","0","indirect_first","0","st05en12","0","20","1","1","3","1","","0","1","0","null","","","<img src = 'category4/CS9.png' width = '100%;'>","null","","","","","","","","","",""
"","html-keyboard-response","128","534992","0.0-8.0-2.9","z4qlfzhz4b","many_one","0","indirect_first","0","st05en12","0","20","1","1","3","1","","0","1","0","null","","","<img src = 'targets/34.png' width = '100%;'>","null","","","","","","","","","",""
"","html-keyboard-response","129","535462","0.0-8.0-3.9","z4qlfzhz4b","many_one","0","indirect_first","0","st05en12","0","20","1","1","3","1","","0","1","0","469","","","<img src = 'targets/mask.png' width = '100%;'>","68","neg","CS","CS","4","category4/CS9.png","targets/34.png","0","indirect","9",""
"","html-keyboard-response","130","536968","0.0-8.0-0.10","z4qlfzhz4b","many_one","0","indirect_first","0","st05en12","0","20","1","1","3","1","","0","1","0","null","","","<div style=""font-size:60px;"">+</div>","null","","","","","","","","","",""
"","html-keyboard-response","131","537061","0.0-8.0-1.10","z4qlfzhz4b","many_one","0","indirect_first","0","st05en12","0","20","1","1","3","1","","0","1","0","null","","","<img src = 'category1/CS8.png' width = '100%;'>","null","","","","","","","","","",""
"","html-keyboard-response","132","537316","0.0-8.0-2.10","z4qlfzhz4b","many_one","0","indirect_first","0","st05en12","0","20","1","1","3","1","","0","1","0","null","","","<img src = 'targets/20.png' width = '100%;'>","null","","","","","","","","","",""
"","html-keyboard-response","133","537643","0.0-8.0-3.10","z4qlfzhz4b","many_one","0","indirect_first","0","st05en12","0","20","1","1","3","1","","0","1","0","326","","","<img src = 'targets/mask.png' width = '100%;'>","75","pos","CS","CS","1","category1/CS8.png","targets/20.png","1","indirect","10",""
"","html-keyboard-response","134","539149","0.0-8.0-0.11","z4qlfzhz4b","many_one","0","indirect_first","0","st05en12","0","20","1","1","3","1","","0","1","0","null","","","<div style=""font-size:60px;"">+</div>","null","","","","","","","","","",""
"","html-keyboard-response","135","539242","0.0-8.0-1.11","z4qlfzhz4b","many_one","0","indirect_first","0","st05en12","0","20","1","1","3","1","","0","1","0","null","","","<img src = 'category2/CS7.png' width = '100%;'>","null","","","","","","","","","",""
"","html-keyboard-response","136","539500","0.0-8.0-2.11","z4qlfzhz4b","many_one","0","indirect_first","0","st05en12","0","20","1","1","3","1","","0","1","0","null","","","<img src = 'targets/48.png' width = '100%;'>","null","","","","","","","","","",""
"","html-keyboard-response","137","539951","0.0-8.0-3.11","z4qlfzhz4b","many_one","0","indirect_first","0","st05en12","0","20","1","1","3","1","","0","1","0","450","","","<img src = 'targets/mask.png' width = '100%;'>","68","neg","CS","CS","2","category2/CS7.png","targets/48.png","0","indirect","11",""
"","html-keyboard-response","138","541459","0.0-8.0-0.12","z4qlfzhz4b","many_one","0","indirect_first","0","st05en12","0","20","1","1","3","1","","0","1","0","null","","","<div style=""font-size:60px;"">+</div>","null","","","","","","","","","",""
"","html-keyboard-response","139","541554","0.0-8.0-1.12","z4qlfzhz4b","many_one","0","indirect_first","0","st05en12","0","20","1","1","3","1","","0","1","0","null","","","<img src = 'category3/CS5.png' width = '100%;'>","null","","","","","","","","","",""
"","html-keyboard-response","140","541808","0.0-8.0-2.12","z4qlfzhz4b","many_one","0","indirect_first","0","st05en12","0","20","1","1","3","1","","0","1","0","null","","","<img src = 'targets/37.png' width = '100%;'>","null","","","","","","","","","",""
"","html-keyboard-response","141","542163","0.0-8.0-3.12","z4qlfzhz4b","many_one","0","indirect_first","0","st05en12","0","20","1","1","3","1","","0","1","0","353","","","<img src = 'targets/mask.png' width = '100%;'>","75","pos","CS","CS","3","category3/CS5.png","targets/37.png","1","indirect","12",""
"","html-keyboard-response","142","543669","0.0-8.0-0.13","z4qlfzhz4b","many_one","0","indirect_first","0","st05en12","0","20","1","1","3","1","","0","1","0","null","","","<div style=""font-size:60px;"">+</div>","null","","","","","","","","","",""
"","html-keyboard-response","143","543762","0.0-8.0-1.13","z4qlfzhz4b","many_one","0","indirect_first","0","st05en12","0","20","1","1","3","1","","0","1","0","null","","","<img src = 'category3/CS2.png' width = '100%;'>","null","","","","","","","","","",""
"","html-keyboard-response","144","544016","0.0-8.0-2.13","z4qlfzhz4b","many_one","0","indirect_first","0","st05en12","0","20","1","1","3","1","","0","1","0","null","","","<img src = 'targets/35.png' width = '100%;'>","null","","","","","","","","","",""
"","html-keyboard-response","145","544581","0.0-8.0-3.13","z4qlfzhz4b","many_one","0","indirect_first","0","st05en12","0","20","1","1","3","1","","0","1","0","562","","","<img src = 'targets/mask.png' width = '100%;'>","75","pos","GS","GSold","3","category3/CS2.png","targets/35.png","1","indirect","13",""
"","html-keyboard-response","146","546089","0.0-8.0-0.14","z4qlfzhz4b","many_one","0","indirect_first","0","st05en12","0","20","1","1","3","1","","0","1","0","null","","","<div style=""font-size:60px;"">+</div>","null","","","","","","","","","",""
"","html-keyboard-response","147","546184","0.0-8.0-1.14","z4qlfzhz4b","many_one","0","indirect_first","0","st05en12","0","20","1","1","3","1","","0","1","0","null","","","<img src = 'category2/CS6.png' width = '100%;'>","null","","","","","","","","","",""
"","html-keyboard-response","148","546437","0.0-8.0-2.14","z4qlfzhz4b","many_one","0","indirect_first","0","st05en12","0","20","1","1","3","1","","0","1","0","null","","","<img src = 'targets/10.png' width = '100%;'>","null","","","","","","","","","",""
"","html-keyboard-response","149","546946","0.0-8.0-3.14","z4qlfzhz4b","many_one","0","indirect_first","0","st05en12","0","20","1","1","3","1","","0","1","0","507","","","<img src = 'targets/mask.png' width = '100%;'>","68","neg","CS","CS","2","category2/CS6.png","targets/10.png","0","indirect","14",""
"","html-keyboard-response","150","548450","0.0-8.0-0.15","z4qlfzhz4b","many_one","0","indirect_first","0","st05en12","0","20","1","1","3","1","","0","1","0","null","","","<div style=""font-size:60px;"">+</div>","null","","","","","","","","","",""
"","html-keyboard-response","151","548545","0.0-8.0-1.15","z4qlfzhz4b","many_one","0","indirect_first","0","st05en12","0","20","1","1","3","1","","0","1","0","null","","","<img src = 'category4/CS10.png' width = '100%;'>","null","","","","","","","","","",""
"","html-keyboard-response","152","548801","0.0-8.0-2.15","z4qlfzhz4b","many_one","0","indirect_first","0","st05en12","0","20","1","1","3","1","","0","1","0","null","","","<img src = 'targets/3.png' width = '100%;'>","null","","","","","","","","","",""
"","html-keyboard-response","153","549227","0.0-8.0-3.15","z4qlfzhz4b","many_one","0","indirect_first","0","st05en12","0","20","1","1","3","1","","0","1","0","424.0000000001164","","","<img src = 'targets/mask.png' width = '100%;'>","68","neg","CS","CS","4","category4/CS10.png","targets/3.png","0","indirect","15",""
"","html-keyboard-response","154","550734","0.0-8.0-0.16","z4qlfzhz4b","many_one","0","indirect_first","0","st05en12","0","20","1","1","3","1","","0","1","0","null","","","<div style=""font-size:60px;"">+</div>","null","","","","","","","","","",""
"","html-keyboard-response","155","550828","0.0-8.0-1.16","z4qlfzhz4b","many_one","0","indirect_first","0","st05en12","0","20","1","1","3","1","","0","1","0","null","","","<img src = 'category4/CS4.png' width = '100%;'>","null","","","","","","","","","",""
"","html-keyboard-response","156","551084","0.0-8.0-2.16","z4qlfzhz4b","many_one","0","indirect_first","0","st05en12","0","20","1","1","3","1","","0","1","0","null","","","<img src = 'targets/38.png' width = '100%;'>","null","","","","","","","","","",""
"","html-keyboard-response","157","551577","0.0-8.0-3.16","z4qlfzhz4b","many_one","0","indirect_first","0","st05en12","0","20","1","1","3","1","","0","1","0","491.0000000001164","","","<img src = 'targets/mask.png' width = '100%;'>","68","neg","GS","GSold","4","category4/CS4.png","targets/38.png","0","indirect","16",""
"","html-keyboard-response","158","553081","0.0-8.0-0.17","z4qlfzhz4b","many_one","0","indirect_first","0","st05en12","0","20","1","1","3","1","","0","1","0","null","","","<div style=""font-size:60px;"">+</div>","null","","","","","","","","","",""
"","html-keyboard-response","159","553173","0.0-8.0-1.17","z4qlfzhz4b","many_one","0","indirect_first","0","st05en12","0","20","1","1","3","1","","0","1","0","null","","","<img src = 'category1/CS10.png' width = '100%;'>","null","","","","","","","","","",""
"","html-keyboard-response","160","553429","0.0-8.0-2.17","z4qlfzhz4b","many_one","0","indirect_first","0","st05en12","0","20","1","1","3","1","","0","1","0","null","","","<img src = 'targets/24.png' width = '100%;'>","null","","","","","","","","","",""
"","html-keyboard-response","161","553711","0.0-8.0-3.17","z4qlfzhz4b","many_one","0","indirect_first","0","st05en12","0","20","1","1","3","1","","0","1","0","280","","","<img src = 'targets/mask.png' width = '100%;'>","75","pos","CS","CS","1","category1/CS10.png","targets/24.png","1","indirect","17",""
"","html-keyboard-response","162","555217","0.0-8.0-0.18","z4qlfzhz4b","many_one","0","indirect_first","0","st05en12","0","20","1","1","3","1","","0","1","0","null","","","<div style=""font-size:60px;"">+</div>","null","","","","","","","","","",""
"","html-keyboard-response","163","555309","0.0-8.0-1.18","z4qlfzhz4b","many_one","0","indirect_first","0","st05en12","0","20","1","1","3","1","","0","1","0","null","","","<img src = 'category2/CS3.png' width = '100%;'>","null","","","","","","","","","",""
"","html-keyboard-response","164","555566","0.0-8.0-2.18","z4qlfzhz4b","many_one","0","indirect_first","0","st05en12","0","20","1","1","3","1","","0","1","0","null","","","<img src = 'targets/42.png' width = '100%;'>","null","","","","","","","","","",""
"","html-keyboard-response","165","555895","0.0-8.0-3.18","z4qlfzhz4b","many_one","0","indirect_first","0","st05en12","0","20","1","1","3","1","","0","1","0","327","","","<img src = 'targets/mask.png' width = '100%;'>","75","neg","CS","CS","2","category2/CS3.png","targets/42.png","1","indirect","18",""
"","html-keyboard-response","166","557403","0.0-8.0-0.19","z4qlfzhz4b","many_one","0","indirect_first","0","st05en12","0","20","1","1","3","1","","0","1","0","null","","","<div style=""font-size:60px;"">+</div>","null","","","","","","","","","",""
"","html-keyboard-response","167","557496","0.0-8.0-1.19","z4qlfzhz4b","many_one","0","indirect_first","0","st05en12","0","20","1","1","3","1","","0","1","0","null","","","<img src = 'category4/CS5.png' width = '100%;'>","null","","","","","","","","","",""
"","html-keyboard-response","168","557750","0.0-8.0-2.19","z4qlfzhz4b","many_one","0","indirect_first","0","st05en12","0","20","1","1","3","1","","0","1","0","null","","","<img src = 'targets/26.png' width = '100%;'>","null","","","","","","","","","",""
"","html-keyboard-response","169","558125","0.0-8.0-3.19","z4qlfzhz4b","many_one","0","indirect_first","0","st05en12","0","20","1","1","3","1","","0","1","0","373.0000000001164","","","<img src = 'targets/mask.png' width = '100%;'>","75","neg","GS","GSold","4","category4/CS5.png","targets/26.png","1","indirect","19",""
"","html-keyboard-response","170","559630","0.0-8.0-0.20","z4qlfzhz4b","many_one","0","indirect_first","0","st05en12","0","20","1","1","3","1","","0","1","0","null","","","<div style=""font-size:60px;"">+</div>","null","","","","","","","","","",""
"","html-keyboard-response","171","559722","0.0-8.0-1.20","z4qlfzhz4b","many_one","0","indirect_first","0","st05en12","0","20","1","1","3","1","","0","1","0","null","","","<img src = 'category4/CS7.png' width = '100%;'>","null","","","","","","","","","",""
"","html-keyboard-response","172","559977","0.0-8.0-2.20","z4qlfzhz4b","many_one","0","indirect_first","0","st05en12","0","20","1","1","3","1","","0","1","0","null","","","<img src = 'targets/29.png' width = '100%;'>","null","","","","","","","","","",""
"","html-keyboard-response","173","560354","0.0-8.0-3.20","z4qlfzhz4b","many_one","0","indirect_first","0","st05en12","0","20","1","1","3","1","","0","1","0","375","","","<img src = 'targets/mask.png' width = '100%;'>","68","neg","GS","GSold","4","category4/CS7.png","targets/29.png","0","indirect","20",""
"","html-keyboard-response","174","561858","0.0-8.0-0.21","z4qlfzhz4b","many_one","0","indirect_first","0","st05en12","0","20","1","1","3","1","","0","1","0","null","","","<div style=""font-size:60px;"">+</div>","null","","","","","","","","","",""
"","html-keyboard-response","175","561952","0.0-8.0-1.21","z4qlfzhz4b","many_one","0","indirect_first","0","st05en12","0","20","1","1","3","1","","0","1","0","null","","","<img src = 'category2/CS5.png' width = '100%;'>","null","","","","","","","","","",""
"","html-keyboard-response","176","562210","0.0-8.0-2.21","z4qlfzhz4b","many_one","0","indirect_first","0","st05en12","0","20","1","1","3","1","","0","1","0","null","","","<img src = 'targets/47.png' width = '100%;'>","null","","","","","","","","","",""
"","html-keyboard-response","177","562500","0.0-8.0-3.21","z4qlfzhz4b","many_one","0","indirect_first","0","st05en12","0","20","1","1","3","1","","0","1","0","289","","","<img src = 'targets/mask.png' width = '100%;'>","75","neg","CS","CS","2","category2/CS5.png","targets/47.png","1","indirect","21",""
"","html-keyboard-response","178","564007","0.0-8.0-0.22","z4qlfzhz4b","many_one","0","indirect_first","0","st05en12","0","20","1","1","3","1","","0","1","0","null","","","<div style=""font-size:60px;"">+</div>","null","","","","","","","","","",""
"","html-keyboard-response","179","564099","0.0-8.0-1.22","z4qlfzhz4b","many_one","0","indirect_first","0","st05en12","0","20","1","1","3","1","","0","1","0","null","","","<img src = 'category3/CS1.png' width = '100%;'>","null","","","","","","","","","",""
"","html-keyboard-response","180","564353","0.0-8.0-2.22","z4qlfzhz4b","many_one","0","indirect_first","0","st05en12","0","20","1","1","3","1","","0","1","0","null","","","<img src = 'targets/25.png' width = '100%;'>","null","","","","","","","","","",""
"","html-keyboard-response","181","564751","0.0-8.0-3.22","z4qlfzhz4b","many_one","0","indirect_first","0","st05en12","0","20","1","1","3","1","","0","1","0","396","","","<img src = 'targets/mask.png' width = '100%;'>","75","pos","CS","CS","3","category3/CS1.png","targets/25.png","1","indirect","22",""
"","html-keyboard-response","182","566259","0.0-8.0-0.23","z4qlfzhz4b","many_one","0","indirect_first","0","st05en12","0","20","1","1","3","1","","0","1","0","null","","","<div style=""font-size:60px;"">+</div>","null","","","","","","","","","",""
"","html-keyboard-response","183","566351","0.0-8.0-1.23","z4qlfzhz4b","many_one","0","indirect_first","0","st05en12","0","20","1","1","3","1","","0","1","0","null","","","<img src = 'category4/CS8.png' width = '100%;'>","null","","","","","","","","","",""
"","html-keyboard-response","184","566605","0.0-8.0-2.23","z4qlfzhz4b","many_one","0","indirect_first","0","st05en12","0","20","1","1","3","1","","0","1","0","null","","","<img src = 'targets/33.png' width = '100%;'>","null","","","","","","","","","",""
"","html-keyboard-response","185","566808","0.0-8.0-3.23","z4qlfzhz4b","many_one","0","indirect_first","0","st05en12","0","20","1","1","3","1","","0","1","0","202","","","<img src = 'targets/mask.png' width = '100%;'>","68","neg","CS","CS","4","category4/CS8.png","targets/33.png","0","indirect","23",""
"","survey-html-form","186","570062","0.0-9.0","z4qlfzhz4b","many_one","0","indirect_first","0","st05en12","0","20","1","1","3","1","","0","1","0","2751","","{}","","","","","","","","","","","",""
"","html-keyboard-response","187","573067","0.0-10.0-0.0","z4qlfzhz4b","many_one","0","indirect_first","0","st05en12","0","20","1","1","3","1","","0","1","0","null","","","<div style=""font-size:60px;"">+</div>","null","","","","","","","","","",""
"","html-keyboard-response","188","573160","0.0-10.0-1.0","z4qlfzhz4b","many_one","0","indirect_first","0","st05en12","0","20","1","1","3","1","","0","1","0","null","","","<img src = 'category2/CS9.png' width = '100%;'>","null","","","","","","","","","",""
"","html-keyboard-response","189","573418","0.0-10.0-2.0","z4qlfzhz4b","many_one","0","indirect_first","0","st05en12","0","20","1","1","3","1","","0","1","0","null","","","<img src = 'targets/30.png' width = '100%;'>","null","","","","","","","","","",""
"","html-keyboard-response","190","573540","0.0-10.0-3.0","z4qlfzhz4b","many_one","0","indirect_first","0","st05en12","0","20","1","1","3","1","","0","1","0","120","","","<img src = 'targets/mask.png' width = '100%;'>","75","neg","GS","GSold","2","category2/CS9.png","targets/30.png","1","indirect","24",""
"","html-keyboard-response","191","575047","0.0-10.0-0.1","z4qlfzhz4b","many_one","0","indirect_first","0","st05en12","0","20","1","1","3","1","","0","1","0","null","","","<div style=""font-size:60px;"">+</div>","null","","","","","","","","","",""
"","html-keyboard-response","192","575139","0.0-10.0-1.1","z4qlfzhz4b","many_one","0","indirect_first","0","st05en12","0","20","1","1","3","1","","0","1","0","null","","","<img src = 'category1/ma.png' width = '100%;'>","null","","","","","","","","","",""
"","html-keyboard-response","193","575393","0.0-10.0-2.1","z4qlfzhz4b","many_one","0","indirect_first","0","st05en12","0","20","1","1","3","1","","0","1","0","null","","","<img src = 'targets/4.png' width = '100%;'>","null","","","","","","","","","",""
"","html-keyboard-response","194","576046","0.0-10.0-3.1","z4qlfzhz4b","many_one","0","indirect_first","0","st05en12","0","20","1","1","3","1","","0","1","0","651","","","<img src = 'targets/mask.png' width = '100%;'>","75","pos","GS","abstract","1","category1/ma.png","targets/4.png","1","indirect","25",""
"","html-keyboard-response","195","577550","0.0-10.0-0.2","z4qlfzhz4b","many_one","0","indirect_first","0","st05en12","0","20","1","1","3","1","","0","1","0","null","","","<div style=""font-size:60px;"">+</div>","null","","","","","","","","","",""
"","html-keyboard-response","196","577642","0.0-10.0-1.2","z4qlfzhz4b","many_one","0","indirect_first","0","st05en12","0","20","1","1","3","1","","0","1","0","null","","","<img src = 'category1/GS3.png' width = '100%;'>","null","","","","","","","","","",""
"","html-keyboard-response","197","577895","0.0-10.0-2.2","z4qlfzhz4b","many_one","0","indirect_first","0","st05en12","0","20","1","1","3","1","","0","1","0","null","","","<img src = 'targets/15.png' width = '100%;'>","null","","","","","","","","","",""
"","html-keyboard-response","198","578070","0.0-10.0-3.2","z4qlfzhz4b","many_one","0","indirect_first","0","st05en12","0","20","1","1","3","1","","0","1","0","174.00000000011642","","","<img src = 'targets/mask.png' width = '100%;'>","68","pos","GS","GSnew","1","category1/GS3.png","targets/15.png","0","indirect","26",""
"","html-keyboard-response","199","579577","0.0-10.0-0.3","z4qlfzhz4b","many_one","0","indirect_first","0","st05en12","0","20","1","1","3","1","","0","1","0","null","","","<div style=""font-size:60px;"">+</div>","null","","","","","","","","","",""
"","html-keyboard-response","200","579669","0.0-10.0-1.3","z4qlfzhz4b","many_one","0","indirect_first","0","st05en12","0","20","1","1","3","1","","0","1","0","null","","","<img src = 'category1/CS6.png' width = '100%;'>","null","","","","","","","","","",""
"","html-keyboard-response","201","579924","0.0-10.0-2.3","z4qlfzhz4b","many_one","0","indirect_first","0","st05en12","0","20","1","1","3","1","","0","1","0","null","","","<img src = 'targets/2.png' width = '100%;'>","null","","","","","","","","","",""
"","html-keyboard-response","202","582993","0.0-10.0-3.3","z4qlfzhz4b","many_one","0","indirect_first","0","st05en12","0","20","1","1","3","1","","0","1","0","3067","","","<img src = 'targets/mask.png' width = '100%;'>","68","pos","GS","GSold","1","category1/CS6.png","targets/2.png","0","indirect","27",""
"","html-keyboard-response","203","584499","0.0-10.0-0.4","z4qlfzhz4b","many_one","0","indirect_first","0","st05en12","0","20","1","1","3","1","","0","1","0","null","","","<div style=""font-size:60px;"">+</div>","null","","","","","","","","","",""
"","html-keyboard-response","204","584594","0.0-10.0-1.4","z4qlfzhz4b","many_one","0","indirect_first","0","st05en12","0","20","1","1","3","1","","0","1","0","null","","","<img src = 'category2/CS1.png' width = '100%;'>","null","","","","","","","","","",""
"","html-keyboard-response","205","584848","0.0-10.0-2.4","z4qlfzhz4b","many_one","0","indirect_first","0","st05en12","0","20","1","1","3","1","","0","1","0","null","","","<img src = 'targets/44.png' width = '100%;'>","null","","","","","","","","","",""
"","html-keyboard-response","206","585075","0.0-10.0-3.4","z4qlfzhz4b","many_one","0","indirect_first","0","st05en12","0","20","1","1","3","1","","0","1","0","226","","","<img src = 'targets/mask.png' width = '100%;'>","75","neg","GS","GSold","2","category2/CS1.png","targets/44.png","1","indirect","28",""
"","html-keyboard-response","207","586583","0.0-10.0-0.5","z4qlfzhz4b","many_one","0","indirect_first","0","st05en12","0","20","1","1","3","1","","0","1","0","null","","","<div style=""font-size:60px;"">+</div>","null","","","","","","","","","",""
"","html-keyboard-response","208","586676","0.0-10.0-1.5","z4qlfzhz4b","many_one","0","indirect_first","0","st05en12","0","20","1","1","3","1","","0","1","0","null","","","<img src = 'category1/GS1.png' width = '100%;'>","null","","","","","","","","","",""
"","html-keyboard-response","209","586929","0.0-10.0-2.5","z4qlfzhz4b","many_one","0","indirect_first","0","st05en12","0","20","1","1","3","1","","0","1","0","null","","","<img src = 'targets/13.png' width = '100%;'>","null","","","","","","","","","",""
"","html-keyboard-response","210","587295","0.0-10.0-3.5","z4qlfzhz4b","many_one","0","indirect_first","0","st05en12","0","20","1","1","3","1","","0","1","0","364","","","<img src = 'targets/mask.png' width = '100%;'>","68","pos","GS","GSnew","1","category1/GS1.png","targets/13.png","0","indirect","29",""
"","html-keyboard-response","211","588798","0.0-10.0-0.6","z4qlfzhz4b","many_one","0","indirect_first","0","st05en12","0","20","1","1","3","1","","0","1","0","null","","","<div style=""font-size:60px;"">+</div>","null","","","","","","","","","",""
"","html-keyboard-response","212","588891","0.0-10.0-1.6","z4qlfzhz4b","many_one","0","indirect_first","0","st05en12","0","20","1","1","3","1","","0","1","0","null","","","<img src = 'category4/lin.png' width = '100%;'>","null","","","","","","","","","",""
"","html-keyboard-response","213","589145","0.0-10.0-2.6","z4qlfzhz4b","many_one","0","indirect_first","0","st05en12","0","20","1","1","3","1","","0","1","0","null","","","<img src = 'targets/32.png' width = '100%;'>","null","","","","","","","","","",""
"","html-keyboard-response","214","589919","0.0-10.0-3.6","z4qlfzhz4b","many_one","0","indirect_first","0","st05en12","0","20","1","1","3","1","","0","1","0","773","","","<img src = 'targets/mask.png' width = '100%;'>","68","neg","GS","abstract","4","category4/lin.png","targets/32.png","0","indirect","30",""
"","html-keyboard-response","215","591422","0.0-10.0-0.7","z4qlfzhz4b","many_one","0","indirect_first","0","st05en12","0","20","1","1","3","1","","0","1","0","null","","","<div style=""font-size:60px;"">+</div>","null","","","","","","","","","",""
"","html-keyboard-response","216","591515","0.0-10.0-1.7","z4qlfzhz4b","many_one","0","indirect_first","0","st05en12","0","20","1","1","3","1","","0","1","0","null","","","<img src = 'category1/CS9.png' width = '100%;'>","null","","","","","","","","","",""
"","html-keyboard-response","217","591771","0.0-10.0-2.7","z4qlfzhz4b","many_one","0","indirect_first","0","st05en12","0","20","1","1","3","1","","0","1","0","null","","","<img src = 'targets/28.png' width = '100%;'>","null","","","","","","","","","",""
"","html-keyboard-response","218","592175","0.0-10.0-3.7","z4qlfzhz4b","many_one","0","indirect_first","0","st05en12","0","20","1","1","3","1","","0","1","0","402","","","<img src = 'targets/mask.png' width = '100%;'>","68","pos","GS","GSold","1","category1/CS9.png","targets/28.png","0","indirect","31",""
"","html-keyboard-response","219","593681","0.0-10.0-0.8","z4qlfzhz4b","many_one","0","indirect_first","0","st05en12","0","20","1","1","3","1","","0","1","0","null","","","<div style=""font-size:60px;"">+</div>","null","","","","","","","","","",""
"","html-keyboard-response","220","593773","0.0-10.0-1.8","z4qlfzhz4b","many_one","0","indirect_first","0","st05en12","0","20","1","1","3","1","","0","1","0","null","","","<img src = 'category3/GS3.png' width = '100%;'>","null","","","","","","","","","",""
"","html-keyboard-response","221","594030","0.0-10.0-2.8","z4qlfzhz4b","many_one","0","indirect_first","0","st05en12","0","20","1","1","3","1","","0","1","0","null","","","<img src = 'targets/8.png' width = '100%;'>","null","","","","","","","","","",""
"","html-keyboard-response","222","594214","0.0-10.0-3.8","z4qlfzhz4b","many_one","0","indirect_first","0","st05en12","0","20","1","1","3","1","","0","1","0","182","","","<img src = 'targets/mask.png' width = '100%;'>","75","pos","GS","GSnew","3","category3/GS3.png","targets/8.png","1","indirect","32",""
"","html-keyboard-response","223","595719","0.0-10.0-0.9","z4qlfzhz4b","many_one","0","indirect_first","0","st05en12","0","20","1","1","3","1","","0","1","0","null","","","<div style=""font-size:60px;"">+</div>","null","","","","","","","","","",""
"","html-keyboard-response","224","595811","0.0-10.0-1.9","z4qlfzhz4b","many_one","0","indirect_first","0","st05en12","0","20","1","1","3","1","","0","1","0","null","","","<img src = 'category4/GS1.png' width = '100%;'>","null","","","","","","","","","",""
"","html-keyboard-response","225","596067","0.0-10.0-2.9","z4qlfzhz4b","many_one","0","indirect_first","0","st05en12","0","20","1","1","3","1","","0","1","0","null","","","<img src = 'targets/22.png' width = '100%;'>","null","","","","","","","","","",""
"","html-keyboard-response","226","596239","0.0-10.0-3.9","z4qlfzhz4b","many_one","0","indirect_first","0","st05en12","0","20","1","1","3","1","","0","1","0","170","","","<img src = 'targets/mask.png' width = '100%;'>","75","neg","GS","GSnew","4","category4/GS1.png","targets/22.png","1","indirect","33",""
"","html-keyboard-response","227","597747","0.0-10.0-0.10","z4qlfzhz4b","many_one","0","indirect_first","0","st05en12","0","20","1","1","3","1","","0","1","0","null","","","<div style=""font-size:60px;"">+</div>","null","","","","","","","","","",""
"","html-keyboard-response","228","597839","0.0-10.0-1.10","z4qlfzhz4b","many_one","0","indirect_first","0","st05en12","0","20","1","1","3","1","","0","1","0","null","","","<img src = 'category1/GS2.png' width = '100%;'>","null","","","","","","","","","",""
"","html-keyboard-response","229","598092","0.0-10.0-2.10","z4qlfzhz4b","many_one","0","indirect_first","0","st05en12","0","20","1","1","3","1","","0","1","0","null","","","<img src = 'targets/7.png' width = '100%;'>","null","","","","","","","","","",""
"","html-keyboard-response","230","598204","0.0-10.0-3.10","z4qlfzhz4b","many_one","0","indirect_first","0","st05en12","0","20","1","1","3","1","","0","1","0","109","","","<img src = 'targets/mask.png' width = '100%;'>","75","pos","GS","GSnew","1","category1/GS2.png","targets/7.png","1","indirect","34",""
"","html-keyboard-response","231","599711","0.0-10.0-0.11","z4qlfzhz4b","many_one","0","indirect_first","0","st05en12","0","20","1","1","3","1","","0","1","0","null","","","<div style=""font-size:60px;"">+</div>","null","","","","","","","","","",""
"","html-keyboard-response","232","599804","0.0-10.0-1.11","z4qlfzhz4b","many_one","0","indirect_first","0","st05en12","0","20","1","1","3","1","","0","1","0","null","","","<img src = 'category3/CS9.png' width = '100%;'>","null","","","","","","","","","",""
"","html-keyboard-response","233","600057","0.0-10.0-2.11","z4qlfzhz4b","many_one","0","indirect_first","0","st05en12","0","20","1","1","3","1","","0","1","0","null","","","<img src = 'targets/39.png' width = '100%;'>","null","","","","","","","","","",""
"","html-keyboard-response","234","600261","0.0-10.0-3.11","z4qlfzhz4b","many_one","0","indirect_first","0","st05en12","0","20","1","1","3","1","","0","1","0","203","","","<img src = 'targets/mask.png' width = '100%;'>","75","pos","GS","GSold","3","category3/CS9.png","targets/39.png","1","indirect","35",""
"","html-keyboard-response","235","601765","0.0-10.0-0.12","z4qlfzhz4b","many_one","0","indirect_first","0","st05en12","0","20","1","1","3","1","","0","1","0","null","","","<div style=""font-size:60px;"">+</div>","null","","","","","","","","","",""
"","html-keyboard-response","236","601858","0.0-10.0-1.12","z4qlfzhz4b","many_one","0","indirect_first","0","st05en12","0","20","1","1","3","1","","0","1","0","null","","","<img src = 'category4/GS3.png' width = '100%;'>","null","","","","","","","","","",""
"","html-keyboard-response","237","602111","0.0-10.0-2.12","z4qlfzhz4b","many_one","0","indirect_first","0","st05en12","0","20","1","1","3","1","","0","1","0","null","","","<img src = 'targets/12.png' width = '100%;'>","null","","","","","","","","","",""
"","html-keyboard-response","238","602262","0.0-10.0-3.12","z4qlfzhz4b","many_one","0","indirect_first","0","st05en12","0","20","1","1","3","1","","0","1","0","149","","","<img src = 'targets/mask.png' width = '100%;'>","68","neg","GS","GSnew","4","category4/GS3.png","targets/12.png","0","indirect","36",""
"","html-keyboard-response","239","603768","0.0-10.0-0.13","z4qlfzhz4b","many_one","0","indirect_first","0","st05en12","0","20","1","1","3","1","","0","1","0","null","","","<div style=""font-size:60px;"">+</div>","null","","","","","","","","","",""
"","html-keyboard-response","240","603862","0.0-10.0-1.13","z4qlfzhz4b","many_one","0","indirect_first","0","st05en12","0","20","1","1","3","1","","0","1","0","null","","","<img src = 'category3/GS1.png' width = '100%;'>","null","","","","","","","","","",""
"","html-keyboard-response","241","604118","0.0-10.0-2.13","z4qlfzhz4b","many_one","0","indirect_first","0","st05en12","0","20","1","1","3","1","","0","1","0","null","","","<img src = 'targets/5.png' width = '100%;'>","null","","","","","","","","","",""
"","html-keyboard-response","242","604188","0.0-10.0-3.13","z4qlfzhz4b","many_one","0","indirect_first","0","st05en12","0","20","1","1","3","1","","0","1","0","68","","","<img src = 'targets/mask.png' width = '100%;'>","68","pos","GS","GSnew","3","category3/GS1.png","targets/5.png","0","indirect","37",""
"","html-keyboard-response","243","605692","0.0-10.0-0.14","z4qlfzhz4b","many_one","0","indirect_first","0","st05en12","0","20","1","1","3","1","","0","1","0","null","","","<div style=""font-size:60px;"">+</div>","null","","","","","","","","","",""
"","html-keyboard-response","244","605784","0.0-10.0-1.14","z4qlfzhz4b","many_one","0","indirect_first","0","st05en12","0","20","1","1","3","1","","0","1","0","null","","","<img src = 'category4/GS2.png' width = '100%;'>","null","","","","","","","","","",""
"","html-keyboard-response","245","606038","0.0-10.0-2.14","z4qlfzhz4b","many_one","0","indirect_first","0","st05en12","0","20","1","1","3","1","","0","1","0","null","","","<img src = 'targets/14.png' width = '100%;'>","null","","","","","","","","","",""
"","html-keyboard-response","246","606056","0.0-10.0-3.14","z4qlfzhz4b","many_one","0","indirect_first","0","st05en12","0","20","1","1","3","1","","0","1","0","17","","","<img src = 'targets/mask.png' width = '100%;'>","75","neg","GS","GSnew","4","category4/GS2.png","targets/14.png","1","indirect","38",""
"","html-keyboard-response","247","607562","0.0-10.0-0.15","z4qlfzhz4b","many_one","0","indirect_first","0","st05en12","0","20","1","1","3","1","","0","1","0","null","","","<div style=""font-size:60px;"">+</div>","null","","","","","","","","","",""
"","html-keyboard-response","248","607655","0.0-10.0-1.15","z4qlfzhz4b","many_one","0","indirect_first","0","st05en12","0","20","1","1","3","1","","0","1","0","null","","","<img src = 'category2/GS2.png' width = '100%;'>","null","","","","","","","","","",""
"","html-keyboard-response","249","607909","0.0-10.0-2.15","z4qlfzhz4b","many_one","0","indirect_first","0","st05en12","0","20","1","1","3","1","","0","1","0","null","","","<img src = 'targets/1.png' width = '100%;'>","null","","","","","","","","","",""
"","html-keyboard-response","250","610182","0.0-10.0-3.15","z4qlfzhz4b","many_one","0","indirect_first","0","st05en12","0","20","1","1","3","1","","0","1","0","2273","","","<img src = 'targets/mask.png' width = '100%;'>","75","neg","GS","GSnew","2","category2/GS2.png","targets/1.png","1","indirect","39",""
"","html-keyboard-response","251","611688","0.0-10.0-0.16","z4qlfzhz4b","many_one","0","indirect_first","0","st05en12","0","20","1","1","3","1","","0","1","0","null","","","<div style=""font-size:60px;"">+</div>","null","","","","","","","","","",""
"","html-keyboard-response","252","611781","0.0-10.0-1.16","z4qlfzhz4b","many_one","0","indirect_first","0","st05en12","0","20","1","1","3","1","","0","1","0","null","","","<img src = 'category3/GS2.png' width = '100%;'>","null","","","","","","","","","",""
"","html-keyboard-response","253","612036","0.0-10.0-2.16","z4qlfzhz4b","many_one","0","indirect_first","0","st05en12","0","20","1","1","3","1","","0","1","0","null","","","<img src = 'targets/18.png' width = '100%;'>","null","","","","","","","","","",""
"","html-keyboard-response","254","612042","0.0-10.0-3.16","z4qlfzhz4b","many_one","0","indirect_first","0","st05en12","0","20","1","1","3","1","","0","1","0","4","","","<img src = 'targets/mask.png' width = '100%;'>","75","pos","GS","GSnew","3","category3/GS2.png","targets/18.png","1","indirect","40",""
"","html-keyboard-response","255","613550","0.0-10.0-0.17","z4qlfzhz4b","many_one","0","indirect_first","0","st05en12","0","20","1","1","3","1","","0","1","0","null","","","<div style=""font-size:60px;"">+</div>","null","","","","","","","","","",""
"","html-keyboard-response","256","613642","0.0-10.0-1.17","z4qlfzhz4b","many_one","0","indirect_first","0","st05en12","0","20","1","1","3","1","","0","1","0","null","","","<img src = 'category2/CS4.png' width = '100%;'>","null","","","","","","","","","",""
"","html-keyboard-response","257","613896","0.0-10.0-2.17","z4qlfzhz4b","many_one","0","indirect_first","0","st05en12","0","20","1","1","3","1","","0","1","0","null","","","<img src = 'targets/27.png' width = '100%;'>","null","","","","","","","","","",""
"","html-keyboard-response","258","613948","0.0-10.0-3.17","z4qlfzhz4b","many_one","0","indirect_first","0","st05en12","0","20","1","1","3","1","","0","1","0","50","","","<img src = 'targets/mask.png' width = '100%;'>","68","neg","GS","GSold","2","category2/CS4.png","targets/27.png","0","indirect","41",""
"","html-keyboard-response","259","615455","0.0-10.0-0.18","z4qlfzhz4b","many_one","0","indirect_first","0","st05en12","0","20","1","1","3","1","","0","1","0","null","","","<div style=""font-size:60px;"">+</div>","null","","","","","","","","","",""
"","html-keyboard-response","260","615548","0.0-10.0-1.18","z4qlfzhz4b","many_one","0","indirect_first","0","st05en12","0","20","1","1","3","1","","0","1","0","null","","","<img src = 'category2/GS3.png' width = '100%;'>","null","","","","","","","","","",""
"","html-keyboard-response","261","615800","0.0-10.0-2.18","z4qlfzhz4b","many_one","0","indirect_first","0","st05en12","0","20","1","1","3","1","","0","1","0","null","","","<img src = 'targets/19.png' width = '100%;'>","null","","","","","","","","","",""
"","html-keyboard-response","262","615847","0.0-10.0-3.18","z4qlfzhz4b","many_one","0","indirect_first","0","st05en12","0","20","1","1","3","1","","0","1","0","46.000000000116415","","","<img src = 'targets/mask.png' width = '100%;'>","75","neg","GS","GSnew","2","category2/GS3.png","targets/19.png","1","indirect","42",""
"","html-keyboard-response","263","617355","0.0-10.0-0.19","z4qlfzhz4b","many_one","0","indirect_first","0","st05en12","0","20","1","1","3","1","","0","1","0","null","","","<div style=""font-size:60px;"">+</div>","null","","","","","","","","","",""
"","html-keyboard-response","264","617447","0.0-10.0-1.19","z4qlfzhz4b","many_one","0","indirect_first","0","st05en12","0","20","1","1","3","1","","0","1","0","null","","","<img src = 'category3/CS10.png' width = '100%;'>","null","","","","","","","","","",""
"","html-keyboard-response","265","617700","0.0-10.0-2.19","z4qlfzhz4b","many_one","0","indirect_first","0","st05en12","0","20","1","1","3","1","","0","1","0","null","","","<img src = 'targets/36.png' width = '100%;'>","null","","","","","","","","","",""
"","html-keyboard-response","266","617703","0.0-10.0-3.19","z4qlfzhz4b","many_one","0","indirect_first","0","st05en12","0","20","1","1","3","1","","0","1","0","1","","","<img src = 'targets/mask.png' width = '100%;'>","75","pos","GS","GSold","3","category3/CS10.png","targets/36.png","1","indirect","43",""
"","html-keyboard-response","267","619209","0.0-10.0-0.20","z4qlfzhz4b","many_one","0","indirect_first","0","st05en12","0","20","1","1","3","1","","0","1","0","null","","","<div style=""font-size:60px;"">+</div>","null","","","","","","","","","",""
"","html-keyboard-response","268","619300","0.0-10.0-1.20","z4qlfzhz4b","many_one","0","indirect_first","0","st05en12","0","20","1","1","3","1","","0","1","0","null","","","<img src = 'category2/men.png' width = '100%;'>","null","","","","","","","","","",""
"","html-keyboard-response","269","619556","0.0-10.0-2.20","z4qlfzhz4b","many_one","0","indirect_first","0","st05en12","0","20","1","1","3","1","","0","1","0","null","","","<img src = 'targets/23.png' width = '100%;'>","null","","","","","","","","","",""
"","html-keyboard-response","270","619694","0.0-10.0-3.20","z4qlfzhz4b","many_one","0","indirect_first","0","st05en12","0","20","1","1","3","1","","0","1","0","137","","","<img src = 'targets/mask.png' width = '100%;'>","75","neg","GS","abstract","2","category2/men.png","targets/23.png","1","indirect","44",""
"","html-keyboard-response","271","621199","0.0-10.0-0.21","z4qlfzhz4b","many_one","0","indirect_first","0","st05en12","0","20","1","1","3","1","","0","1","0","null","","","<div style=""font-size:60px;"">+</div>","null","","","","","","","","","",""
"","html-keyboard-response","272","621292","0.0-10.0-1.21","z4qlfzhz4b","many_one","0","indirect_first","0","st05en12","0","20","1","1","3","1","","0","1","0","null","","","<img src = 'category2/GS1.png' width = '100%;'>","null","","","","","","","","","",""
"","html-keyboard-response","273","621545","0.0-10.0-2.21","z4qlfzhz4b","many_one","0","indirect_first","0","st05en12","0","20","1","1","3","1","","0","1","0","null","","","<img src = 'targets/46.png' width = '100%;'>","null","","","","","","","","","",""
"","html-keyboard-response","274","621567","0.0-10.0-3.21","z4qlfzhz4b","many_one","0","indirect_first","0","st05en12","0","20","1","1","3","1","","0","1","0","20","","","<img src = 'targets/mask.png' width = '100%;'>","75","neg","GS","GSnew","2","category2/GS1.png","targets/46.png","1","indirect","45",""
"","html-keyboard-response","275","623075","0.0-10.0-0.22","z4qlfzhz4b","many_one","0","indirect_first","0","st05en12","0","20","1","1","3","1","","0","1","0","null","","","<div style=""font-size:60px;"">+</div>","null","","","","","","","","","",""
"","html-keyboard-response","276","623168","0.0-10.0-1.22","z4qlfzhz4b","many_one","0","indirect_first","0","st05en12","0","20","1","1","3","1","","0","1","0","null","","","<img src = 'category1/CS2.png' width = '100%;'>","null","","","","","","","","","",""
"","html-keyboard-response","277","623421","0.0-10.0-2.22","z4qlfzhz4b","many_one","0","indirect_first","0","st05en12","0","20","1","1","3","1","","0","1","0","null","","","<img src = 'targets/9.png' width = '100%;'>","null","","","","","","","","","",""
"","html-keyboard-response","278","623472","0.0-10.0-3.22","z4qlfzhz4b","many_one","0","indirect_first","0","st05en12","0","20","1","1","3","1","","0","1","0","50.000000000116415","","","<img src = 'targets/mask.png' width = '100%;'>","68","pos","GS","GSold","1","category1/CS2.png","targets/9.png","0","indirect","46",""
"","html-keyboard-response","279","624979","0.0-10.0-0.23","z4qlfzhz4b","many_one","0","indirect_first","0","st05en12","0","20","1","1","3","1","","0","1","0","null","","","<div style=""font-size:60px;"">+</div>","null","","","","","","","","","",""
"","html-keyboard-response","280","625072","0.0-10.0-1.23","z4qlfzhz4b","many_one","0","indirect_first","0","st05en12","0","20","1","1","3","1","","0","1","0","null","","","<img src = 'category3/wang.png' width = '100%;'>","null","","","","","","","","","",""
"","html-keyboard-response","281","625326","0.0-10.0-2.23","z4qlfzhz4b","many_one","0","indirect_first","0","st05en12","0","20","1","1","3","1","","0","1","0","null","","","<img src = 'targets/16.png' width = '100%;'>","null","","","","","","","","","",""
"","html-keyboard-response","282","625391","0.0-10.0-3.23","z4qlfzhz4b","many_one","0","indirect_first","0","st05en12","0","20","1","1","3","1","","0","1","0","64","","","<img src = 'targets/mask.png' width = '100%;'>","68","pos","GS","abstract","3","category3/wang.png","targets/16.png","0","indirect","47",""
"","survey-html-form","283","632608","0.0-11.0","z4qlfzhz4b","many_one","0","indirect_first","0","st05en12","0","20","1","1","3","1","","0","1","0","6714","","{}","","","","","","","","","","","",""
"","image-slider-response","284","639786","0.0-12.0-0.0","z4qlfzhz4b","many_one","0","indirect_first","0","st05en12","0","20","1","1","3","1","","0","1","0","5171","","","","","pos","GS","GSnew","1","category1/GS2.png","targets/7.png","","direct","","65"
"","image-slider-response","285","641753","0.0-12.0-0.1","z4qlfzhz4b","many_one","0","indirect_first","0","st05en12","0","20","1","1","3","1","","0","1","0","1964.9999999998836","","","","","pos","CS","CS","3","category3/CS7.png","targets/31.png","","direct","","39"
"","image-slider-response","286","644034","0.0-12.0-0.2","z4qlfzhz4b","many_one","0","indirect_first","0","st05en12","0","20","1","1","3","1","","0","1","0","2279","","","","","neg","GS","abstract","4","category4/lin.png","targets/32.png","","direct","","-52"
"","image-slider-response","287","647547","0.0-12.0-0.3","z4qlfzhz4b","many_one","0","indirect_first","0","st05en12","0","20","1","1","3","1","","0","1","0","3510","","","","","pos","CS","CS","1","category1/CS8.png","targets/20.png","","direct","","100"
"","image-slider-response","288","649211","0.0-12.0-0.4","z4qlfzhz4b","many_one","0","indirect_first","0","st05en12","0","20","1","1","3","1","","0","1","0","1661.0000000001164","","","","","pos","CS","CS","1","category1/CS5.png","targets/40.png","","direct","","73"
"","image-slider-response","289","651022","0.0-12.0-0.5","z4qlfzhz4b","many_one","0","indirect_first","0","st05en12","0","20","1","1","3","1","","0","1","0","1809","","","","","pos","GS","abstract","3","category3/wang.png","targets/16.png","","direct","","-20"
"","image-slider-response","290","653712","0.0-12.0-0.6","z4qlfzhz4b","many_one","0","indirect_first","0","st05en12","0","20","1","1","3","1","","0","1","0","2688","","","","","neg","CS","CS","4","category4/CS8.png","targets/33.png","","direct","","-58"
"","image-slider-response","291","655754","0.0-12.0-0.7","z4qlfzhz4b","many_one","0","indirect_first","0","st05en12","0","20","1","1","3","1","","0","1","0","2040","","","","","pos","CS","CS","1","category1/CS7.png","targets/41.png","","direct","","96"
"","image-slider-response","292","657834","0.0-12.0-0.8","z4qlfzhz4b","many_one","0","indirect_first","0","st05en12","0","20","1","1","3","1","","0","1","0","2078","","","","","pos","GS","GSnew","3","category3/GS1.png","targets/5.png","","direct","","66"
"","image-slider-response","293","660300","0.0-12.0-0.9","z4qlfzhz4b","many_one","0","indirect_first","0","st05en12","0","20","1","1","3","1","","0","1","0","2464","","","","","pos","GS","GSnew","3","category3/GS3.png","targets/8.png","","direct","","58"
"","image-slider-response","294","662242","0.0-12.0-0.10","z4qlfzhz4b","many_one","0","indirect_first","0","st05en12","0","20","1","1","3","1","","0","1","0","1940","","","","","neg","CS","CS","4","category4/CS1.png","targets/17.png","","direct","","-51"
"","image-slider-response","295","664058","0.0-12.0-0.11","z4qlfzhz4b","many_one","0","indirect_first","0","st05en12","0","20","1","1","3","1","","0","1","0","1813.9999999998836","","","","","neg","GS","GSold","2","category2/CS1.png","targets/44.png","","direct","","-64"
"","image-slider-response","296","666509","0.0-12.0-0.12","z4qlfzhz4b","many_one","0","indirect_first","0","st05en12","0","20","1","1","3","1","","0","1","0","2448.9999999998836","","","","","neg","CS","CS","2","category2/CS6.png","targets/10.png","","direct","","-61"
"","image-slider-response","297","669372","0.0-12.0-0.13","z4qlfzhz4b","many_one","0","indirect_first","0","st05en12","0","20","1","1","3","1","","0","1","0","2860","","","","","neg","GS","GSnew","4","category4/GS2.png","targets/14.png","","direct","","-85"
"","image-slider-response","298","671568","0.0-12.0-0.14","z4qlfzhz4b","many_one","0","indirect_first","0","st05en12","0","20","1","1","3","1","","0","1","0","2194","","","","","pos","CS","CS","1","category1/CS10.png","targets/24.png","","direct","","71"
"","image-slider-response","299","674961","0.0-12.0-0.15","z4qlfzhz4b","many_one","0","indirect_first","0","st05en12","0","20","1","1","3","1","","0","1","0","3390","","","","","neg","GS","abstract","2","category2/men.png","targets/23.png","","direct","","-37"
"","image-slider-response","300","677863","0.0-12.0-0.16","z4qlfzhz4b","many_one","0","indirect_first","0","st05en12","0","20","1","1","3","1","","0","1","0","2900.0000000001164","","","","","neg","CS","CS","2","category2/CS8.png","targets/43.png","","direct","","-68"
"","image-slider-response","301","679702","0.0-12.0-0.17","z4qlfzhz4b","many_one","0","indirect_first","0","st05en12","0","20","1","1","3","1","","0","1","0","1836","","","","","neg","GS","GSold","2","category2/CS9.png","targets/30.png","","direct","","-14"
"","image-slider-response","302","681508","0.0-12.0-0.18","z4qlfzhz4b","many_one","0","indirect_first","0","st05en12","0","20","1","1","3","1","","0","1","0","1803","","","","","pos","GS","GSnew","3","category3/GS2.png","targets/18.png","","direct","","82"
"","image-slider-response","303","683594","0.0-12.0-0.19","z4qlfzhz4b","many_one","0","indirect_first","0","st05en12","0","20","1","1","3","1","","0","1","0","2084.0000000001164","","","","","neg","GS","GSnew","2","category2/GS2.png","targets/1.png","","direct","","89"
"","image-slider-response","304","685445","0.0-12.0-0.20","z4qlfzhz4b","many_one","0","indirect_first","0","st05en12","0","20","1","1","3","1","","0","1","0","1848.0000000001164","","","","","neg","GS","GSold","4","category4/CS4.png","targets/38.png","","direct","","28"
"","image-slider-response","305","687022","0.0-12.0-0.21","z4qlfzhz4b","many_one","0","indirect_first","0","st05en12","0","20","1","1","3","1","","0","1","0","1574.0000000001164","","","","","pos","GS","GSold","1","category1/CS6.png","targets/2.png","","direct","","-19"
"","image-slider-response","306","688828","0.0-12.0-0.22","z4qlfzhz4b","many_one","0","indirect_first","0","st05en12","0","20","1","1","3","1","","0","1","0","1803","","","","","neg","CS","CS","2","category2/CS7.png","targets/48.png","","direct","","-72"
"","image-slider-response","307","691440","0.0-12.0-0.23","z4qlfzhz4b","many_one","0","indirect_first","0","st05en12","0","20","1","1","3","1","","0","1","0","2609.0000000001164","","","","","pos","CS","CS","3","category3/CS8.png","targets/21.png","","direct","","97"
"","image-slider-response","308","693766","0.0-12.0-0.24","z4qlfzhz4b","many_one","0","indirect_first","0","st05en12","0","20","1","1","3","1","","0","1","0","2324.0000000001164","","","","","neg","CS","CS","2","category2/CS3.png","targets/42.png","","direct","","-17"
"","image-slider-response","309","696434","0.0-12.0-0.25","z4qlfzhz4b","many_one","0","indirect_first","0","st05en12","0","20","1","1","3","1","","0","1","0","2665.0000000001164","","","","","pos","CS","CS","3","category3/CS1.png","targets/25.png","","direct","","68"
"","image-slider-response","310","698433","0.0-12.0-0.26","z4qlfzhz4b","many_one","0","indirect_first","0","st05en12","0","20","1","1","3","1","","0","1","0","1997","","","","","pos","GS","GSnew","1","category1/GS1.png","targets/13.png","","direct","","-47"
"","image-slider-response","311","700434","0.0-12.0-0.27","z4qlfzhz4b","many_one","0","indirect_first","0","st05en12","0","20","1","1","3","1","","0","1","0","1999.0000000001164","","","","","pos","GS","GSold","1","category1/CS9.png","targets/28.png","","direct","","-43"
"","image-slider-response","312","702393","0.0-12.0-0.28","z4qlfzhz4b","many_one","0","indirect_first","0","st05en12","0","20","1","1","3","1","","0","1","0","1956","","","","","pos","CS","CS","1","category1/CS4.png","targets/45.png","","direct","","70"
"","image-slider-response","313","704542","0.0-12.0-0.29","z4qlfzhz4b","many_one","0","indirect_first","0","st05en12","0","20","1","1","3","1","","0","1","0","2146.9999999998836","","","","","neg","GS","GSold","4","category4/CS7.png","targets/29.png","","direct","","73"
"","image-slider-response","314","709199","0.0-12.0-0.30","z4qlfzhz4b","many_one","0","indirect_first","0","st05en12","0","20","1","1","3","1","","0","1","0","4654","","","","","neg","GS","GSold","2","category2/CS4.png","targets/27.png","","direct","","52"
"","image-slider-response","315","710936","0.0-12.0-0.31","z4qlfzhz4b","many_one","0","indirect_first","0","st05en12","0","20","1","1","3","1","","0","1","0","1735","","","","","neg","CS","CS","4","category4/CS2.png","targets/11.png","","direct","","-40"
"","image-slider-response","316","714011","0.0-12.0-0.32","z4qlfzhz4b","many_one","0","indirect_first","0","st05en12","0","20","1","1","3","1","","0","1","0","3072.9999999998836","","","","","pos","GS","GSold","3","category3/CS10.png","targets/36.png","","direct","","-45"
"","image-slider-response","317","715793","0.0-12.0-0.33","z4qlfzhz4b","many_one","0","indirect_first","0","st05en12","0","20","1","1","3","1","","0","1","0","1779","","","","","neg","GS","GSold","4","category4/CS5.png","targets/26.png","","direct","","-52"
"","image-slider-response","318","717506","0.0-12.0-0.34","z4qlfzhz4b","many_one","0","indirect_first","0","st05en12","0","20","1","1","3","1","","0","1","0","1711","","","","","pos","GS","GSold","3","category3/CS9.png","targets/39.png","","direct","","70"
"","image-slider-response","319","719222","0.0-12.0-0.35","z4qlfzhz4b","many_one","0","indirect_first","0","st05en12","0","20","1","1","3","1","","0","1","0","1713","","","","","pos","CS","CS","3","category3/CS4.png","targets/6.png","","direct","","78"
"","image-slider-response","320","721209","0.0-12.0-0.36","z4qlfzhz4b","many_one","0","indirect_first","0","st05en12","0","20","1","1","3","1","","0","1","0","1985","","","","","neg","GS","GSnew","2","category2/GS1.png","targets/46.png","","direct","","64"
"","image-slider-response","321","723118","0.0-12.0-0.37","z4qlfzhz4b","many_one","0","indirect_first","0","st05en12","0","20","1","1","3","1","","0","1","0","1905.9999999998836","","","","","neg","GS","GSnew","2","category2/GS3.png","targets/19.png","","direct","","-51"
"","image-slider-response","322","725400","0.0-12.0-0.38","z4qlfzhz4b","many_one","0","indirect_first","0","st05en12","0","20","1","1","3","1","","0","1","0","2280","","","","","pos","GS","GSold","1","category1/CS2.png","targets/9.png","","direct","","85"
"","image-slider-response","323","727484","0.0-12.0-0.39","z4qlfzhz4b","many_one","0","indirect_first","0","st05en12","0","20","1","1","3","1","","0","1","0","2081","","","","","neg","CS","CS","2","category2/CS5.png","targets/47.png","","direct","","79"
"","image-slider-response","324","730061","0.0-12.0-0.40","z4qlfzhz4b","many_one","0","indirect_first","0","st05en12","0","20","1","1","3","1","","0","1","0","2575","","","","","pos","GS","GSnew","1","category1/GS3.png","targets/15.png","","direct","","67"
"","image-slider-response","325","732425","0.0-12.0-0.41","z4qlfzhz4b","many_one","0","indirect_first","0","st05en12","0","20","1","1","3","1","","0","1","0","2362","","","","","neg","CS","CS","4","category4/CS10.png","targets/3.png","","direct","","68"
"","image-slider-response","326","734164","0.0-12.0-0.42","z4qlfzhz4b","many_one","0","indirect_first","0","st05en12","0","20","1","1","3","1","","0","1","0","1735.0000000001164","","","","","neg","CS","CS","4","category4/CS9.png","targets/34.png","","direct","","72"
"","image-slider-response","327","735963","0.0-12.0-0.43","z4qlfzhz4b","many_one","0","indirect_first","0","st05en12","0","20","1","1","3","1","","0","1","0","1797","","","","","neg","GS","GSnew","4","category4/GS1.png","targets/22.png","","direct","","67"
"","image-slider-response","328","737712","0.0-12.0-0.44","z4qlfzhz4b","many_one","0","indirect_first","0","st05en12","0","20","1","1","3","1","","0","1","0","1748","","","","","pos","CS","CS","3","category3/CS5.png","targets/37.png","","direct","","-44"
