"success","trial_type","trial_index","time_elapsed","internal_node_id","subject","condition","condition_code","measure","measure_code","codeword","gender","age","education","chinese","fach","handedness","comment","hinschauen","ablenkung","gewissenhaft","rt","url","responses","stimulus","key_press","val","type","type_specific","category","cs_selected","response","target","task","indirect","nr_pres"
"true","fullscreen","0","4262","0.0-0.0","sg33rsrnhp","one_one","1","direct_first","1","ER05IN24","0","20","1","1","3","2","","0","1","0","","","","","","","","","","","","","","",""
"","external-html","1","79682","0.0-1.0","sg33rsrnhp","one_one","1","direct_first","1","ER05IN24","0","20","1","1","3","2","","0","1","0","75334.20000004116","text/information.html","","","","","","","","","","","","",""
"","external-html","2","96182","0.0-2.0","sg33rsrnhp","one_one","1","direct_first","1","ER05IN24","0","20","1","1","3","2","","0","1","0","16412.50500001479","text/consent.html","","","","","","","","","","","","",""
"","survey-html-form","3","188844","0.0-3.0","sg33rsrnhp","one_one","1","direct_first","1","ER05IN24","0","20","1","1","3","2","","0","1","0","92656.85499995016","","{""codeword_enter"":""ER05IN24""}","","","","","","","","","","","",""
"","survey-html-form","4","209098","0.0-4.0","sg33rsrnhp","one_one","1","direct_first","1","ER05IN24","0","20","1","1","3","2","","0","1","0","20249.880000017583","","{""age"":""20"",""education"":""1"",""subject"":""3"",""gender"":""0"",""handedness"":""2"",""chinese"":""1""}","","","","","","","","","","","",""
"","survey-html-form","5","223613","0.0-5.0","sg33rsrnhp","one_one","1","direct_first","1","ER05IN24","0","20","1","1","3","2","","0","1","0","14510.959999985062","","{}","","","","","","","","","","","",""
"","html-keyboard-response","6","227623","0.0-6.0-0.0-0.0","sg33rsrnhp","one_one","1","direct_first","1","ER05IN24","0","20","1","1","3","2","","0","1","0","null","","","<div class = 'row'><div class = 'column'><img src = 'category2/CS3.png' width = '70%;'></div><div class = 'column'><img src = 'usneg/7380.bmp' width = '100%;'></div></div>","null","neg","CS","CS","2","category2/CS3.png","","","","",""
"","html-keyboard-response","7","230129","0.0-6.0-0.0-0.1","sg33rsrnhp","one_one","1","direct_first","1","ER05IN24","0","20","1","1","3","2","","0","1","0","null","","","<div class = 'row'><div class = 'column'><img src = 'category3/CS10.png' width = '70%;'></div><div class = 'column'><img src = 'usneg/9290.bmp' width = '100%;'></div></div>","null","neg","CS","CS","3","category3/CS10.png","","","","",""
"","html-keyboard-response","8","232635","0.0-6.0-0.0-0.2","sg33rsrnhp","one_one","1","direct_first","1","ER05IN24","0","20","1","1","3","2","","0","1","0","null","","","<div class = 'row'><div class = 'column'><img src = 'uspos/1440.bmp' width = '100%;'></div><div class = 'column'><img src = 'category4/CS6.png' width = '70%;'></div></div>","null","pos","CS","CS","4","category4/CS6.png","","","","",""
"","html-keyboard-response","9","235141","0.0-6.0-0.0-0.3","sg33rsrnhp","one_one","1","direct_first","1","ER05IN24","0","20","1","1","3","2","","0","1","0","null","","","<div class = 'row'><div class = 'column'><img src = 'usneg/9290.bmp' width = '100%;'></div><div class = 'column'><img src = 'category3/CS10.png' width = '70%;'></div></div>","null","neg","CS","CS","3","category3/CS10.png","","","","",""
"","html-keyboard-response","10","237647","0.0-6.0-0.0-0.4","sg33rsrnhp","one_one","1","direct_first","1","ER05IN24","0","20","1","1","3","2","","0","1","0","null","","","<div class = 'row'><div class = 'column'><img src = 'category4/CS6.png' width = '70%;'></div><div class = 'column'><img src = 'uspos/1440.bmp' width = '100%;'></div></div>","null","pos","CS","CS","4","category4/CS6.png","","","","",""
"","html-keyboard-response","11","240152","0.0-6.0-0.0-0.5","sg33rsrnhp","one_one","1","direct_first","1","ER05IN24","0","20","1","1","3","2","","0","1","0","null","","","<div class = 'row'><div class = 'column'><img src = 'usneg/7380.bmp' width = '100%;'></div><div class = 'column'><img src = 'category2/CS3.png' width = '70%;'></div></div>","null","neg","CS","CS","2","category2/CS3.png","","","","",""
"","html-keyboard-response","12","242656","0.0-6.0-0.0-0.6","sg33rsrnhp","one_one","1","direct_first","1","ER05IN24","0","20","1","1","3","2","","0","1","0","null","","","<div class = 'row'><div class = 'column'><img src = 'category3/CS10.png' width = '70%;'></div><div class = 'column'><img src = 'usneg/9290.bmp' width = '100%;'></div></div>","null","neg","CS","CS","3","category3/CS10.png","","","","",""
"","html-keyboard-response","13","245162","0.0-6.0-0.0-0.7","sg33rsrnhp","one_one","1","direct_first","1","ER05IN24","0","20","1","1","3","2","","0","1","0","null","","","<div class = 'row'><div class = 'column'><img src = 'uspos/1440.bmp' width = '100%;'></div><div class = 'column'><img src = 'category4/CS6.png' width = '70%;'></div></div>","null","pos","CS","CS","4","category4/CS6.png","","","","",""
"","html-keyboard-response","14","247667","0.0-6.0-0.0-0.8","sg33rsrnhp","one_one","1","direct_first","1","ER05IN24","0","20","1","1","3","2","","0","1","0","null","","","<div class = 'row'><div class = 'column'><img src = 'usneg/7380.bmp' width = '100%;'></div><div class = 'column'><img src = 'category2/CS3.png' width = '70%;'></div></div>","null","neg","CS","CS","2","category2/CS3.png","","","","",""
"","html-keyboard-response","15","250173","0.0-6.0-0.0-0.9","sg33rsrnhp","one_one","1","direct_first","1","ER05IN24","0","20","1","1","3","2","","0","1","0","null","","","<div class = 'row'><div class = 'column'><img src = 'uspos/5470.bmp' width = '100%;'></div><div class = 'column'><img src = 'category1/CS7.png' width = '70%;'></div></div>","null","pos","CS","CS","1","category1/CS7.png","","","","",""
"","html-keyboard-response","16","252679","0.0-6.0-0.0-0.10","sg33rsrnhp","one_one","1","direct_first","1","ER05IN24","0","20","1","1","3","2","","0","1","0","null","","","<div class = 'row'><div class = 'column'><img src = 'category2/CS3.png' width = '70%;'></div><div class = 'column'><img src = 'usneg/7380.bmp' width = '100%;'></div></div>","null","neg","CS","CS","2","category2/CS3.png","","","","",""
"","html-keyboard-response","17","255183","0.0-6.0-0.0-0.11","sg33rsrnhp","one_one","1","direct_first","1","ER05IN24","0","20","1","1","3","2","","0","1","0","null","","","<div class = 'row'><div class = 'column'><img src = 'category4/CS6.png' width = '70%;'></div><div class = 'column'><img src = 'uspos/1440.bmp' width = '100%;'></div></div>","null","pos","CS","CS","4","category4/CS6.png","","","","",""
"","html-keyboard-response","18","257689","0.0-6.0-0.0-0.12","sg33rsrnhp","one_one","1","direct_first","1","ER05IN24","0","20","1","1","3","2","","0","1","0","null","","","<div class = 'row'><div class = 'column'><img src = 'category2/CS3.png' width = '70%;'></div><div class = 'column'><img src = 'usneg/7380.bmp' width = '100%;'></div></div>","null","neg","CS","CS","2","category2/CS3.png","","","","",""
"","html-keyboard-response","19","260194","0.0-6.0-0.0-0.13","sg33rsrnhp","one_one","1","direct_first","1","ER05IN24","0","20","1","1","3","2","","0","1","0","null","","","<div class = 'row'><div class = 'column'><img src = 'uspos/5470.bmp' width = '100%;'></div><div class = 'column'><img src = 'category1/CS7.png' width = '70%;'></div></div>","null","pos","CS","CS","1","category1/CS7.png","","","","",""
"","html-keyboard-response","20","262698","0.0-6.0-0.0-0.14","sg33rsrnhp","one_one","1","direct_first","1","ER05IN24","0","20","1","1","3","2","","0","1","0","null","","","<div class = 'row'><div class = 'column'><img src = 'usneg/9290.bmp' width = '100%;'></div><div class = 'column'><img src = 'category3/CS10.png' width = '70%;'></div></div>","null","neg","CS","CS","3","category3/CS10.png","","","","",""
"","html-keyboard-response","21","265202","0.0-6.0-0.0-0.15","sg33rsrnhp","one_one","1","direct_first","1","ER05IN24","0","20","1","1","3","2","","0","1","0","null","","","<div class = 'row'><div class = 'column'><img src = 'category1/CS7.png' width = '70%;'></div><div class = 'column'><img src = 'uspos/5470.bmp' width = '100%;'></div></div>","null","pos","CS","CS","1","category1/CS7.png","","","","",""
"","html-keyboard-response","22","267706","0.0-6.0-0.0-0.16","sg33rsrnhp","one_one","1","direct_first","1","ER05IN24","0","20","1","1","3","2","","0","1","0","null","","","<div class = 'row'><div class = 'column'><img src = 'category3/CS10.png' width = '70%;'></div><div class = 'column'><img src = 'usneg/9290.bmp' width = '100%;'></div></div>","null","neg","CS","CS","3","category3/CS10.png","","","","",""
"","html-keyboard-response","23","270212","0.0-6.0-0.0-0.17","sg33rsrnhp","one_one","1","direct_first","1","ER05IN24","0","20","1","1","3","2","","0","1","0","null","","","<div class = 'row'><div class = 'column'><img src = 'uspos/5470.bmp' width = '100%;'></div><div class = 'column'><img src = 'category1/CS7.png' width = '70%;'></div></div>","null","pos","CS","CS","1","category1/CS7.png","","","","",""
"","html-keyboard-response","24","272717","0.0-6.0-0.0-0.18","sg33rsrnhp","one_one","1","direct_first","1","ER05IN24","0","20","1","1","3","2","","0","1","0","null","","","<div class = 'row'><div class = 'column'><img src = 'category4/CS6.png' width = '70%;'></div><div class = 'column'><img src = 'uspos/1440.bmp' width = '100%;'></div></div>","null","pos","CS","CS","4","category4/CS6.png","","","","",""
"","html-keyboard-response","25","275222","0.0-6.0-0.0-0.19","sg33rsrnhp","one_one","1","direct_first","1","ER05IN24","0","20","1","1","3","2","","0","1","0","null","","","<div class = 'row'><div class = 'column'><img src = 'uspos/5470.bmp' width = '100%;'></div><div class = 'column'><img src = 'category1/CS7.png' width = '70%;'></div></div>","null","pos","CS","CS","1","category1/CS7.png","","","","",""
"","survey-html-form","26","278022","0.0-6.0-1.0","sg33rsrnhp","one_one","1","direct_first","1","ER05IN24","0","20","1","1","3","2","","0","1","0","2298.6650000093505","","{}","","","","","","","","","","","",""
"","html-keyboard-response","27","282031","0.0-6.0-2.0-0.0","sg33rsrnhp","one_one","1","direct_first","1","ER05IN24","0","20","1","1","3","2","","0","1","0","null","","","<div class = 'row'><div class = 'column'><img src = 'usneg/9290.bmp' width = '100%;'></div><div class = 'column'><img src = 'category3/CS10.png' width = '70%;'></div></div>","null","neg","CS","CS","3","category3/CS10.png","","","","",""
"","html-keyboard-response","28","284536","0.0-6.0-2.0-0.1","sg33rsrnhp","one_one","1","direct_first","1","ER05IN24","0","20","1","1","3","2","","0","1","0","null","","","<div class = 'row'><div class = 'column'><img src = 'category1/CS7.png' width = '70%;'></div><div class = 'column'><img src = 'uspos/5470.bmp' width = '100%;'></div></div>","null","pos","CS","CS","1","category1/CS7.png","","","","",""
"","html-keyboard-response","29","287041","0.0-6.0-2.0-0.2","sg33rsrnhp","one_one","1","direct_first","1","ER05IN24","0","20","1","1","3","2","","0","1","0","null","","","<div class = 'row'><div class = 'column'><img src = 'uspos/1440.bmp' width = '100%;'></div><div class = 'column'><img src = 'category4/CS6.png' width = '70%;'></div></div>","null","pos","CS","CS","4","category4/CS6.png","","","","",""
"","html-keyboard-response","30","289546","0.0-6.0-2.0-0.3","sg33rsrnhp","one_one","1","direct_first","1","ER05IN24","0","20","1","1","3","2","","0","1","0","null","","","<div class = 'row'><div class = 'column'><img src = 'usneg/7380.bmp' width = '100%;'></div><div class = 'column'><img src = 'category2/CS3.png' width = '70%;'></div></div>","null","neg","CS","CS","2","category2/CS3.png","","","","",""
"","html-keyboard-response","31","292051","0.0-6.0-2.0-0.4","sg33rsrnhp","one_one","1","direct_first","1","ER05IN24","0","20","1","1","3","2","","0","1","0","null","","","<div class = 'row'><div class = 'column'><img src = 'category4/CS6.png' width = '70%;'></div><div class = 'column'><img src = 'uspos/1440.bmp' width = '100%;'></div></div>","null","pos","CS","CS","4","category4/CS6.png","","","","",""
"","html-keyboard-response","32","294556","0.0-6.0-2.0-0.5","sg33rsrnhp","one_one","1","direct_first","1","ER05IN24","0","20","1","1","3","2","","0","1","0","null","","","<div class = 'row'><div class = 'column'><img src = 'category2/CS3.png' width = '70%;'></div><div class = 'column'><img src = 'usneg/7380.bmp' width = '100%;'></div></div>","null","neg","CS","CS","2","category2/CS3.png","","","","",""
"","html-keyboard-response","33","297063","0.0-6.0-2.0-0.6","sg33rsrnhp","one_one","1","direct_first","1","ER05IN24","0","20","1","1","3","2","","0","1","0","null","","","<div class = 'row'><div class = 'column'><img src = 'uspos/1440.bmp' width = '100%;'></div><div class = 'column'><img src = 'category4/CS6.png' width = '70%;'></div></div>","null","pos","CS","CS","4","category4/CS6.png","","","","",""
"","html-keyboard-response","34","299567","0.0-6.0-2.0-0.7","sg33rsrnhp","one_one","1","direct_first","1","ER05IN24","0","20","1","1","3","2","","0","1","0","null","","","<div class = 'row'><div class = 'column'><img src = 'category1/CS7.png' width = '70%;'></div><div class = 'column'><img src = 'uspos/5470.bmp' width = '100%;'></div></div>","null","pos","CS","CS","1","category1/CS7.png","","","","",""
"","html-keyboard-response","35","302073","0.0-6.0-2.0-0.8","sg33rsrnhp","one_one","1","direct_first","1","ER05IN24","0","20","1","1","3","2","","0","1","0","null","","","<div class = 'row'><div class = 'column'><img src = 'usneg/9290.bmp' width = '100%;'></div><div class = 'column'><img src = 'category3/CS10.png' width = '70%;'></div></div>","null","neg","CS","CS","3","category3/CS10.png","","","","",""
"","html-keyboard-response","36","304577","0.0-6.0-2.0-0.9","sg33rsrnhp","one_one","1","direct_first","1","ER05IN24","0","20","1","1","3","2","","0","1","0","null","","","<div class = 'row'><div class = 'column'><img src = 'category1/CS7.png' width = '70%;'></div><div class = 'column'><img src = 'uspos/5470.bmp' width = '100%;'></div></div>","null","pos","CS","CS","1","category1/CS7.png","","","","",""
"","html-keyboard-response","37","307082","0.0-6.0-2.0-0.10","sg33rsrnhp","one_one","1","direct_first","1","ER05IN24","0","20","1","1","3","2","","0","1","0","null","","","<div class = 'row'><div class = 'column'><img src = 'uspos/1440.bmp' width = '100%;'></div><div class = 'column'><img src = 'category4/CS6.png' width = '70%;'></div></div>","null","pos","CS","CS","4","category4/CS6.png","","","","",""
"","html-keyboard-response","38","309586","0.0-6.0-2.0-0.11","sg33rsrnhp","one_one","1","direct_first","1","ER05IN24","0","20","1","1","3","2","","0","1","0","null","","","<div class = 'row'><div class = 'column'><img src = 'category1/CS7.png' width = '70%;'></div><div class = 'column'><img src = 'uspos/5470.bmp' width = '100%;'></div></div>","null","pos","CS","CS","1","category1/CS7.png","","","","",""
"","html-keyboard-response","39","312091","0.0-6.0-2.0-0.12","sg33rsrnhp","one_one","1","direct_first","1","ER05IN24","0","20","1","1","3","2","","0","1","0","null","","","<div class = 'row'><div class = 'column'><img src = 'usneg/9290.bmp' width = '100%;'></div><div class = 'column'><img src = 'category3/CS10.png' width = '70%;'></div></div>","null","neg","CS","CS","3","category3/CS10.png","","","","",""
"","html-keyboard-response","40","314595","0.0-6.0-2.0-0.13","sg33rsrnhp","one_one","1","direct_first","1","ER05IN24","0","20","1","1","3","2","","0","1","0","null","","","<div class = 'row'><div class = 'column'><img src = 'category1/CS7.png' width = '70%;'></div><div class = 'column'><img src = 'uspos/5470.bmp' width = '100%;'></div></div>","null","pos","CS","CS","1","category1/CS7.png","","","","",""
"","html-keyboard-response","41","317100","0.0-6.0-2.0-0.14","sg33rsrnhp","one_one","1","direct_first","1","ER05IN24","0","20","1","1","3","2","","0","1","0","null","","","<div class = 'row'><div class = 'column'><img src = 'usneg/7380.bmp' width = '100%;'></div><div class = 'column'><img src = 'category2/CS3.png' width = '70%;'></div></div>","null","neg","CS","CS","2","category2/CS3.png","","","","",""
"","html-keyboard-response","42","319605","0.0-6.0-2.0-0.15","sg33rsrnhp","one_one","1","direct_first","1","ER05IN24","0","20","1","1","3","2","","0","1","0","null","","","<div class = 'row'><div class = 'column'><img src = 'usneg/9290.bmp' width = '100%;'></div><div class = 'column'><img src = 'category3/CS10.png' width = '70%;'></div></div>","null","neg","CS","CS","3","category3/CS10.png","","","","",""
"","html-keyboard-response","43","322110","0.0-6.0-2.0-0.16","sg33rsrnhp","one_one","1","direct_first","1","ER05IN24","0","20","1","1","3","2","","0","1","0","null","","","<div class = 'row'><div class = 'column'><img src = 'usneg/7380.bmp' width = '100%;'></div><div class = 'column'><img src = 'category2/CS3.png' width = '70%;'></div></div>","null","neg","CS","CS","2","category2/CS3.png","","","","",""
"","html-keyboard-response","44","324614","0.0-6.0-2.0-0.17","sg33rsrnhp","one_one","1","direct_first","1","ER05IN24","0","20","1","1","3","2","","0","1","0","null","","","<div class = 'row'><div class = 'column'><img src = 'category3/CS10.png' width = '70%;'></div><div class = 'column'><img src = 'usneg/9290.bmp' width = '100%;'></div></div>","null","neg","CS","CS","3","category3/CS10.png","","","","",""
"","html-keyboard-response","45","327118","0.0-6.0-2.0-0.18","sg33rsrnhp","one_one","1","direct_first","1","ER05IN24","0","20","1","1","3","2","","0","1","0","null","","","<div class = 'row'><div class = 'column'><img src = 'uspos/1440.bmp' width = '100%;'></div><div class = 'column'><img src = 'category4/CS6.png' width = '70%;'></div></div>","null","pos","CS","CS","4","category4/CS6.png","","","","",""
"","html-keyboard-response","46","329623","0.0-6.0-2.0-0.19","sg33rsrnhp","one_one","1","direct_first","1","ER05IN24","0","20","1","1","3","2","","0","1","0","null","","","<div class = 'row'><div class = 'column'><img src = 'category2/CS3.png' width = '70%;'></div><div class = 'column'><img src = 'usneg/7380.bmp' width = '100%;'></div></div>","null","neg","CS","CS","2","category2/CS3.png","","","","",""
"","survey-html-form","47","344342","0.0-6.0-3.0","sg33rsrnhp","one_one","1","direct_first","1","ER05IN24","0","20","1","1","3","2","","0","1","0","14216.38499997789","","{}","","","","","","","","","","","",""
"","html-keyboard-response","48","348349","0.0-6.0-4.0-0.0","sg33rsrnhp","one_one","1","direct_first","1","ER05IN24","0","20","1","1","3","2","","0","1","0","null","","","<div class = 'row'><div class = 'column'><img src = 'category3/CS10.png' width = '70%;'></div><div class = 'column'><img src = 'usneg/9290.bmp' width = '100%;'></div></div>","null","neg","CS","CS","3","category3/CS10.png","","","","",""
"","html-keyboard-response","49","350853","0.0-6.0-4.0-0.1","sg33rsrnhp","one_one","1","direct_first","1","ER05IN24","0","20","1","1","3","2","","0","1","0","null","","","<div class = 'row'><div class = 'column'><img src = 'uspos/5470.bmp' width = '100%;'></div><div class = 'column'><img src = 'category1/CS7.png' width = '70%;'></div></div>","null","pos","CS","CS","1","category1/CS7.png","","","","",""
"","html-keyboard-response","50","353358","0.0-6.0-4.0-0.2","sg33rsrnhp","one_one","1","direct_first","1","ER05IN24","0","20","1","1","3","2","","0","1","0","null","","","<div class = 'row'><div class = 'column'><img src = 'usneg/9290.bmp' width = '100%;'></div><div class = 'column'><img src = 'category3/CS10.png' width = '70%;'></div></div>","null","neg","CS","CS","3","category3/CS10.png","","","","",""
"","html-keyboard-response","51","355862","0.0-6.0-4.0-0.3","sg33rsrnhp","one_one","1","direct_first","1","ER05IN24","0","20","1","1","3","2","","0","1","0","null","","","<div class = 'row'><div class = 'column'><img src = 'category4/CS6.png' width = '70%;'></div><div class = 'column'><img src = 'uspos/1440.bmp' width = '100%;'></div></div>","null","pos","CS","CS","4","category4/CS6.png","","","","",""
"","html-keyboard-response","52","358368","0.0-6.0-4.0-0.4","sg33rsrnhp","one_one","1","direct_first","1","ER05IN24","0","20","1","1","3","2","","0","1","0","null","","","<div class = 'row'><div class = 'column'><img src = 'uspos/5470.bmp' width = '100%;'></div><div class = 'column'><img src = 'category1/CS7.png' width = '70%;'></div></div>","null","pos","CS","CS","1","category1/CS7.png","","","","",""
"","html-keyboard-response","53","360873","0.0-6.0-4.0-0.5","sg33rsrnhp","one_one","1","direct_first","1","ER05IN24","0","20","1","1","3","2","","0","1","0","null","","","<div class = 'row'><div class = 'column'><img src = 'category3/CS10.png' width = '70%;'></div><div class = 'column'><img src = 'usneg/9290.bmp' width = '100%;'></div></div>","null","neg","CS","CS","3","category3/CS10.png","","","","",""
"","html-keyboard-response","54","363377","0.0-6.0-4.0-0.6","sg33rsrnhp","one_one","1","direct_first","1","ER05IN24","0","20","1","1","3","2","","0","1","0","null","","","<div class = 'row'><div class = 'column'><img src = 'usneg/7380.bmp' width = '100%;'></div><div class = 'column'><img src = 'category2/CS3.png' width = '70%;'></div></div>","null","neg","CS","CS","2","category2/CS3.png","","","","",""
"","html-keyboard-response","55","365882","0.0-6.0-4.0-0.7","sg33rsrnhp","one_one","1","direct_first","1","ER05IN24","0","20","1","1","3","2","","0","1","0","null","","","<div class = 'row'><div class = 'column'><img src = 'category4/CS6.png' width = '70%;'></div><div class = 'column'><img src = 'uspos/1440.bmp' width = '100%;'></div></div>","null","pos","CS","CS","4","category4/CS6.png","","","","",""
"","html-keyboard-response","56","368388","0.0-6.0-4.0-0.8","sg33rsrnhp","one_one","1","direct_first","1","ER05IN24","0","20","1","1","3","2","","0","1","0","null","","","<div class = 'row'><div class = 'column'><img src = 'category1/CS7.png' width = '70%;'></div><div class = 'column'><img src = 'uspos/5470.bmp' width = '100%;'></div></div>","null","pos","CS","CS","1","category1/CS7.png","","","","",""
"","html-keyboard-response","57","370893","0.0-6.0-4.0-0.9","sg33rsrnhp","one_one","1","direct_first","1","ER05IN24","0","20","1","1","3","2","","0","1","0","null","","","<div class = 'row'><div class = 'column'><img src = 'category2/CS3.png' width = '70%;'></div><div class = 'column'><img src = 'usneg/7380.bmp' width = '100%;'></div></div>","null","neg","CS","CS","2","category2/CS3.png","","","","",""
"","html-keyboard-response","58","373398","0.0-6.0-4.0-0.10","sg33rsrnhp","one_one","1","direct_first","1","ER05IN24","0","20","1","1","3","2","","0","1","0","null","","","<div class = 'row'><div class = 'column'><img src = 'usneg/9290.bmp' width = '100%;'></div><div class = 'column'><img src = 'category3/CS10.png' width = '70%;'></div></div>","null","neg","CS","CS","3","category3/CS10.png","","","","",""
"","html-keyboard-response","59","375903","0.0-6.0-4.0-0.11","sg33rsrnhp","one_one","1","direct_first","1","ER05IN24","0","20","1","1","3","2","","0","1","0","null","","","<div class = 'row'><div class = 'column'><img src = 'uspos/5470.bmp' width = '100%;'></div><div class = 'column'><img src = 'category1/CS7.png' width = '70%;'></div></div>","null","pos","CS","CS","1","category1/CS7.png","","","","",""
"","html-keyboard-response","60","378411","0.0-6.0-4.0-0.12","sg33rsrnhp","one_one","1","direct_first","1","ER05IN24","0","20","1","1","3","2","","0","1","0","null","","","<div class = 'row'><div class = 'column'><img src = 'uspos/1440.bmp' width = '100%;'></div><div class = 'column'><img src = 'category4/CS6.png' width = '70%;'></div></div>","null","pos","CS","CS","4","category4/CS6.png","","","","",""
"","html-keyboard-response","61","380915","0.0-6.0-4.0-0.13","sg33rsrnhp","one_one","1","direct_first","1","ER05IN24","0","20","1","1","3","2","","0","1","0","null","","","<div class = 'row'><div class = 'column'><img src = 'usneg/7380.bmp' width = '100%;'></div><div class = 'column'><img src = 'category2/CS3.png' width = '70%;'></div></div>","null","neg","CS","CS","2","category2/CS3.png","","","","",""
"","html-keyboard-response","62","383420","0.0-6.0-4.0-0.14","sg33rsrnhp","one_one","1","direct_first","1","ER05IN24","0","20","1","1","3","2","","0","1","0","null","","","<div class = 'row'><div class = 'column'><img src = 'category3/CS10.png' width = '70%;'></div><div class = 'column'><img src = 'usneg/9290.bmp' width = '100%;'></div></div>","null","neg","CS","CS","3","category3/CS10.png","","","","",""
"","html-keyboard-response","63","385925","0.0-6.0-4.0-0.15","sg33rsrnhp","one_one","1","direct_first","1","ER05IN24","0","20","1","1","3","2","","0","1","0","null","","","<div class = 'row'><div class = 'column'><img src = 'uspos/1440.bmp' width = '100%;'></div><div class = 'column'><img src = 'category4/CS6.png' width = '70%;'></div></div>","null","pos","CS","CS","4","category4/CS6.png","","","","",""
"","html-keyboard-response","64","388432","0.0-6.0-4.0-0.16","sg33rsrnhp","one_one","1","direct_first","1","ER05IN24","0","20","1","1","3","2","","0","1","0","null","","","<div class = 'row'><div class = 'column'><img src = 'category2/CS3.png' width = '70%;'></div><div class = 'column'><img src = 'usneg/7380.bmp' width = '100%;'></div></div>","null","neg","CS","CS","2","category2/CS3.png","","","","",""
"","html-keyboard-response","65","390937","0.0-6.0-4.0-0.17","sg33rsrnhp","one_one","1","direct_first","1","ER05IN24","0","20","1","1","3","2","","0","1","0","null","","","<div class = 'row'><div class = 'column'><img src = 'category4/CS6.png' width = '70%;'></div><div class = 'column'><img src = 'uspos/1440.bmp' width = '100%;'></div></div>","null","pos","CS","CS","4","category4/CS6.png","","","","",""
"","html-keyboard-response","66","393441","0.0-6.0-4.0-0.18","sg33rsrnhp","one_one","1","direct_first","1","ER05IN24","0","20","1","1","3","2","","0","1","0","null","","","<div class = 'row'><div class = 'column'><img src = 'category2/CS3.png' width = '70%;'></div><div class = 'column'><img src = 'usneg/7380.bmp' width = '100%;'></div></div>","null","neg","CS","CS","2","category2/CS3.png","","","","",""
"","html-keyboard-response","67","395946","0.0-6.0-4.0-0.19","sg33rsrnhp","one_one","1","direct_first","1","ER05IN24","0","20","1","1","3","2","","0","1","0","null","","","<div class = 'row'><div class = 'column'><img src = 'category1/CS7.png' width = '70%;'></div><div class = 'column'><img src = 'uspos/5470.bmp' width = '100%;'></div></div>","null","pos","CS","CS","1","category1/CS7.png","","","","",""
"","survey-html-form","68","398569","0.0-6.0-5.0","sg33rsrnhp","one_one","1","direct_first","1","ER05IN24","0","20","1","1","3","2","","0","1","0","2121.3599999900907","","{}","","","","","","","","","","","",""
"","html-keyboard-response","69","402587","0.0-6.0-6.0-0.0","sg33rsrnhp","one_one","1","direct_first","1","ER05IN24","0","20","1","1","3","2","","0","1","0","null","","","<div class = 'row'><div class = 'column'><img src = 'category2/CS3.png' width = '70%;'></div><div class = 'column'><img src = 'usneg/7380.bmp' width = '100%;'></div></div>","null","neg","CS","CS","2","category2/CS3.png","","","","",""
"","html-keyboard-response","70","405091","0.0-6.0-6.0-0.1","sg33rsrnhp","one_one","1","direct_first","1","ER05IN24","0","20","1","1","3","2","","0","1","0","null","","","<div class = 'row'><div class = 'column'><img src = 'category3/CS10.png' width = '70%;'></div><div class = 'column'><img src = 'usneg/9290.bmp' width = '100%;'></div></div>","null","neg","CS","CS","3","category3/CS10.png","","","","",""
"","html-keyboard-response","71","407596","0.0-6.0-6.0-0.2","sg33rsrnhp","one_one","1","direct_first","1","ER05IN24","0","20","1","1","3","2","","0","1","0","null","","","<div class = 'row'><div class = 'column'><img src = 'uspos/1440.bmp' width = '100%;'></div><div class = 'column'><img src = 'category4/CS6.png' width = '70%;'></div></div>","null","pos","CS","CS","4","category4/CS6.png","","","","",""
"","html-keyboard-response","72","410101","0.0-6.0-6.0-0.3","sg33rsrnhp","one_one","1","direct_first","1","ER05IN24","0","20","1","1","3","2","","0","1","0","null","","","<div class = 'row'><div class = 'column'><img src = 'usneg/9290.bmp' width = '100%;'></div><div class = 'column'><img src = 'category3/CS10.png' width = '70%;'></div></div>","null","neg","CS","CS","3","category3/CS10.png","","","","",""
"","html-keyboard-response","73","412605","0.0-6.0-6.0-0.4","sg33rsrnhp","one_one","1","direct_first","1","ER05IN24","0","20","1","1","3","2","","0","1","0","null","","","<div class = 'row'><div class = 'column'><img src = 'category4/CS6.png' width = '70%;'></div><div class = 'column'><img src = 'uspos/1440.bmp' width = '100%;'></div></div>","null","pos","CS","CS","4","category4/CS6.png","","","","",""
"","html-keyboard-response","74","415108","0.0-6.0-6.0-0.5","sg33rsrnhp","one_one","1","direct_first","1","ER05IN24","0","20","1","1","3","2","","0","1","0","null","","","<div class = 'row'><div class = 'column'><img src = 'uspos/5470.bmp' width = '100%;'></div><div class = 'column'><img src = 'category1/CS7.png' width = '70%;'></div></div>","null","pos","CS","CS","1","category1/CS7.png","","","","",""
"","html-keyboard-response","75","417613","0.0-6.0-6.0-0.6","sg33rsrnhp","one_one","1","direct_first","1","ER05IN24","0","20","1","1","3","2","","0","1","0","null","","","<div class = 'row'><div class = 'column'><img src = 'uspos/1440.bmp' width = '100%;'></div><div class = 'column'><img src = 'category4/CS6.png' width = '70%;'></div></div>","null","pos","CS","CS","4","category4/CS6.png","","","","",""
"","html-keyboard-response","76","420117","0.0-6.0-6.0-0.7","sg33rsrnhp","one_one","1","direct_first","1","ER05IN24","0","20","1","1","3","2","","0","1","0","null","","","<div class = 'row'><div class = 'column'><img src = 'category3/CS10.png' width = '70%;'></div><div class = 'column'><img src = 'usneg/9290.bmp' width = '100%;'></div></div>","null","neg","CS","CS","3","category3/CS10.png","","","","",""
"","html-keyboard-response","77","422622","0.0-6.0-6.0-0.8","sg33rsrnhp","one_one","1","direct_first","1","ER05IN24","0","20","1","1","3","2","","0","1","0","null","","","<div class = 'row'><div class = 'column'><img src = 'category2/CS3.png' width = '70%;'></div><div class = 'column'><img src = 'usneg/7380.bmp' width = '100%;'></div></div>","null","neg","CS","CS","2","category2/CS3.png","","","","",""
"","html-keyboard-response","78","425127","0.0-6.0-6.0-0.9","sg33rsrnhp","one_one","1","direct_first","1","ER05IN24","0","20","1","1","3","2","","0","1","0","null","","","<div class = 'row'><div class = 'column'><img src = 'category1/CS7.png' width = '70%;'></div><div class = 'column'><img src = 'uspos/5470.bmp' width = '100%;'></div></div>","null","pos","CS","CS","1","category1/CS7.png","","","","",""
"","html-keyboard-response","79","427631","0.0-6.0-6.0-0.10","sg33rsrnhp","one_one","1","direct_first","1","ER05IN24","0","20","1","1","3","2","","0","1","0","null","","","<div class = 'row'><div class = 'column'><img src = 'category2/CS3.png' width = '70%;'></div><div class = 'column'><img src = 'usneg/7380.bmp' width = '100%;'></div></div>","null","neg","CS","CS","2","category2/CS3.png","","","","",""
"","html-keyboard-response","80","430135","0.0-6.0-6.0-0.11","sg33rsrnhp","one_one","1","direct_first","1","ER05IN24","0","20","1","1","3","2","","0","1","0","null","","","<div class = 'row'><div class = 'column'><img src = 'uspos/1440.bmp' width = '100%;'></div><div class = 'column'><img src = 'category4/CS6.png' width = '70%;'></div></div>","null","pos","CS","CS","4","category4/CS6.png","","","","",""
"","html-keyboard-response","81","432639","0.0-6.0-6.0-0.12","sg33rsrnhp","one_one","1","direct_first","1","ER05IN24","0","20","1","1","3","2","","0","1","0","null","","","<div class = 'row'><div class = 'column'><img src = 'category2/CS3.png' width = '70%;'></div><div class = 'column'><img src = 'usneg/7380.bmp' width = '100%;'></div></div>","null","neg","CS","CS","2","category2/CS3.png","","","","",""
"","html-keyboard-response","82","435145","0.0-6.0-6.0-0.13","sg33rsrnhp","one_one","1","direct_first","1","ER05IN24","0","20","1","1","3","2","","0","1","0","null","","","<div class = 'row'><div class = 'column'><img src = 'usneg/9290.bmp' width = '100%;'></div><div class = 'column'><img src = 'category3/CS10.png' width = '70%;'></div></div>","null","neg","CS","CS","3","category3/CS10.png","","","","",""
"","html-keyboard-response","83","437650","0.0-6.0-6.0-0.14","sg33rsrnhp","one_one","1","direct_first","1","ER05IN24","0","20","1","1","3","2","","0","1","0","null","","","<div class = 'row'><div class = 'column'><img src = 'uspos/5470.bmp' width = '100%;'></div><div class = 'column'><img src = 'category1/CS7.png' width = '70%;'></div></div>","null","pos","CS","CS","1","category1/CS7.png","","","","",""
"","html-keyboard-response","84","440154","0.0-6.0-6.0-0.15","sg33rsrnhp","one_one","1","direct_first","1","ER05IN24","0","20","1","1","3","2","","0","1","0","null","","","<div class = 'row'><div class = 'column'><img src = 'category2/CS3.png' width = '70%;'></div><div class = 'column'><img src = 'usneg/7380.bmp' width = '100%;'></div></div>","null","neg","CS","CS","2","category2/CS3.png","","","","",""
"","html-keyboard-response","85","442658","0.0-6.0-6.0-0.16","sg33rsrnhp","one_one","1","direct_first","1","ER05IN24","0","20","1","1","3","2","","0","1","0","null","","","<div class = 'row'><div class = 'column'><img src = 'category4/CS6.png' width = '70%;'></div><div class = 'column'><img src = 'uspos/1440.bmp' width = '100%;'></div></div>","null","pos","CS","CS","4","category4/CS6.png","","","","",""
"","html-keyboard-response","86","445162","0.0-6.0-6.0-0.17","sg33rsrnhp","one_one","1","direct_first","1","ER05IN24","0","20","1","1","3","2","","0","1","0","null","","","<div class = 'row'><div class = 'column'><img src = 'category1/CS7.png' width = '70%;'></div><div class = 'column'><img src = 'uspos/5470.bmp' width = '100%;'></div></div>","null","pos","CS","CS","1","category1/CS7.png","","","","",""
"","html-keyboard-response","87","447666","0.0-6.0-6.0-0.18","sg33rsrnhp","one_one","1","direct_first","1","ER05IN24","0","20","1","1","3","2","","0","1","0","null","","","<div class = 'row'><div class = 'column'><img src = 'usneg/9290.bmp' width = '100%;'></div><div class = 'column'><img src = 'category3/CS10.png' width = '70%;'></div></div>","null","neg","CS","CS","3","category3/CS10.png","","","","",""
"","html-keyboard-response","88","450170","0.0-6.0-6.0-0.19","sg33rsrnhp","one_one","1","direct_first","1","ER05IN24","0","20","1","1","3","2","","0","1","0","null","","","<div class = 'row'><div class = 'column'><img src = 'uspos/5470.bmp' width = '100%;'></div><div class = 'column'><img src = 'category1/CS7.png' width = '70%;'></div></div>","null","pos","CS","CS","1","category1/CS7.png","","","","",""
"","survey-html-form","89","463673","0.0-7.0","sg33rsrnhp","one_one","1","direct_first","1","ER05IN24","0","20","1","1","3","2","","0","1","0","13000.794999999925","","{}","","","","","","","","","","","",""
"","image-slider-response","90","477736","0.0-8.0-0.0","sg33rsrnhp","one_one","1","direct_first","1","ER05IN24","0","20","1","1","3","2","","0","1","0","12056.350000028033","","","","","pos","GS","GSnew","1","category1/GS1.png","-55","targets/20.png","direct","",""
"","image-slider-response","91","482789","0.0-8.0-0.1","sg33rsrnhp","one_one","1","direct_first","1","ER05IN24","0","20","1","1","3","2","","0","1","0","5048.580000002403","","","","","pos","CS","CS","4","category4/CS6.png","23","targets/4.png","direct","",""
"","image-slider-response","92","491043","0.0-8.0-0.2","sg33rsrnhp","one_one","1","direct_first","1","ER05IN24","0","20","1","1","3","2","","0","1","0","8249.914999993052","","","","","pos","GS","GSnew","4","category4/GS3.png","67","targets/1.png","direct","",""
"","image-slider-response","93","502069","0.0-8.0-0.3","sg33rsrnhp","one_one","1","direct_first","1","ER05IN24","0","20","1","1","3","2","","0","1","0","11021.480000053998","","","","","neg","GS","GSold","3","category3/CS6.png","-22","targets/27.png","direct","",""
"","image-slider-response","94","506979","0.0-8.0-0.4","sg33rsrnhp","one_one","1","direct_first","1","ER05IN24","0","20","1","1","3","2","","0","1","0","4905.504999973346","","","","","neg","CS","CS","2","category2/CS3.png","49","targets/17.png","direct","",""
"","image-slider-response","95","511873","0.0-8.0-0.5","sg33rsrnhp","one_one","1","direct_first","1","ER05IN24","0","20","1","1","3","2","","0","1","0","4890.509999997448","","","","","pos","GS","GSold","1","category1/CS1.png","-36","targets/40.png","direct","",""
"","image-slider-response","96","518578","0.0-8.0-0.6","sg33rsrnhp","one_one","1","direct_first","1","ER05IN24","0","20","1","1","3","2","","0","1","0","6700.725000002421","","","","","neg","GS","GSnew","2","category2/GS2.png","30","targets/41.png","direct","",""
"","image-slider-response","97","522099","0.0-8.0-0.7","sg33rsrnhp","one_one","1","direct_first","1","ER05IN24","0","20","1","1","3","2","","0","1","0","3516.5600000182167","","","","","neg","GS","abstract","3","category3/wang.png","-47","targets/31.png","direct","",""
"","image-slider-response","98","527937","0.0-8.0-0.8","sg33rsrnhp","one_one","1","direct_first","1","ER05IN24","0","20","1","1","3","2","","0","1","0","5834.7000000067055","","","","","pos","GS","GSold","1","category1/CS10.png","-25","targets/2.png","direct","",""
"","image-slider-response","99","533263","0.0-8.0-0.9","sg33rsrnhp","one_one","1","direct_first","1","ER05IN24","0","20","1","1","3","2","","0","1","0","5321.369999961462","","","","","neg","GS","GSold","2","category2/CS6.png","71","targets/33.png","direct","",""
"","image-slider-response","100","536619","0.0-8.0-0.10","sg33rsrnhp","one_one","1","direct_first","1","ER05IN24","0","20","1","1","3","2","","0","1","0","3352.655000053346","","","","","pos","GS","GSnew","4","category4/GS1.png","-20","targets/19.png","direct","",""
"","image-slider-response","101","542541","0.0-8.0-0.11","sg33rsrnhp","one_one","1","direct_first","1","ER05IN24","0","20","1","1","3","2","","0","1","0","5916.9399999664165","","","","","neg","GS","GSnew","3","category3/GS3.png","-50","targets/45.png","direct","",""
"","image-slider-response","102","546333","0.0-8.0-0.12","sg33rsrnhp","one_one","1","direct_first","1","ER05IN24","0","20","1","1","3","2","","0","1","0","3787.1249999734573","","","","","neg","GS","GSold","3","category3/CS7.png","-34","targets/12.png","direct","",""
"","image-slider-response","103","550371","0.0-8.0-0.13","sg33rsrnhp","one_one","1","direct_first","1","ER05IN24","0","20","1","1","3","2","","0","1","0","4033.8950000004843","","","","","neg","GS","GSold","2","category2/CS8.png","45","targets/24.png","direct","",""
"","image-slider-response","104","554731","0.0-8.0-0.14","sg33rsrnhp","one_one","1","direct_first","1","ER05IN24","0","20","1","1","3","2","","0","1","0","4357.075000007171","","","","","neg","GS","abstract","2","category2/men.png","58","targets/32.png","direct","",""
"","image-slider-response","105","561747","0.0-8.0-0.15","sg33rsrnhp","one_one","1","direct_first","1","ER05IN24","0","20","1","1","3","2","","0","1","0","7011.7349999491125","","","","","neg","GS","GSnew","2","category2/GS3.png","-23","targets/38.png","direct","",""
"","image-slider-response","106","566056","0.0-8.0-0.16","sg33rsrnhp","one_one","1","direct_first","1","ER05IN24","0","20","1","1","3","2","","0","1","0","4304.984999995213","","","","","pos","GS","GSold","4","category4/CS8.png","-75","targets/26.png","direct","",""
"","image-slider-response","107","570626","0.0-8.0-0.17","sg33rsrnhp","one_one","1","direct_first","1","ER05IN24","0","20","1","1","3","2","","0","1","0","4563.7749999878","","","","","pos","GS","abstract","4","category4/lin.png","31","targets/3.png","direct","",""
"","image-slider-response","108","577194","0.0-8.0-0.18","sg33rsrnhp","one_one","1","direct_first","1","ER05IN24","0","20","1","1","3","2","","0","1","0","6563.829999999143","","","","","neg","CS","CS","3","category3/CS10.png","-31","targets/42.png","direct","",""
"","image-slider-response","109","580428","0.0-8.0-0.19","sg33rsrnhp","one_one","1","direct_first","1","ER05IN24","0","20","1","1","3","2","","0","1","0","3229.4200000469573","","","","","neg","GS","GSnew","3","category3/GS2.png","-98","targets/37.png","direct","",""
"","image-slider-response","110","587066","0.0-8.0-0.20","sg33rsrnhp","one_one","1","direct_first","1","ER05IN24","0","20","1","1","3","2","","0","1","0","6634.249999944586","","","","","pos","GS","GSnew","1","category1/GS3.png","-29","targets/30.png","direct","",""
"","image-slider-response","111","591846","0.0-8.0-0.21","sg33rsrnhp","one_one","1","direct_first","1","ER05IN24","0","20","1","1","3","2","","0","1","0","4775.939999963157","","","","","pos","GS","abstract","1","category1/ma.png","17","targets/46.png","direct","",""
"","image-slider-response","112","594699","0.0-8.0-0.22","sg33rsrnhp","one_one","1","direct_first","1","ER05IN24","0","20","1","1","3","2","","0","1","0","2847.1150000113994","","","","","pos","GS","GSold","1","category1/CS9.png","-25","targets/10.png","direct","",""
"","image-slider-response","113","597816","0.0-8.0-0.23","sg33rsrnhp","one_one","1","direct_first","1","ER05IN24","0","20","1","1","3","2","","0","1","0","3114.1500000376254","","","","","neg","GS","GSnew","3","category3/GS1.png","-57","targets/36.png","direct","",""
"","image-slider-response","114","601290","0.0-8.0-0.24","sg33rsrnhp","one_one","1","direct_first","1","ER05IN24","0","20","1","1","3","2","","0","1","0","3469.669999962207","","","","","pos","GS","GSnew","4","category4/GS2.png","42","targets/13.png","direct","",""
"","image-slider-response","115","611084","0.0-8.0-0.25","sg33rsrnhp","one_one","1","direct_first","1","ER05IN24","0","20","1","1","3","2","","0","1","0","9788.620000006631","","","","","pos","CS","CS","1","category1/CS7.png","-29","targets/21.png","direct","",""
"","image-slider-response","116","614503","0.0-8.0-0.26","sg33rsrnhp","one_one","1","direct_first","1","ER05IN24","0","20","1","1","3","2","","0","1","0","3414.005000027828","","","","","pos","GS","GSold","4","category4/CS1.png","48","targets/6.png","direct","",""
"","image-slider-response","117","618452","0.0-8.0-0.27","sg33rsrnhp","one_one","1","direct_first","1","ER05IN24","0","20","1","1","3","2","","0","1","0","3945.6650000065565","","","","","neg","GS","GSold","2","category2/CS1.png","27","targets/34.png","direct","",""
"","image-slider-response","118","623764","0.0-8.0-0.28","sg33rsrnhp","one_one","1","direct_first","1","ER05IN24","0","20","1","1","3","2","","0","1","0","5306.2649999628775","","","","","pos","GS","GSnew","1","category1/GS2.png","-58","targets/14.png","direct","",""
"","image-slider-response","119","627531","0.0-8.0-0.29","sg33rsrnhp","one_one","1","direct_first","1","ER05IN24","0","20","1","1","3","2","","0","1","0","3763.329999987036","","","","","pos","GS","GSold","4","category4/CS7.png","56","targets/29.png","direct","",""
"","image-slider-response","120","633332","0.0-8.0-0.30","sg33rsrnhp","one_one","1","direct_first","1","ER05IN24","0","20","1","1","3","2","","0","1","0","5797.575000033248","","","","","neg","GS","GSold","3","category3/CS5.png","2","targets/44.png","direct","",""
"","image-slider-response","121","639383","0.0-8.0-0.31","sg33rsrnhp","one_one","1","direct_first","1","ER05IN24","0","20","1","1","3","2","","0","1","0","6046.660000050906","","","","","neg","GS","GSnew","2","category2/GS1.png","-33","targets/22.png","direct","",""
"","html-keyboard-response","122","673610","0.0-9.0","sg33rsrnhp","one_one","1","direct_first","1","ER05IN24","0","20","1","1","3","2","","0","1","0","34222.43000002345","","","<p>Sie sehen nun die chinesischen Zeichen nur ganz kurz. Danach sehen Sie die jeweilige Aussprache der Zeichen als Silbe auf dem Bildschrim. Ihre Aufgabe ist es, für jede Silbe anzugeben, ob diese etwas angenehmes, oder unangenehmes bedeuten könnte. Verlassen Sie sich hier vor allem auf Ihre Intuition.<br><br>Die Zeichen werden nur zur Orientierung dargestellt, beachten Sie sie deshalb nicht. Konzentrieren Sie sich vor allem auf die Silben. <br>Reagieren Sie mit folgenden zwei Tasten: <br><br><b>'D' </b> wenn die Silbe etwas <b>unangenehmes</b> bedeuten könnte. <br><b>'K'</b> wenn die Silbe etwas <b>angenehmes</b> bedeuten könnte. <br><br>Bitte legen Sie nun den Zeigefinger der linken Hand auf die Taste 'D' und den Zeigefinger der rechten Hand auf die Taste 'K'. <br>Reagieren Sie auf jede Silbe so schnell wie möglich. Uns interessiert Ihre spontane Reaktion. <br> <br> <br>Drücken Sie 'D' oder 'K', um die nächste Aufgabe zu starten. </p>","75","","","","","","","","","",""
"","html-keyboard-response","123","676612","0.0-10.0-0.0","sg33rsrnhp","one_one","1","direct_first","1","ER05IN24","0","20","1","1","3","2","","0","1","0","null","","","<div style=""font-size:60px;"">+</div>","null","","","","","","","","","",""
"","html-keyboard-response","124","676705","0.0-10.0-1.0","sg33rsrnhp","one_one","1","direct_first","1","ER05IN24","0","20","1","1","3","2","","0","1","0","null","","","<img src = 'category3/CS5.png' width = '100%;'>","null","","","","","","","","","",""
"","html-keyboard-response","125","676959","0.0-10.0-2.0","sg33rsrnhp","one_one","1","direct_first","1","ER05IN24","0","20","1","1","3","2","","0","1","0","null","","","<img src = 'targets/44.png' width = '100%;'>","null","","","","","","","","","",""
"","html-keyboard-response","126","678632","0.0-10.0-3.0","sg33rsrnhp","one_one","1","direct_first","1","ER05IN24","0","20","1","1","3","2","","0","1","0","1670.6899999990128","","","<img src = 'targets/mask.png' width = '100%;'>","68","neg","GS","GSold","3","category3/CS5.png","","targets/44.png","indirect","0","0"
"","html-keyboard-response","127","680134","0.0-10.0-0.1","sg33rsrnhp","one_one","1","direct_first","1","ER05IN24","0","20","1","1","3","2","","0","1","0","null","","","<div style=""font-size:60px;"">+</div>","null","","","","","","","","","",""
"","html-keyboard-response","128","680226","0.0-10.0-1.1","sg33rsrnhp","one_one","1","direct_first","1","ER05IN24","0","20","1","1","3","2","","0","1","0","null","","","<img src = 'category1/CS7.png' width = '100%;'>","null","","","","","","","","","",""
"","html-keyboard-response","129","680479","0.0-10.0-2.1","sg33rsrnhp","one_one","1","direct_first","1","ER05IN24","0","20","1","1","3","2","","0","1","0","null","","","<img src = 'targets/21.png' width = '100%;'>","null","","","","","","","","","",""
"","html-keyboard-response","130","682176","0.0-10.0-3.1","sg33rsrnhp","one_one","1","direct_first","1","ER05IN24","0","20","1","1","3","2","","0","1","0","1694.9349999777041","","","<img src = 'targets/mask.png' width = '100%;'>","75","pos","CS","CS","1","category1/CS7.png","","targets/21.png","indirect","1","1"
"","html-keyboard-response","131","683678","0.0-10.0-0.2","sg33rsrnhp","one_one","1","direct_first","1","ER05IN24","0","20","1","1","3","2","","0","1","0","null","","","<div style=""font-size:60px;"">+</div>","null","","","","","","","","","",""
"","html-keyboard-response","132","683770","0.0-10.0-1.2","sg33rsrnhp","one_one","1","direct_first","1","ER05IN24","0","20","1","1","3","2","","0","1","0","null","","","<img src = 'category2/CS3.png' width = '100%;'>","null","","","","","","","","","",""
"","html-keyboard-response","133","684023","0.0-10.0-2.2","sg33rsrnhp","one_one","1","direct_first","1","ER05IN24","0","20","1","1","3","2","","0","1","0","null","","","<img src = 'targets/17.png' width = '100%;'>","null","","","","","","","","","",""
"","html-keyboard-response","134","685829","0.0-10.0-3.2","sg33rsrnhp","one_one","1","direct_first","1","ER05IN24","0","20","1","1","3","2","","0","1","0","1803.1450000125915","","","<img src = 'targets/mask.png' width = '100%;'>","75","neg","CS","CS","2","category2/CS3.png","","targets/17.png","indirect","1","2"
"","html-keyboard-response","135","687335","0.0-10.0-0.3","sg33rsrnhp","one_one","1","direct_first","1","ER05IN24","0","20","1","1","3","2","","0","1","0","null","","","<div style=""font-size:60px;"">+</div>","null","","","","","","","","","",""
"","html-keyboard-response","136","687428","0.0-10.0-1.3","sg33rsrnhp","one_one","1","direct_first","1","ER05IN24","0","20","1","1","3","2","","0","1","0","null","","","<img src = 'category4/CS6.png' width = '100%;'>","null","","","","","","","","","",""
"","html-keyboard-response","137","687680","0.0-10.0-2.3","sg33rsrnhp","one_one","1","direct_first","1","ER05IN24","0","20","1","1","3","2","","0","1","0","null","","","<img src = 'targets/4.png' width = '100%;'>","null","","","","","","","","","",""
"","html-keyboard-response","138","688329","0.0-10.0-3.3","sg33rsrnhp","one_one","1","direct_first","1","ER05IN24","0","20","1","1","3","2","","0","1","0","645.844999991823","","","<img src = 'targets/mask.png' width = '100%;'>","68","pos","CS","CS","4","category4/CS6.png","","targets/4.png","indirect","0","3"
"","html-keyboard-response","139","689832","0.0-10.0-0.4","sg33rsrnhp","one_one","1","direct_first","1","ER05IN24","0","20","1","1","3","2","","0","1","0","null","","","<div style=""font-size:60px;"">+</div>","null","","","","","","","","","",""
"","html-keyboard-response","140","689924","0.0-10.0-1.4","sg33rsrnhp","one_one","1","direct_first","1","ER05IN24","0","20","1","1","3","2","","0","1","0","null","","","<img src = 'category2/CS8.png' width = '100%;'>","null","","","","","","","","","",""
"","html-keyboard-response","141","690179","0.0-10.0-2.4","sg33rsrnhp","one_one","1","direct_first","1","ER05IN24","0","20","1","1","3","2","","0","1","0","null","","","<img src = 'targets/24.png' width = '100%;'>","null","","","","","","","","","",""
"","html-keyboard-response","142","690928","0.0-10.0-3.4","sg33rsrnhp","one_one","1","direct_first","1","ER05IN24","0","20","1","1","3","2","","0","1","0","747.1899999654852","","","<img src = 'targets/mask.png' width = '100%;'>","68","neg","GS","GSold","2","category2/CS8.png","","targets/24.png","indirect","0","4"
"","html-keyboard-response","143","692431","0.0-10.0-0.5","sg33rsrnhp","one_one","1","direct_first","1","ER05IN24","0","20","1","1","3","2","","0","1","0","null","","","<div style=""font-size:60px;"">+</div>","null","","","","","","","","","",""
"","html-keyboard-response","144","692523","0.0-10.0-1.5","sg33rsrnhp","one_one","1","direct_first","1","ER05IN24","0","20","1","1","3","2","","0","1","0","null","","","<img src = 'category2/CS1.png' width = '100%;'>","null","","","","","","","","","",""
"","html-keyboard-response","145","692775","0.0-10.0-2.5","sg33rsrnhp","one_one","1","direct_first","1","ER05IN24","0","20","1","1","3","2","","0","1","0","null","","","<img src = 'targets/34.png' width = '100%;'>","null","","","","","","","","","",""
"","html-keyboard-response","146","693960","0.0-10.0-3.5","sg33rsrnhp","one_one","1","direct_first","1","ER05IN24","0","20","1","1","3","2","","0","1","0","1183.5100000025705","","","<img src = 'targets/mask.png' width = '100%;'>","75","neg","GS","GSold","2","category2/CS1.png","","targets/34.png","indirect","1","5"
"","html-keyboard-response","147","695463","0.0-10.0-0.6","sg33rsrnhp","one_one","1","direct_first","1","ER05IN24","0","20","1","1","3","2","","0","1","0","null","","","<div style=""font-size:60px;"">+</div>","null","","","","","","","","","",""
"","html-keyboard-response","148","695555","0.0-10.0-1.6","sg33rsrnhp","one_one","1","direct_first","1","ER05IN24","0","20","1","1","3","2","","0","1","0","null","","","<img src = 'category3/CS7.png' width = '100%;'>","null","","","","","","","","","",""
"","html-keyboard-response","149","695808","0.0-10.0-2.6","sg33rsrnhp","one_one","1","direct_first","1","ER05IN24","0","20","1","1","3","2","","0","1","0","null","","","<img src = 'targets/12.png' width = '100%;'>","null","","","","","","","","","",""
"","html-keyboard-response","150","697006","0.0-10.0-3.6","sg33rsrnhp","one_one","1","direct_first","1","ER05IN24","0","20","1","1","3","2","","0","1","0","1195.0100000249222","","","<img src = 'targets/mask.png' width = '100%;'>","75","neg","GS","GSold","3","category3/CS7.png","","targets/12.png","indirect","1","6"
"","html-keyboard-response","151","698511","0.0-10.0-0.7","sg33rsrnhp","one_one","1","direct_first","1","ER05IN24","0","20","1","1","3","2","","0","1","0","null","","","<div style=""font-size:60px;"">+</div>","null","","","","","","","","","",""
"","html-keyboard-response","152","698603","0.0-10.0-1.7","sg33rsrnhp","one_one","1","direct_first","1","ER05IN24","0","20","1","1","3","2","","0","1","0","null","","","<img src = 'category3/CS6.png' width = '100%;'>","null","","","","","","","","","",""
"","html-keyboard-response","153","698856","0.0-10.0-2.7","sg33rsrnhp","one_one","1","direct_first","1","ER05IN24","0","20","1","1","3","2","","0","1","0","null","","","<img src = 'targets/27.png' width = '100%;'>","null","","","","","","","","","",""
"","html-keyboard-response","154","700160","0.0-10.0-3.7","sg33rsrnhp","one_one","1","direct_first","1","ER05IN24","0","20","1","1","3","2","","0","1","0","1301.3299999875017","","","<img src = 'targets/mask.png' width = '100%;'>","68","neg","GS","GSold","3","category3/CS6.png","","targets/27.png","indirect","0","7"
"","html-keyboard-response","155","701663","0.0-10.0-0.8","sg33rsrnhp","one_one","1","direct_first","1","ER05IN24","0","20","1","1","3","2","","0","1","0","null","","","<div style=""font-size:60px;"">+</div>","null","","","","","","","","","",""
"","html-keyboard-response","156","701755","0.0-10.0-1.8","sg33rsrnhp","one_one","1","direct_first","1","ER05IN24","0","20","1","1","3","2","","0","1","0","null","","","<img src = 'category1/CS9.png' width = '100%;'>","null","","","","","","","","","",""
"","html-keyboard-response","157","702009","0.0-10.0-2.8","sg33rsrnhp","one_one","1","direct_first","1","ER05IN24","0","20","1","1","3","2","","0","1","0","null","","","<img src = 'targets/10.png' width = '100%;'>","null","","","","","","","","","",""
"","html-keyboard-response","158","702856","0.0-10.0-3.8","sg33rsrnhp","one_one","1","direct_first","1","ER05IN24","0","20","1","1","3","2","","0","1","0","844.7700000251643","","","<img src = 'targets/mask.png' width = '100%;'>","75","pos","GS","GSold","1","category1/CS9.png","","targets/10.png","indirect","1","8"
"","html-keyboard-response","159","704358","0.0-10.0-0.9","sg33rsrnhp","one_one","1","direct_first","1","ER05IN24","0","20","1","1","3","2","","0","1","0","null","","","<div style=""font-size:60px;"">+</div>","null","","","","","","","","","",""
"","html-keyboard-response","160","704451","0.0-10.0-1.9","sg33rsrnhp","one_one","1","direct_first","1","ER05IN24","0","20","1","1","3","2","","0","1","0","null","","","<img src = 'category4/CS1.png' width = '100%;'>","null","","","","","","","","","",""
"","html-keyboard-response","161","704705","0.0-10.0-2.9","sg33rsrnhp","one_one","1","direct_first","1","ER05IN24","0","20","1","1","3","2","","0","1","0","null","","","<img src = 'targets/6.png' width = '100%;'>","null","","","","","","","","","",""
"","html-keyboard-response","162","705696","0.0-10.0-3.9","sg33rsrnhp","one_one","1","direct_first","1","ER05IN24","0","20","1","1","3","2","","0","1","0","989.8549999925308","","","<img src = 'targets/mask.png' width = '100%;'>","75","pos","GS","GSold","4","category4/CS1.png","","targets/6.png","indirect","1","9"
"","html-keyboard-response","163","707200","0.0-10.0-0.10","sg33rsrnhp","one_one","1","direct_first","1","ER05IN24","0","20","1","1","3","2","","0","1","0","null","","","<div style=""font-size:60px;"">+</div>","null","","","","","","","","","",""
"","html-keyboard-response","164","707292","0.0-10.0-1.10","sg33rsrnhp","one_one","1","direct_first","1","ER05IN24","0","20","1","1","3","2","","0","1","0","null","","","<img src = 'category2/CS6.png' width = '100%;'>","null","","","","","","","","","",""
"","html-keyboard-response","165","707545","0.0-10.0-2.10","sg33rsrnhp","one_one","1","direct_first","1","ER05IN24","0","20","1","1","3","2","","0","1","0","null","","","<img src = 'targets/33.png' width = '100%;'>","null","","","","","","","","","",""
"","html-keyboard-response","166","709564","0.0-10.0-3.10","sg33rsrnhp","one_one","1","direct_first","1","ER05IN24","0","20","1","1","3","2","","0","1","0","2016.6249999892898","","","<img src = 'targets/mask.png' width = '100%;'>","75","neg","GS","GSold","2","category2/CS6.png","","targets/33.png","indirect","1","10"
"","html-keyboard-response","167","711067","0.0-10.0-0.11","sg33rsrnhp","one_one","1","direct_first","1","ER05IN24","0","20","1","1","3","2","","0","1","0","null","","","<div style=""font-size:60px;"">+</div>","null","","","","","","","","","",""
"","html-keyboard-response","168","711159","0.0-10.0-1.11","sg33rsrnhp","one_one","1","direct_first","1","ER05IN24","0","20","1","1","3","2","","0","1","0","null","","","<img src = 'category4/CS7.png' width = '100%;'>","null","","","","","","","","","",""
"","html-keyboard-response","169","711412","0.0-10.0-2.11","sg33rsrnhp","one_one","1","direct_first","1","ER05IN24","0","20","1","1","3","2","","0","1","0","null","","","<img src = 'targets/29.png' width = '100%;'>","null","","","","","","","","","",""
"","html-keyboard-response","170","712768","0.0-10.0-3.11","sg33rsrnhp","one_one","1","direct_first","1","ER05IN24","0","20","1","1","3","2","","0","1","0","1353.3849999657832","","","<img src = 'targets/mask.png' width = '100%;'>","75","pos","GS","GSold","4","category4/CS7.png","","targets/29.png","indirect","1","11"
"","html-keyboard-response","171","714270","0.0-10.0-0.12","sg33rsrnhp","one_one","1","direct_first","1","ER05IN24","0","20","1","1","3","2","","0","1","0","null","","","<div style=""font-size:60px;"">+</div>","null","","","","","","","","","",""
"","html-keyboard-response","172","714364","0.0-10.0-1.12","sg33rsrnhp","one_one","1","direct_first","1","ER05IN24","0","20","1","1","3","2","","0","1","0","null","","","<img src = 'category1/CS10.png' width = '100%;'>","null","","","","","","","","","",""
"","html-keyboard-response","173","714617","0.0-10.0-2.12","sg33rsrnhp","one_one","1","direct_first","1","ER05IN24","0","20","1","1","3","2","","0","1","0","null","","","<img src = 'targets/2.png' width = '100%;'>","null","","","","","","","","","",""
"","html-keyboard-response","174","715729","0.0-10.0-3.12","sg33rsrnhp","one_one","1","direct_first","1","ER05IN24","0","20","1","1","3","2","","0","1","0","1108.6399999912828","","","<img src = 'targets/mask.png' width = '100%;'>","68","pos","GS","GSold","1","category1/CS10.png","","targets/2.png","indirect","0","12"
"","html-keyboard-response","175","717232","0.0-10.0-0.13","sg33rsrnhp","one_one","1","direct_first","1","ER05IN24","0","20","1","1","3","2","","0","1","0","null","","","<div style=""font-size:60px;"">+</div>","null","","","","","","","","","",""
"","html-keyboard-response","176","717325","0.0-10.0-1.13","sg33rsrnhp","one_one","1","direct_first","1","ER05IN24","0","20","1","1","3","2","","0","1","0","null","","","<img src = 'category4/CS8.png' width = '100%;'>","null","","","","","","","","","",""
"","html-keyboard-response","177","717578","0.0-10.0-2.13","sg33rsrnhp","one_one","1","direct_first","1","ER05IN24","0","20","1","1","3","2","","0","1","0","null","","","<img src = 'targets/26.png' width = '100%;'>","null","","","","","","","","","",""
"","html-keyboard-response","178","718688","0.0-10.0-3.13","sg33rsrnhp","one_one","1","direct_first","1","ER05IN24","0","20","1","1","3","2","","0","1","0","1108.170000021346","","","<img src = 'targets/mask.png' width = '100%;'>","75","pos","GS","GSold","4","category4/CS8.png","","targets/26.png","indirect","1","13"
"","html-keyboard-response","179","720192","0.0-10.0-0.14","sg33rsrnhp","one_one","1","direct_first","1","ER05IN24","0","20","1","1","3","2","","0","1","0","null","","","<div style=""font-size:60px;"">+</div>","null","","","","","","","","","",""
"","html-keyboard-response","180","720285","0.0-10.0-1.14","sg33rsrnhp","one_one","1","direct_first","1","ER05IN24","0","20","1","1","3","2","","0","1","0","null","","","<img src = 'category3/CS10.png' width = '100%;'>","null","","","","","","","","","",""
"","html-keyboard-response","181","720538","0.0-10.0-2.14","sg33rsrnhp","one_one","1","direct_first","1","ER05IN24","0","20","1","1","3","2","","0","1","0","null","","","<img src = 'targets/42.png' width = '100%;'>","null","","","","","","","","","",""
"","html-keyboard-response","182","721423","0.0-10.0-3.14","sg33rsrnhp","one_one","1","direct_first","1","ER05IN24","0","20","1","1","3","2","","0","1","0","881.699999968987","","","<img src = 'targets/mask.png' width = '100%;'>","68","neg","CS","CS","3","category3/CS10.png","","targets/42.png","indirect","0","14"
"","html-keyboard-response","183","722927","0.0-10.0-0.15","sg33rsrnhp","one_one","1","direct_first","1","ER05IN24","0","20","1","1","3","2","","0","1","0","null","","","<div style=""font-size:60px;"">+</div>","null","","","","","","","","","",""
"","html-keyboard-response","184","723020","0.0-10.0-1.15","sg33rsrnhp","one_one","1","direct_first","1","ER05IN24","0","20","1","1","3","2","","0","1","0","null","","","<img src = 'category1/CS1.png' width = '100%;'>","null","","","","","","","","","",""
"","html-keyboard-response","185","723273","0.0-10.0-2.15","sg33rsrnhp","one_one","1","direct_first","1","ER05IN24","0","20","1","1","3","2","","0","1","0","null","","","<img src = 'targets/40.png' width = '100%;'>","null","","","","","","","","","",""
"","html-keyboard-response","186","724464","0.0-10.0-3.15","sg33rsrnhp","one_one","1","direct_first","1","ER05IN24","0","20","1","1","3","2","","0","1","0","1189.0600000042468","","","<img src = 'targets/mask.png' width = '100%;'>","68","pos","GS","GSold","1","category1/CS1.png","","targets/40.png","indirect","0","15"
"","survey-html-form","187","744012","0.0-11.0","sg33rsrnhp","one_one","1","direct_first","1","ER05IN24","0","20","1","1","3","2","","0","1","0","19045.105000026524","","{}","","","","","","","","","","","",""
"","html-keyboard-response","188","747015","0.0-12.0-0.0","sg33rsrnhp","one_one","1","direct_first","1","ER05IN24","0","20","1","1","3","2","","0","1","0","null","","","<div style=""font-size:60px;"">+</div>","null","","","","","","","","","",""
"","html-keyboard-response","189","747108","0.0-12.0-1.0","sg33rsrnhp","one_one","1","direct_first","1","ER05IN24","0","20","1","1","3","2","","0","1","0","null","","","<img src = 'category1/GS1.png' width = '100%;'>","null","","","","","","","","","",""
"","html-keyboard-response","190","747361","0.0-12.0-2.0","sg33rsrnhp","one_one","1","direct_first","1","ER05IN24","0","20","1","1","3","2","","0","1","0","null","","","<img src = 'targets/20.png' width = '100%;'>","null","","","","","","","","","",""
"","html-keyboard-response","191","748743","0.0-12.0-3.0","sg33rsrnhp","one_one","1","direct_first","1","ER05IN24","0","20","1","1","3","2","","0","1","0","1379.1300000157207","","","<img src = 'targets/mask.png' width = '100%;'>","75","pos","GS","GSnew","1","category1/GS1.png","","targets/20.png","indirect","1","16"
"","html-keyboard-response","192","750248","0.0-12.0-0.1","sg33rsrnhp","one_one","1","direct_first","1","ER05IN24","0","20","1","1","3","2","","0","1","0","null","","","<div style=""font-size:60px;"">+</div>","null","","","","","","","","","",""
"","html-keyboard-response","193","750342","0.0-12.0-1.1","sg33rsrnhp","one_one","1","direct_first","1","ER05IN24","0","20","1","1","3","2","","0","1","0","null","","","<img src = 'category3/GS3.png' width = '100%;'>","null","","","","","","","","","",""
"","html-keyboard-response","194","750595","0.0-12.0-2.1","sg33rsrnhp","one_one","1","direct_first","1","ER05IN24","0","20","1","1","3","2","","0","1","0","null","","","<img src = 'targets/45.png' width = '100%;'>","null","","","","","","","","","",""
"","html-keyboard-response","195","751623","0.0-12.0-3.1","sg33rsrnhp","one_one","1","direct_first","1","ER05IN24","0","20","1","1","3","2","","0","1","0","1026.2799999909475","","","<img src = 'targets/mask.png' width = '100%;'>","75","neg","GS","GSnew","3","category3/GS3.png","","targets/45.png","indirect","1","17"
"","html-keyboard-response","196","753126","0.0-12.0-0.2","sg33rsrnhp","one_one","1","direct_first","1","ER05IN24","0","20","1","1","3","2","","0","1","0","null","","","<div style=""font-size:60px;"">+</div>","null","","","","","","","","","",""
"","html-keyboard-response","197","753217","0.0-12.0-1.2","sg33rsrnhp","one_one","1","direct_first","1","ER05IN24","0","20","1","1","3","2","","0","1","0","null","","","<img src = 'category4/GS3.png' width = '100%;'>","null","","","","","","","","","",""
"","html-keyboard-response","198","753471","0.0-12.0-2.2","sg33rsrnhp","one_one","1","direct_first","1","ER05IN24","0","20","1","1","3","2","","0","1","0","null","","","<img src = 'targets/1.png' width = '100%;'>","null","","","","","","","","","",""
"","html-keyboard-response","199","754976","0.0-12.0-3.2","sg33rsrnhp","one_one","1","direct_first","1","ER05IN24","0","20","1","1","3","2","","0","1","0","1502.7750000008382","","","<img src = 'targets/mask.png' width = '100%;'>","68","pos","GS","GSnew","4","category4/GS3.png","","targets/1.png","indirect","0","18"
"","html-keyboard-response","200","756477","0.0-12.0-0.3","sg33rsrnhp","one_one","1","direct_first","1","ER05IN24","0","20","1","1","3","2","","0","1","0","null","","","<div style=""font-size:60px;"">+</div>","null","","","","","","","","","",""
"","html-keyboard-response","201","756569","0.0-12.0-1.3","sg33rsrnhp","one_one","1","direct_first","1","ER05IN24","0","20","1","1","3","2","","0","1","0","null","","","<img src = 'category1/GS2.png' width = '100%;'>","null","","","","","","","","","",""
"","html-keyboard-response","202","756822","0.0-12.0-2.3","sg33rsrnhp","one_one","1","direct_first","1","ER05IN24","0","20","1","1","3","2","","0","1","0","null","","","<img src = 'targets/14.png' width = '100%;'>","null","","","","","","","","","",""
"","html-keyboard-response","203","757623","0.0-12.0-3.3","sg33rsrnhp","one_one","1","direct_first","1","ER05IN24","0","20","1","1","3","2","","0","1","0","799.7699999832548","","","<img src = 'targets/mask.png' width = '100%;'>","68","pos","GS","GSnew","1","category1/GS2.png","","targets/14.png","indirect","0","19"
"","html-keyboard-response","204","759125","0.0-12.0-0.4","sg33rsrnhp","one_one","1","direct_first","1","ER05IN24","0","20","1","1","3","2","","0","1","0","null","","","<div style=""font-size:60px;"">+</div>","null","","","","","","","","","",""
"","html-keyboard-response","205","759217","0.0-12.0-1.4","sg33rsrnhp","one_one","1","direct_first","1","ER05IN24","0","20","1","1","3","2","","0","1","0","null","","","<img src = 'category2/GS1.png' width = '100%;'>","null","","","","","","","","","",""
"","html-keyboard-response","206","759470","0.0-12.0-2.4","sg33rsrnhp","one_one","1","direct_first","1","ER05IN24","0","20","1","1","3","2","","0","1","0","null","","","<img src = 'targets/22.png' width = '100%;'>","null","","","","","","","","","",""
"","html-keyboard-response","207","760751","0.0-12.0-3.4","sg33rsrnhp","one_one","1","direct_first","1","ER05IN24","0","20","1","1","3","2","","0","1","0","1278.9049999555573","","","<img src = 'targets/mask.png' width = '100%;'>","75","neg","GS","GSnew","2","category2/GS1.png","","targets/22.png","indirect","1","20"
"","html-keyboard-response","208","762255","0.0-12.0-0.5","sg33rsrnhp","one_one","1","direct_first","1","ER05IN24","0","20","1","1","3","2","","0","1","0","null","","","<div style=""font-size:60px;"">+</div>","null","","","","","","","","","",""
"","html-keyboard-response","209","762347","0.0-12.0-1.5","sg33rsrnhp","one_one","1","direct_first","1","ER05IN24","0","20","1","1","3","2","","0","1","0","null","","","<img src = 'category3/GS2.png' width = '100%;'>","null","","","","","","","","","",""
"","html-keyboard-response","210","762600","0.0-12.0-2.5","sg33rsrnhp","one_one","1","direct_first","1","ER05IN24","0","20","1","1","3","2","","0","1","0","null","","","<img src = 'targets/37.png' width = '100%;'>","null","","","","","","","","","",""
"","html-keyboard-response","211","763743","0.0-12.0-3.5","sg33rsrnhp","one_one","1","direct_first","1","ER05IN24","0","20","1","1","3","2","","0","1","0","1141.0449999966659","","","<img src = 'targets/mask.png' width = '100%;'>","75","neg","GS","GSnew","3","category3/GS2.png","","targets/37.png","indirect","1","21"
"","html-keyboard-response","212","765245","0.0-12.0-0.6","sg33rsrnhp","one_one","1","direct_first","1","ER05IN24","0","20","1","1","3","2","","0","1","0","null","","","<div style=""font-size:60px;"">+</div>","null","","","","","","","","","",""
"","html-keyboard-response","213","765337","0.0-12.0-1.6","sg33rsrnhp","one_one","1","direct_first","1","ER05IN24","0","20","1","1","3","2","","0","1","0","null","","","<img src = 'category2/men.png' width = '100%;'>","null","","","","","","","","","",""
"","html-keyboard-response","214","765590","0.0-12.0-2.6","sg33rsrnhp","one_one","1","direct_first","1","ER05IN24","0","20","1","1","3","2","","0","1","0","null","","","<img src = 'targets/32.png' width = '100%;'>","null","","","","","","","","","",""
"","html-keyboard-response","215","766346","0.0-12.0-3.6","sg33rsrnhp","one_one","1","direct_first","1","ER05IN24","0","20","1","1","3","2","","0","1","0","753.7350000347942","","","<img src = 'targets/mask.png' width = '100%;'>","68","neg","GS","abstract","2","category2/men.png","","targets/32.png","indirect","0","22"
"","html-keyboard-response","216","767848","0.0-12.0-0.7","sg33rsrnhp","one_one","1","direct_first","1","ER05IN24","0","20","1","1","3","2","","0","1","0","null","","","<div style=""font-size:60px;"">+</div>","null","","","","","","","","","",""
"","html-keyboard-response","217","767940","0.0-12.0-1.7","sg33rsrnhp","one_one","1","direct_first","1","ER05IN24","0","20","1","1","3","2","","0","1","0","null","","","<img src = 'category3/GS1.png' width = '100%;'>","null","","","","","","","","","",""
"","html-keyboard-response","218","768192","0.0-12.0-2.7","sg33rsrnhp","one_one","1","direct_first","1","ER05IN24","0","20","1","1","3","2","","0","1","0","null","","","<img src = 'targets/36.png' width = '100%;'>","null","","","","","","","","","",""
"","html-keyboard-response","219","768647","0.0-12.0-3.7","sg33rsrnhp","one_one","1","direct_first","1","ER05IN24","0","20","1","1","3","2","","0","1","0","453.8749999483116","","","<img src = 'targets/mask.png' width = '100%;'>","68","neg","GS","GSnew","3","category3/GS1.png","","targets/36.png","indirect","0","23"
"","html-keyboard-response","220","770150","0.0-12.0-0.8","sg33rsrnhp","one_one","1","direct_first","1","ER05IN24","0","20","1","1","3","2","","0","1","0","null","","","<div style=""font-size:60px;"">+</div>","null","","","","","","","","","",""
"","html-keyboard-response","221","770241","0.0-12.0-1.8","sg33rsrnhp","one_one","1","direct_first","1","ER05IN24","0","20","1","1","3","2","","0","1","0","null","","","<img src = 'category1/ma.png' width = '100%;'>","null","","","","","","","","","",""
"","html-keyboard-response","222","770492","0.0-12.0-2.8","sg33rsrnhp","one_one","1","direct_first","1","ER05IN24","0","20","1","1","3","2","","0","1","0","null","","","<img src = 'targets/46.png' width = '100%;'>","null","","","","","","","","","",""
"","html-keyboard-response","223","771023","0.0-12.0-3.8","sg33rsrnhp","one_one","1","direct_first","1","ER05IN24","0","20","1","1","3","2","","0","1","0","529.1449999785982","","","<img src = 'targets/mask.png' width = '100%;'>","75","pos","GS","abstract","1","category1/ma.png","","targets/46.png","indirect","1","24"
"","html-keyboard-response","224","772526","0.0-12.0-0.9","sg33rsrnhp","one_one","1","direct_first","1","ER05IN24","0","20","1","1","3","2","","0","1","0","null","","","<div style=""font-size:60px;"">+</div>","null","","","","","","","","","",""
"","html-keyboard-response","225","772618","0.0-12.0-1.9","sg33rsrnhp","one_one","1","direct_first","1","ER05IN24","0","20","1","1","3","2","","0","1","0","null","","","<img src = 'category2/GS3.png' width = '100%;'>","null","","","","","","","","","",""
"","html-keyboard-response","226","772870","0.0-12.0-2.9","sg33rsrnhp","one_one","1","direct_first","1","ER05IN24","0","20","1","1","3","2","","0","1","0","null","","","<img src = 'targets/38.png' width = '100%;'>","null","","","","","","","","","",""
"","html-keyboard-response","227","773703","0.0-12.0-3.9","sg33rsrnhp","one_one","1","direct_first","1","ER05IN24","0","20","1","1","3","2","","0","1","0","831.7350000143051","","","<img src = 'targets/mask.png' width = '100%;'>","75","neg","GS","GSnew","2","category2/GS3.png","","targets/38.png","indirect","1","25"
"","html-keyboard-response","228","775210","0.0-12.0-0.10","sg33rsrnhp","one_one","1","direct_first","1","ER05IN24","0","20","1","1","3","2","","0","1","0","null","","","<div style=""font-size:60px;"">+</div>","null","","","","","","","","","",""
"","html-keyboard-response","229","775315","0.0-12.0-1.10","sg33rsrnhp","one_one","1","direct_first","1","ER05IN24","0","20","1","1","3","2","","0","1","0","null","","","<img src = 'category4/GS1.png' width = '100%;'>","null","","","","","","","","","",""
"","html-keyboard-response","230","775568","0.0-12.0-2.10","sg33rsrnhp","one_one","1","direct_first","1","ER05IN24","0","20","1","1","3","2","","0","1","0","null","","","<img src = 'targets/19.png' width = '100%;'>","null","","","","","","","","","",""
"","html-keyboard-response","231","776529","0.0-12.0-3.10","sg33rsrnhp","one_one","1","direct_first","1","ER05IN24","0","20","1","1","3","2","","0","1","0","958.5899999947287","","","<img src = 'targets/mask.png' width = '100%;'>","68","pos","GS","GSnew","4","category4/GS1.png","","targets/19.png","indirect","0","26"
"","html-keyboard-response","232","778039","0.0-12.0-0.11","sg33rsrnhp","one_one","1","direct_first","1","ER05IN24","0","20","1","1","3","2","","0","1","0","null","","","<div style=""font-size:60px;"">+</div>","null","","","","","","","","","",""
"","html-keyboard-response","233","778131","0.0-12.0-1.11","sg33rsrnhp","one_one","1","direct_first","1","ER05IN24","0","20","1","1","3","2","","0","1","0","null","","","<img src = 'category4/GS2.png' width = '100%;'>","null","","","","","","","","","",""
"","html-keyboard-response","234","778384","0.0-12.0-2.11","sg33rsrnhp","one_one","1","direct_first","1","ER05IN24","0","20","1","1","3","2","","0","1","0","null","","","<img src = 'targets/13.png' width = '100%;'>","null","","","","","","","","","",""
"","html-keyboard-response","235","779143","0.0-12.0-3.11","sg33rsrnhp","one_one","1","direct_first","1","ER05IN24","0","20","1","1","3","2","","0","1","0","757.9799999948591","","","<img src = 'targets/mask.png' width = '100%;'>","75","pos","GS","GSnew","4","category4/GS2.png","","targets/13.png","indirect","1","27"
"","html-keyboard-response","236","780645","0.0-12.0-0.12","sg33rsrnhp","one_one","1","direct_first","1","ER05IN24","0","20","1","1","3","2","","0","1","0","null","","","<div style=""font-size:60px;"">+</div>","null","","","","","","","","","",""
"","html-keyboard-response","237","780737","0.0-12.0-1.12","sg33rsrnhp","one_one","1","direct_first","1","ER05IN24","0","20","1","1","3","2","","0","1","0","null","","","<img src = 'category3/wang.png' width = '100%;'>","null","","","","","","","","","",""
"","html-keyboard-response","238","780990","0.0-12.0-2.12","sg33rsrnhp","one_one","1","direct_first","1","ER05IN24","0","20","1","1","3","2","","0","1","0","null","","","<img src = 'targets/31.png' width = '100%;'>","null","","","","","","","","","",""
"","html-keyboard-response","239","781911","0.0-12.0-3.12","sg33rsrnhp","one_one","1","direct_first","1","ER05IN24","0","20","1","1","3","2","","0","1","0","919.6700000320561","","","<img src = 'targets/mask.png' width = '100%;'>","75","neg","GS","abstract","3","category3/wang.png","","targets/31.png","indirect","1","28"
"","html-keyboard-response","240","783414","0.0-12.0-0.13","sg33rsrnhp","one_one","1","direct_first","1","ER05IN24","0","20","1","1","3","2","","0","1","0","null","","","<div style=""font-size:60px;"">+</div>","null","","","","","","","","","",""
"","html-keyboard-response","241","783506","0.0-12.0-1.13","sg33rsrnhp","one_one","1","direct_first","1","ER05IN24","0","20","1","1","3","2","","0","1","0","null","","","<img src = 'category4/lin.png' width = '100%;'>","null","","","","","","","","","",""
"","html-keyboard-response","242","783758","0.0-12.0-2.13","sg33rsrnhp","one_one","1","direct_first","1","ER05IN24","0","20","1","1","3","2","","0","1","0","null","","","<img src = 'targets/3.png' width = '100%;'>","null","","","","","","","","","",""
"","html-keyboard-response","243","784359","0.0-12.0-3.13","sg33rsrnhp","one_one","1","direct_first","1","ER05IN24","0","20","1","1","3","2","","0","1","0","598.6150000244379","","","<img src = 'targets/mask.png' width = '100%;'>","68","pos","GS","abstract","4","category4/lin.png","","targets/3.png","indirect","0","29"
"","html-keyboard-response","244","785862","0.0-12.0-0.14","sg33rsrnhp","one_one","1","direct_first","1","ER05IN24","0","20","1","1","3","2","","0","1","0","null","","","<div style=""font-size:60px;"">+</div>","null","","","","","","","","","",""
"","html-keyboard-response","245","785954","0.0-12.0-1.14","sg33rsrnhp","one_one","1","direct_first","1","ER05IN24","0","20","1","1","3","2","","0","1","0","null","","","<img src = 'category1/GS3.png' width = '100%;'>","null","","","","","","","","","",""
"","html-keyboard-response","246","786208","0.0-12.0-2.14","sg33rsrnhp","one_one","1","direct_first","1","ER05IN24","0","20","1","1","3","2","","0","1","0","null","","","<img src = 'targets/30.png' width = '100%;'>","null","","","","","","","","","",""
"","html-keyboard-response","247","787472","0.0-12.0-3.14","sg33rsrnhp","one_one","1","direct_first","1","ER05IN24","0","20","1","1","3","2","","0","1","0","1263.0800000042655","","","<img src = 'targets/mask.png' width = '100%;'>","68","pos","GS","GSnew","1","category1/GS3.png","","targets/30.png","indirect","0","30"
"","html-keyboard-response","248","788974","0.0-12.0-0.15","sg33rsrnhp","one_one","1","direct_first","1","ER05IN24","0","20","1","1","3","2","","0","1","0","null","","","<div style=""font-size:60px;"">+</div>","null","","","","","","","","","",""
"","html-keyboard-response","249","789066","0.0-12.0-1.15","sg33rsrnhp","one_one","1","direct_first","1","ER05IN24","0","20","1","1","3","2","","0","1","0","null","","","<img src = 'category2/GS2.png' width = '100%;'>","null","","","","","","","","","",""
"","html-keyboard-response","250","789318","0.0-12.0-2.15","sg33rsrnhp","one_one","1","direct_first","1","ER05IN24","0","20","1","1","3","2","","0","1","0","null","","","<img src = 'targets/41.png' width = '100%;'>","null","","","","","","","","","",""
"","html-keyboard-response","251","790728","0.0-12.0-3.15","sg33rsrnhp","one_one","1","direct_first","1","ER05IN24","0","20","1","1","3","2","","0","1","0","1408.0900000408292","","","<img src = 'targets/mask.png' width = '100%;'>","68","neg","GS","GSnew","2","category2/GS2.png","","targets/41.png","indirect","0","31"
"","survey-html-form","252","799033","0.0-13.0","sg33rsrnhp","one_one","1","direct_first","1","ER05IN24","0","20","1","1","3","2","","0","1","0","7803.115000016987","","{}","","","","","","","","","","","",""
"","image-slider-response","253","808224","0.0-14.0-0.0","sg33rsrnhp","one_one","1","direct_first","1","ER05IN24","0","20","1","1","3","2","","0","1","0","8186.930000025313","","","","","neg","All","all","3","category3/wang_all.png","-34","","all","",""
"","image-slider-response","254","813364","0.0-14.0-0.1","sg33rsrnhp","one_one","1","direct_first","1","ER05IN24","0","20","1","1","3","2","","0","1","0","5134.655000001658","","","","","pos","All","all","1","category1/ma_all.png","-92","","all","",""
"","image-slider-response","255","816627","0.0-14.0-0.2","sg33rsrnhp","one_one","1","direct_first","1","ER05IN24","0","20","1","1","3","2","","0","1","0","3259.200000029523","","","","","neg","All","all","2","category2/men_all.png","75","","all","",""
"","image-slider-response","256","820583","0.0-14.0-0.3","sg33rsrnhp","one_one","1","direct_first","1","ER05IN24","0","20","1","1","3","2","","0","1","0","3952.8599999612197","","","","","pos","All","all","4","category4/lin_all.png","46","","all","",""
"","survey-text","257","830113","0.0-15.0","sg33rsrnhp","one_one","1","direct_first","1","ER05IN24","0","20","1","1","3","2","","0","1","0","9490.720000001602","","{""comment"":""""}","","","","","","","","","","","",""
"","survey-html-form","258","854293","0.0-16.0","sg33rsrnhp","one_one","1","direct_first","1","ER05IN24","0","20","1","1","3","2","","0","1","0","24176.26500001643","","{""hinschauen"":""0"",""ablenkung"":""1"",""gewissenhaft"":""0""}","","","","","","","","","","","",""
