"success","trial_type","trial_index","time_elapsed","internal_node_id","subject","condition","condition_code","measure","measure_code","codeword","gender","age","education","chinese","fach","handedness","comment","hinschauen","ablenkung","gewissenhaft","rt","url","responses","stimulus","key_press","val","type","type_specific","category","cs_selected","target","indirect","task","nr_pres","response"
"true","fullscreen","0","4416","0.0-0.0","03rysffm8e","many_one","0","indirect_first","0","es05ad23","0","27","1","1","3","1","","0","1","0","","","","","","","","","","","","","","",""
"","external-html","1","50888","0.0-1.0","03rysffm8e","many_one","0","indirect_first","0","es05ad23","0","27","1","1","3","1","","0","1","0","46426.46999983117","text/information.html","","","","","","","","","","","","",""
"","external-html","2","69727","0.0-2.0","03rysffm8e","many_one","0","indirect_first","0","es05ad23","0","27","1","1","3","1","","0","1","0","18756.88000023365","text/consent.html","","","","","","","","","","","","",""
"","survey-html-form","3","111547","0.0-3.0","03rysffm8e","many_one","0","indirect_first","0","es05ad23","0","27","1","1","3","1","","0","1","0","41819.219999946654","","{""codeword_enter"":""es05ad23""}","","","","","","","","","","","",""
"","survey-html-form","4","131635","0.0-4.0","03rysffm8e","many_one","0","indirect_first","0","es05ad23","0","27","1","1","3","1","","0","1","0","20084.71000008285","","{""age"":""27"",""education"":""1"",""subject"":""3"",""gender"":""0"",""handedness"":""1"",""chinese"":""1""}","","","","","","","","","","","",""
"","survey-html-form","5","140588","0.0-5.0","03rysffm8e","many_one","0","indirect_first","0","es05ad23","0","27","1","1","3","1","","0","1","0","8951.929999981076","","{}","","","","","","","","","","","",""
"","html-keyboard-response","6","144597","0.0-6.0-0.0-0.0","03rysffm8e","many_one","0","indirect_first","0","es05ad23","0","27","1","1","3","1","","0","1","0","null","","","<div class = 'row'><div class = 'column'><img src = 'category1/CS6.png' width = '70%;'></div><div class = 'column'><img src = 'uspos/1463.bmp' width = '100%;'></div></div>","null","pos","CS","CS","1","category1/CS6.png","","","","",""
"","html-keyboard-response","7","147104","0.0-6.0-0.0-0.1","03rysffm8e","many_one","0","indirect_first","0","es05ad23","0","27","1","1","3","1","","0","1","0","null","","","<div class = 'row'><div class = 'column'><img src = 'usneg/9340.bmp' width = '100%;'></div><div class = 'column'><img src = 'category4/CS1.png' width = '70%;'></div></div>","null","neg","CS","CS","4","category4/CS1.png","","","","",""
"","html-keyboard-response","8","149616","0.0-6.0-0.0-0.2","03rysffm8e","many_one","0","indirect_first","0","es05ad23","0","27","1","1","3","1","","0","1","0","null","","","<div class = 'row'><div class = 'column'><img src = 'category4/CS5.png' width = '70%;'></div><div class = 'column'><img src = 'usneg/9920.bmp' width = '100%;'></div></div>","null","neg","CS","CS","4","category4/CS5.png","","","","",""
"","html-keyboard-response","9","152128","0.0-6.0-0.0-0.3","03rysffm8e","many_one","0","indirect_first","0","es05ad23","0","27","1","1","3","1","","0","1","0","null","","","<div class = 'row'><div class = 'column'><img src = 'category3/CS5.png' width = '70%;'></div><div class = 'column'><img src = 'uspos/4625.bmp' width = '100%;'></div></div>","null","pos","CS","CS","3","category3/CS5.png","","","","",""
"","html-keyboard-response","10","154640","0.0-6.0-0.0-0.4","03rysffm8e","many_one","0","indirect_first","0","es05ad23","0","27","1","1","3","1","","0","1","0","null","","","<div class = 'row'><div class = 'column'><img src = 'category2/CS2.png' width = '70%;'></div><div class = 'column'><img src = 'usneg/7380.bmp' width = '100%;'></div></div>","null","neg","CS","CS","2","category2/CS2.png","","","","",""
"","html-keyboard-response","11","157152","0.0-6.0-0.0-0.5","03rysffm8e","many_one","0","indirect_first","0","es05ad23","0","27","1","1","3","1","","0","1","0","null","","","<div class = 'row'><div class = 'column'><img src = 'category3/CS10.png' width = '70%;'></div><div class = 'column'><img src = 'uspos/1460.bmp' width = '100%;'></div></div>","null","pos","CS","CS","3","category3/CS10.png","","","","",""
"","html-keyboard-response","12","159665","0.0-6.0-0.0-0.6","03rysffm8e","many_one","0","indirect_first","0","es05ad23","0","27","1","1","3","1","","0","1","0","null","","","<div class = 'row'><div class = 'column'><img src = 'usneg/9561.bmp' width = '100%;'></div><div class = 'column'><img src = 'category4/CS10.png' width = '70%;'></div></div>","null","neg","CS","CS","4","category4/CS10.png","","","","",""
"","html-keyboard-response","13","162176","0.0-6.0-0.0-0.7","03rysffm8e","many_one","0","indirect_first","0","es05ad23","0","27","1","1","3","1","","0","1","0","null","","","<div class = 'row'><div class = 'column'><img src = 'category2/CS1.png' width = '70%;'></div><div class = 'column'><img src = 'usneg/2750.bmp' width = '100%;'></div></div>","null","neg","CS","CS","2","category2/CS1.png","","","","",""
"","html-keyboard-response","14","164688","0.0-6.0-0.0-0.8","03rysffm8e","many_one","0","indirect_first","0","es05ad23","0","27","1","1","3","1","","0","1","0","null","","","<div class = 'row'><div class = 'column'><img src = 'category3/CS8.png' width = '70%;'></div><div class = 'column'><img src = 'uspos/2341.bmp' width = '100%;'></div></div>","null","pos","CS","CS","3","category3/CS8.png","","","","",""
"","html-keyboard-response","15","167214","0.0-6.0-0.0-0.9","03rysffm8e","many_one","0","indirect_first","0","es05ad23","0","27","1","1","3","1","","0","1","0","null","","","<div class = 'row'><div class = 'column'><img src = 'category3/CS9.png' width = '70%;'></div><div class = 'column'><img src = 'uspos/1710.bmp' width = '100%;'></div></div>","null","pos","CS","CS","3","category3/CS9.png","","","","",""
"","html-keyboard-response","16","169720","0.0-6.0-0.0-0.10","03rysffm8e","many_one","0","indirect_first","0","es05ad23","0","27","1","1","3","1","","0","1","0","null","","","<div class = 'row'><div class = 'column'><img src = 'uspos/2900.2.bmp' width = '100%;'></div><div class = 'column'><img src = 'category1/CS5.png' width = '70%;'></div></div>","null","pos","CS","CS","1","category1/CS5.png","","","","",""
"","html-keyboard-response","17","172232","0.0-6.0-0.0-0.11","03rysffm8e","many_one","0","indirect_first","0","es05ad23","0","27","1","1","3","1","","0","1","0","null","","","<div class = 'row'><div class = 'column'><img src = 'category4/CS3.png' width = '70%;'></div><div class = 'column'><img src = 'usneg/2141.bmp' width = '100%;'></div></div>","null","neg","CS","CS","4","category4/CS3.png","","","","",""
"","html-keyboard-response","18","174745","0.0-6.0-0.0-0.12","03rysffm8e","many_one","0","indirect_first","0","es05ad23","0","27","1","1","3","1","","0","1","0","null","","","<div class = 'row'><div class = 'column'><img src = 'uspos/5470.bmp' width = '100%;'></div><div class = 'column'><img src = 'category1/CS8.png' width = '70%;'></div></div>","null","pos","CS","CS","1","category1/CS8.png","","","","",""
"","html-keyboard-response","19","177256","0.0-6.0-0.0-0.13","03rysffm8e","many_one","0","indirect_first","0","es05ad23","0","27","1","1","3","1","","0","1","0","null","","","<div class = 'row'><div class = 'column'><img src = 'category3/CS6.png' width = '70%;'></div><div class = 'column'><img src = 'uspos/2160.bmp' width = '100%;'></div></div>","null","pos","CS","CS","3","category3/CS6.png","","","","",""
"","html-keyboard-response","20","179768","0.0-6.0-0.0-0.14","03rysffm8e","many_one","0","indirect_first","0","es05ad23","0","27","1","1","3","1","","0","1","0","null","","","<div class = 'row'><div class = 'column'><img src = 'category4/CS6.png' width = '70%;'></div><div class = 'column'><img src = 'usneg/9520.bmp' width = '100%;'></div></div>","null","neg","CS","CS","4","category4/CS6.png","","","","",""
"","html-keyboard-response","21","182283","0.0-6.0-0.0-0.15","03rysffm8e","many_one","0","indirect_first","0","es05ad23","0","27","1","1","3","1","","0","1","0","null","","","<div class = 'row'><div class = 'column'><img src = 'uspos/5629.bmp' width = '100%;'></div><div class = 'column'><img src = 'category1/CS9.png' width = '70%;'></div></div>","null","pos","CS","CS","1","category1/CS9.png","","","","",""
"","html-keyboard-response","22","184784","0.0-6.0-0.0-0.16","03rysffm8e","many_one","0","indirect_first","0","es05ad23","0","27","1","1","3","1","","0","1","0","null","","","<div class = 'row'><div class = 'column'><img src = 'category2/CS5.png' width = '70%;'></div><div class = 'column'><img src = 'usneg/6838.bmp' width = '100%;'></div></div>","null","neg","CS","CS","2","category2/CS5.png","","","","",""
"","html-keyboard-response","23","187300","0.0-6.0-0.0-0.17","03rysffm8e","many_one","0","indirect_first","0","es05ad23","0","27","1","1","3","1","","0","1","0","null","","","<div class = 'row'><div class = 'column'><img src = 'uspos/2040.bmp' width = '100%;'></div><div class = 'column'><img src = 'category1/CS4.png' width = '70%;'></div></div>","null","pos","CS","CS","1","category1/CS4.png","","","","",""
"","html-keyboard-response","24","189823","0.0-6.0-0.0-0.18","03rysffm8e","many_one","0","indirect_first","0","es05ad23","0","27","1","1","3","1","","0","1","0","null","","","<div class = 'row'><div class = 'column'><img src = 'usneg/6020.bmp' width = '100%;'></div><div class = 'column'><img src = 'category2/CS8.png' width = '70%;'></div></div>","null","neg","CS","CS","2","category2/CS8.png","","","","",""
"","html-keyboard-response","25","193831","0.0-6.0-0.0-0.19","03rysffm8e","many_one","0","indirect_first","0","es05ad23","0","27","1","1","3","1","","0","1","0","null","","","<div class = 'row'><div class = 'column'><img src = 'category2/CS10.png' width = '70%;'></div><div class = 'column'><img src = 'usneg/9290.bmp' width = '100%;'></div></div>","null","neg","CS","CS","2","category2/CS10.png","","","","",""
"","survey-html-form","26","209158","0.0-6.0-1.0","03rysffm8e","many_one","0","indirect_first","0","es05ad23","0","27","1","1","3","1","","0","1","0","14338.800000026822","","{}","","","","","","","","","","","",""
"","html-keyboard-response","27","213169","0.0-6.0-2.0-0.0","03rysffm8e","many_one","0","indirect_first","0","es05ad23","0","27","1","1","3","1","","0","1","0","null","","","<div class = 'row'><div class = 'column'><img src = 'category1/CS9.png' width = '70%;'></div><div class = 'column'><img src = 'uspos/5629.bmp' width = '100%;'></div></div>","null","pos","CS","CS","1","category1/CS9.png","","","","",""
"","html-keyboard-response","28","215683","0.0-6.0-2.0-0.1","03rysffm8e","many_one","0","indirect_first","0","es05ad23","0","27","1","1","3","1","","0","1","0","null","","","<div class = 'row'><div class = 'column'><img src = 'uspos/5470.bmp' width = '100%;'></div><div class = 'column'><img src = 'category1/CS8.png' width = '70%;'></div></div>","null","pos","CS","CS","1","category1/CS8.png","","","","",""
"","html-keyboard-response","29","218192","0.0-6.0-2.0-0.2","03rysffm8e","many_one","0","indirect_first","0","es05ad23","0","27","1","1","3","1","","0","1","0","null","","","<div class = 'row'><div class = 'column'><img src = 'usneg/7380.bmp' width = '100%;'></div><div class = 'column'><img src = 'category2/CS2.png' width = '70%;'></div></div>","null","neg","CS","CS","2","category2/CS2.png","","","","",""
"","html-keyboard-response","30","220704","0.0-6.0-2.0-0.3","03rysffm8e","many_one","0","indirect_first","0","es05ad23","0","27","1","1","3","1","","0","1","0","null","","","<div class = 'row'><div class = 'column'><img src = 'category2/CS5.png' width = '70%;'></div><div class = 'column'><img src = 'usneg/6838.bmp' width = '100%;'></div></div>","null","neg","CS","CS","2","category2/CS5.png","","","","",""
"","html-keyboard-response","31","223217","0.0-6.0-2.0-0.4","03rysffm8e","many_one","0","indirect_first","0","es05ad23","0","27","1","1","3","1","","0","1","0","null","","","<div class = 'row'><div class = 'column'><img src = 'uspos/1460.bmp' width = '100%;'></div><div class = 'column'><img src = 'category3/CS10.png' width = '70%;'></div></div>","null","pos","CS","CS","3","category3/CS10.png","","","","",""
"","html-keyboard-response","32","225727","0.0-6.0-2.0-0.5","03rysffm8e","many_one","0","indirect_first","0","es05ad23","0","27","1","1","3","1","","0","1","0","null","","","<div class = 'row'><div class = 'column'><img src = 'category1/CS4.png' width = '70%;'></div><div class = 'column'><img src = 'uspos/2040.bmp' width = '100%;'></div></div>","null","pos","CS","CS","1","category1/CS4.png","","","","",""
"","html-keyboard-response","33","228240","0.0-6.0-2.0-0.6","03rysffm8e","many_one","0","indirect_first","0","es05ad23","0","27","1","1","3","1","","0","1","0","null","","","<div class = 'row'><div class = 'column'><img src = 'category3/CS9.png' width = '70%;'></div><div class = 'column'><img src = 'uspos/1710.bmp' width = '100%;'></div></div>","null","pos","CS","CS","3","category3/CS9.png","","","","",""
"","html-keyboard-response","34","230767","0.0-6.0-2.0-0.7","03rysffm8e","many_one","0","indirect_first","0","es05ad23","0","27","1","1","3","1","","0","1","0","null","","","<div class = 'row'><div class = 'column'><img src = 'usneg/9520.bmp' width = '100%;'></div><div class = 'column'><img src = 'category4/CS6.png' width = '70%;'></div></div>","null","neg","CS","CS","4","category4/CS6.png","","","","",""
"","html-keyboard-response","35","233278","0.0-6.0-2.0-0.8","03rysffm8e","many_one","0","indirect_first","0","es05ad23","0","27","1","1","3","1","","0","1","0","null","","","<div class = 'row'><div class = 'column'><img src = 'category3/CS6.png' width = '70%;'></div><div class = 'column'><img src = 'uspos/2160.bmp' width = '100%;'></div></div>","null","pos","CS","CS","3","category3/CS6.png","","","","",""
"","html-keyboard-response","36","235792","0.0-6.0-2.0-0.9","03rysffm8e","many_one","0","indirect_first","0","es05ad23","0","27","1","1","3","1","","0","1","0","null","","","<div class = 'row'><div class = 'column'><img src = 'category1/CS6.png' width = '70%;'></div><div class = 'column'><img src = 'uspos/1463.bmp' width = '100%;'></div></div>","null","pos","CS","CS","1","category1/CS6.png","","","","",""
"","html-keyboard-response","37","238304","0.0-6.0-2.0-0.10","03rysffm8e","many_one","0","indirect_first","0","es05ad23","0","27","1","1","3","1","","0","1","0","null","","","<div class = 'row'><div class = 'column'><img src = 'usneg/2750.bmp' width = '100%;'></div><div class = 'column'><img src = 'category2/CS1.png' width = '70%;'></div></div>","null","neg","CS","CS","2","category2/CS1.png","","","","",""
"","html-keyboard-response","38","240818","0.0-6.0-2.0-0.11","03rysffm8e","many_one","0","indirect_first","0","es05ad23","0","27","1","1","3","1","","0","1","0","null","","","<div class = 'row'><div class = 'column'><img src = 'usneg/9290.bmp' width = '100%;'></div><div class = 'column'><img src = 'category2/CS10.png' width = '70%;'></div></div>","null","neg","CS","CS","2","category2/CS10.png","","","","",""
"","html-keyboard-response","39","243328","0.0-6.0-2.0-0.12","03rysffm8e","many_one","0","indirect_first","0","es05ad23","0","27","1","1","3","1","","0","1","0","null","","","<div class = 'row'><div class = 'column'><img src = 'usneg/6020.bmp' width = '100%;'></div><div class = 'column'><img src = 'category2/CS8.png' width = '70%;'></div></div>","null","neg","CS","CS","2","category2/CS8.png","","","","",""
"","html-keyboard-response","40","245839","0.0-6.0-2.0-0.13","03rysffm8e","many_one","0","indirect_first","0","es05ad23","0","27","1","1","3","1","","0","1","0","null","","","<div class = 'row'><div class = 'column'><img src = 'category1/CS5.png' width = '70%;'></div><div class = 'column'><img src = 'uspos/2900.2.bmp' width = '100%;'></div></div>","null","pos","CS","CS","1","category1/CS5.png","","","","",""
"","html-keyboard-response","41","248367","0.0-6.0-2.0-0.14","03rysffm8e","many_one","0","indirect_first","0","es05ad23","0","27","1","1","3","1","","0","1","0","null","","","<div class = 'row'><div class = 'column'><img src = 'uspos/4625.bmp' width = '100%;'></div><div class = 'column'><img src = 'category3/CS5.png' width = '70%;'></div></div>","null","pos","CS","CS","3","category3/CS5.png","","","","",""
"","html-keyboard-response","42","250880","0.0-6.0-2.0-0.15","03rysffm8e","many_one","0","indirect_first","0","es05ad23","0","27","1","1","3","1","","0","1","0","null","","","<div class = 'row'><div class = 'column'><img src = 'category4/CS10.png' width = '70%;'></div><div class = 'column'><img src = 'usneg/9561.bmp' width = '100%;'></div></div>","null","neg","CS","CS","4","category4/CS10.png","","","","",""
"","html-keyboard-response","43","253388","0.0-6.0-2.0-0.16","03rysffm8e","many_one","0","indirect_first","0","es05ad23","0","27","1","1","3","1","","0","1","0","null","","","<div class = 'row'><div class = 'column'><img src = 'category4/CS5.png' width = '70%;'></div><div class = 'column'><img src = 'usneg/9920.bmp' width = '100%;'></div></div>","null","neg","CS","CS","4","category4/CS5.png","","","","",""
"","html-keyboard-response","44","255903","0.0-6.0-2.0-0.17","03rysffm8e","many_one","0","indirect_first","0","es05ad23","0","27","1","1","3","1","","0","1","0","null","","","<div class = 'row'><div class = 'column'><img src = 'usneg/9340.bmp' width = '100%;'></div><div class = 'column'><img src = 'category4/CS1.png' width = '70%;'></div></div>","null","neg","CS","CS","4","category4/CS1.png","","","","",""
"","html-keyboard-response","45","258419","0.0-6.0-2.0-0.18","03rysffm8e","many_one","0","indirect_first","0","es05ad23","0","27","1","1","3","1","","0","1","0","null","","","<div class = 'row'><div class = 'column'><img src = 'uspos/2341.bmp' width = '100%;'></div><div class = 'column'><img src = 'category3/CS8.png' width = '70%;'></div></div>","null","pos","CS","CS","3","category3/CS8.png","","","","",""
"","html-keyboard-response","46","260935","0.0-6.0-2.0-0.19","03rysffm8e","many_one","0","indirect_first","0","es05ad23","0","27","1","1","3","1","","0","1","0","null","","","<div class = 'row'><div class = 'column'><img src = 'category4/CS3.png' width = '70%;'></div><div class = 'column'><img src = 'usneg/2141.bmp' width = '100%;'></div></div>","null","neg","CS","CS","4","category4/CS3.png","","","","",""
"","survey-html-form","47","263505","0.0-6.0-3.0","03rysffm8e","many_one","0","indirect_first","0","es05ad23","0","27","1","1","3","1","","0","1","0","2068.3549996465445","","{}","","","","","","","","","","","",""
"","html-keyboard-response","48","267520","0.0-6.0-4.0-0.0","03rysffm8e","many_one","0","indirect_first","0","es05ad23","0","27","1","1","3","1","","0","1","0","null","","","<div class = 'row'><div class = 'column'><img src = 'category2/CS2.png' width = '70%;'></div><div class = 'column'><img src = 'usneg/7380.bmp' width = '100%;'></div></div>","null","neg","CS","CS","2","category2/CS2.png","","","","",""
"","html-keyboard-response","49","270023","0.0-6.0-4.0-0.1","03rysffm8e","many_one","0","indirect_first","0","es05ad23","0","27","1","1","3","1","","0","1","0","null","","","<div class = 'row'><div class = 'column'><img src = 'category1/CS5.png' width = '70%;'></div><div class = 'column'><img src = 'uspos/2900.2.bmp' width = '100%;'></div></div>","null","pos","CS","CS","1","category1/CS5.png","","","","",""
"","html-keyboard-response","50","272536","0.0-6.0-4.0-0.2","03rysffm8e","many_one","0","indirect_first","0","es05ad23","0","27","1","1","3","1","","0","1","0","null","","","<div class = 'row'><div class = 'column'><img src = 'category1/CS9.png' width = '70%;'></div><div class = 'column'><img src = 'uspos/5629.bmp' width = '100%;'></div></div>","null","pos","CS","CS","1","category1/CS9.png","","","","",""
"","html-keyboard-response","51","275046","0.0-6.0-4.0-0.3","03rysffm8e","many_one","0","indirect_first","0","es05ad23","0","27","1","1","3","1","","0","1","0","null","","","<div class = 'row'><div class = 'column'><img src = 'usneg/6020.bmp' width = '100%;'></div><div class = 'column'><img src = 'category2/CS8.png' width = '70%;'></div></div>","null","neg","CS","CS","2","category2/CS8.png","","","","",""
"","html-keyboard-response","52","277559","0.0-6.0-4.0-0.4","03rysffm8e","many_one","0","indirect_first","0","es05ad23","0","27","1","1","3","1","","0","1","0","null","","","<div class = 'row'><div class = 'column'><img src = 'category3/CS9.png' width = '70%;'></div><div class = 'column'><img src = 'uspos/1710.bmp' width = '100%;'></div></div>","null","pos","CS","CS","3","category3/CS9.png","","","","",""
"","html-keyboard-response","53","280086","0.0-6.0-4.0-0.5","03rysffm8e","many_one","0","indirect_first","0","es05ad23","0","27","1","1","3","1","","0","1","0","null","","","<div class = 'row'><div class = 'column'><img src = 'usneg/9561.bmp' width = '100%;'></div><div class = 'column'><img src = 'category4/CS10.png' width = '70%;'></div></div>","null","neg","CS","CS","4","category4/CS10.png","","","","",""
"","html-keyboard-response","54","282598","0.0-6.0-4.0-0.6","03rysffm8e","many_one","0","indirect_first","0","es05ad23","0","27","1","1","3","1","","0","1","0","null","","","<div class = 'row'><div class = 'column'><img src = 'category1/CS6.png' width = '70%;'></div><div class = 'column'><img src = 'uspos/1463.bmp' width = '100%;'></div></div>","null","pos","CS","CS","1","category1/CS6.png","","","","",""
"","html-keyboard-response","55","285111","0.0-6.0-4.0-0.7","03rysffm8e","many_one","0","indirect_first","0","es05ad23","0","27","1","1","3","1","","0","1","0","null","","","<div class = 'row'><div class = 'column'><img src = 'usneg/2750.bmp' width = '100%;'></div><div class = 'column'><img src = 'category2/CS1.png' width = '70%;'></div></div>","null","neg","CS","CS","2","category2/CS1.png","","","","",""
"","html-keyboard-response","56","287622","0.0-6.0-4.0-0.8","03rysffm8e","many_one","0","indirect_first","0","es05ad23","0","27","1","1","3","1","","0","1","0","null","","","<div class = 'row'><div class = 'column'><img src = 'usneg/9340.bmp' width = '100%;'></div><div class = 'column'><img src = 'category4/CS1.png' width = '70%;'></div></div>","null","neg","CS","CS","4","category4/CS1.png","","","","",""
"","html-keyboard-response","57","290137","0.0-6.0-4.0-0.9","03rysffm8e","many_one","0","indirect_first","0","es05ad23","0","27","1","1","3","1","","0","1","0","null","","","<div class = 'row'><div class = 'column'><img src = 'usneg/9920.bmp' width = '100%;'></div><div class = 'column'><img src = 'category4/CS5.png' width = '70%;'></div></div>","null","neg","CS","CS","4","category4/CS5.png","","","","",""
"","html-keyboard-response","58","292654","0.0-6.0-4.0-0.10","03rysffm8e","many_one","0","indirect_first","0","es05ad23","0","27","1","1","3","1","","0","1","0","null","","","<div class = 'row'><div class = 'column'><img src = 'category3/CS8.png' width = '70%;'></div><div class = 'column'><img src = 'uspos/2341.bmp' width = '100%;'></div></div>","null","pos","CS","CS","3","category3/CS8.png","","","","",""
"","html-keyboard-response","59","295171","0.0-6.0-4.0-0.11","03rysffm8e","many_one","0","indirect_first","0","es05ad23","0","27","1","1","3","1","","0","1","0","null","","","<div class = 'row'><div class = 'column'><img src = 'category2/CS10.png' width = '70%;'></div><div class = 'column'><img src = 'usneg/9290.bmp' width = '100%;'></div></div>","null","neg","CS","CS","2","category2/CS10.png","","","","",""
"","html-keyboard-response","60","297671","0.0-6.0-4.0-0.12","03rysffm8e","many_one","0","indirect_first","0","es05ad23","0","27","1","1","3","1","","0","1","0","null","","","<div class = 'row'><div class = 'column'><img src = 'category1/CS8.png' width = '70%;'></div><div class = 'column'><img src = 'uspos/5470.bmp' width = '100%;'></div></div>","null","pos","CS","CS","1","category1/CS8.png","","","","",""
"","html-keyboard-response","61","300187","0.0-6.0-4.0-0.13","03rysffm8e","many_one","0","indirect_first","0","es05ad23","0","27","1","1","3","1","","0","1","0","null","","","<div class = 'row'><div class = 'column'><img src = 'category3/CS5.png' width = '70%;'></div><div class = 'column'><img src = 'uspos/4625.bmp' width = '100%;'></div></div>","null","pos","CS","CS","3","category3/CS5.png","","","","",""
"","html-keyboard-response","62","302703","0.0-6.0-4.0-0.14","03rysffm8e","many_one","0","indirect_first","0","es05ad23","0","27","1","1","3","1","","0","1","0","null","","","<div class = 'row'><div class = 'column'><img src = 'category4/CS3.png' width = '70%;'></div><div class = 'column'><img src = 'usneg/2141.bmp' width = '100%;'></div></div>","null","neg","CS","CS","4","category4/CS3.png","","","","",""
"","html-keyboard-response","63","305206","0.0-6.0-4.0-0.15","03rysffm8e","many_one","0","indirect_first","0","es05ad23","0","27","1","1","3","1","","0","1","0","null","","","<div class = 'row'><div class = 'column'><img src = 'usneg/9520.bmp' width = '100%;'></div><div class = 'column'><img src = 'category4/CS6.png' width = '70%;'></div></div>","null","neg","CS","CS","4","category4/CS6.png","","","","",""
"","html-keyboard-response","64","307720","0.0-6.0-4.0-0.16","03rysffm8e","many_one","0","indirect_first","0","es05ad23","0","27","1","1","3","1","","0","1","0","null","","","<div class = 'row'><div class = 'column'><img src = 'uspos/1460.bmp' width = '100%;'></div><div class = 'column'><img src = 'category3/CS10.png' width = '70%;'></div></div>","null","pos","CS","CS","3","category3/CS10.png","","","","",""
"","html-keyboard-response","65","310230","0.0-6.0-4.0-0.17","03rysffm8e","many_one","0","indirect_first","0","es05ad23","0","27","1","1","3","1","","0","1","0","null","","","<div class = 'row'><div class = 'column'><img src = 'uspos/2040.bmp' width = '100%;'></div><div class = 'column'><img src = 'category1/CS4.png' width = '70%;'></div></div>","null","pos","CS","CS","1","category1/CS4.png","","","","",""
"","html-keyboard-response","66","312742","0.0-6.0-4.0-0.18","03rysffm8e","many_one","0","indirect_first","0","es05ad23","0","27","1","1","3","1","","0","1","0","null","","","<div class = 'row'><div class = 'column'><img src = 'category2/CS5.png' width = '70%;'></div><div class = 'column'><img src = 'usneg/6838.bmp' width = '100%;'></div></div>","null","neg","CS","CS","2","category2/CS5.png","","","","",""
"","html-keyboard-response","67","315269","0.0-6.0-4.0-0.19","03rysffm8e","many_one","0","indirect_first","0","es05ad23","0","27","1","1","3","1","","0","1","0","null","","","<div class = 'row'><div class = 'column'><img src = 'category3/CS6.png' width = '70%;'></div><div class = 'column'><img src = 'uspos/2160.bmp' width = '100%;'></div></div>","null","pos","CS","CS","3","category3/CS6.png","","","","",""
"","survey-html-form","68","317256","0.0-6.0-5.0","03rysffm8e","many_one","0","indirect_first","0","es05ad23","0","27","1","1","3","1","","0","1","0","1484.1700000688434","","{}","","","","","","","","","","","",""
"","html-keyboard-response","69","321285","0.0-6.0-6.0-0.0","03rysffm8e","many_one","0","indirect_first","0","es05ad23","0","27","1","1","3","1","","0","1","0","null","","","<div class = 'row'><div class = 'column'><img src = 'category2/CS5.png' width = '70%;'></div><div class = 'column'><img src = 'usneg/6838.bmp' width = '100%;'></div></div>","null","neg","CS","CS","2","category2/CS5.png","","","","",""
"","html-keyboard-response","70","323798","0.0-6.0-6.0-0.1","03rysffm8e","many_one","0","indirect_first","0","es05ad23","0","27","1","1","3","1","","0","1","0","null","","","<div class = 'row'><div class = 'column'><img src = 'uspos/1710.bmp' width = '100%;'></div><div class = 'column'><img src = 'category3/CS9.png' width = '70%;'></div></div>","null","pos","CS","CS","3","category3/CS9.png","","","","",""
"","html-keyboard-response","71","326310","0.0-6.0-6.0-0.2","03rysffm8e","many_one","0","indirect_first","0","es05ad23","0","27","1","1","3","1","","0","1","0","null","","","<div class = 'row'><div class = 'column'><img src = 'category3/CS5.png' width = '70%;'></div><div class = 'column'><img src = 'uspos/4625.bmp' width = '100%;'></div></div>","null","pos","CS","CS","3","category3/CS5.png","","","","",""
"","html-keyboard-response","72","328836","0.0-6.0-6.0-0.3","03rysffm8e","many_one","0","indirect_first","0","es05ad23","0","27","1","1","3","1","","0","1","0","null","","","<div class = 'row'><div class = 'column'><img src = 'category2/CS10.png' width = '70%;'></div><div class = 'column'><img src = 'usneg/9290.bmp' width = '100%;'></div></div>","null","neg","CS","CS","2","category2/CS10.png","","","","",""
"","html-keyboard-response","73","331350","0.0-6.0-6.0-0.4","03rysffm8e","many_one","0","indirect_first","0","es05ad23","0","27","1","1","3","1","","0","1","0","null","","","<div class = 'row'><div class = 'column'><img src = 'category3/CS8.png' width = '70%;'></div><div class = 'column'><img src = 'uspos/2341.bmp' width = '100%;'></div></div>","null","pos","CS","CS","3","category3/CS8.png","","","","",""
"","html-keyboard-response","74","333862","0.0-6.0-6.0-0.5","03rysffm8e","many_one","0","indirect_first","0","es05ad23","0","27","1","1","3","1","","0","1","0","null","","","<div class = 'row'><div class = 'column'><img src = 'uspos/5470.bmp' width = '100%;'></div><div class = 'column'><img src = 'category1/CS8.png' width = '70%;'></div></div>","null","pos","CS","CS","1","category1/CS8.png","","","","",""
"","html-keyboard-response","75","336374","0.0-6.0-6.0-0.6","03rysffm8e","many_one","0","indirect_first","0","es05ad23","0","27","1","1","3","1","","0","1","0","null","","","<div class = 'row'><div class = 'column'><img src = 'category3/CS10.png' width = '70%;'></div><div class = 'column'><img src = 'uspos/1460.bmp' width = '100%;'></div></div>","null","pos","CS","CS","3","category3/CS10.png","","","","",""
"","html-keyboard-response","76","338888","0.0-6.0-6.0-0.7","03rysffm8e","many_one","0","indirect_first","0","es05ad23","0","27","1","1","3","1","","0","1","0","null","","","<div class = 'row'><div class = 'column'><img src = 'category4/CS10.png' width = '70%;'></div><div class = 'column'><img src = 'usneg/9561.bmp' width = '100%;'></div></div>","null","neg","CS","CS","4","category4/CS10.png","","","","",""
"","html-keyboard-response","77","341397","0.0-6.0-6.0-0.8","03rysffm8e","many_one","0","indirect_first","0","es05ad23","0","27","1","1","3","1","","0","1","0","null","","","<div class = 'row'><div class = 'column'><img src = 'uspos/2900.2.bmp' width = '100%;'></div><div class = 'column'><img src = 'category1/CS5.png' width = '70%;'></div></div>","null","pos","CS","CS","1","category1/CS5.png","","","","",""
"","html-keyboard-response","78","343910","0.0-6.0-6.0-0.9","03rysffm8e","many_one","0","indirect_first","0","es05ad23","0","27","1","1","3","1","","0","1","0","null","","","<div class = 'row'><div class = 'column'><img src = 'category4/CS1.png' width = '70%;'></div><div class = 'column'><img src = 'usneg/9340.bmp' width = '100%;'></div></div>","null","neg","CS","CS","4","category4/CS1.png","","","","",""
"","html-keyboard-response","79","346422","0.0-6.0-6.0-0.10","03rysffm8e","many_one","0","indirect_first","0","es05ad23","0","27","1","1","3","1","","0","1","0","null","","","<div class = 'row'><div class = 'column'><img src = 'usneg/2750.bmp' width = '100%;'></div><div class = 'column'><img src = 'category2/CS1.png' width = '70%;'></div></div>","null","neg","CS","CS","2","category2/CS1.png","","","","",""
"","html-keyboard-response","80","348933","0.0-6.0-6.0-0.11","03rysffm8e","many_one","0","indirect_first","0","es05ad23","0","27","1","1","3","1","","0","1","0","null","","","<div class = 'row'><div class = 'column'><img src = 'category1/CS6.png' width = '70%;'></div><div class = 'column'><img src = 'uspos/1463.bmp' width = '100%;'></div></div>","null","pos","CS","CS","1","category1/CS6.png","","","","",""
"","html-keyboard-response","81","351455","0.0-6.0-6.0-0.12","03rysffm8e","many_one","0","indirect_first","0","es05ad23","0","27","1","1","3","1","","0","1","0","null","","","<div class = 'row'><div class = 'column'><img src = 'usneg/9520.bmp' width = '100%;'></div><div class = 'column'><img src = 'category4/CS6.png' width = '70%;'></div></div>","null","neg","CS","CS","4","category4/CS6.png","","","","",""
"","html-keyboard-response","82","353966","0.0-6.0-6.0-0.13","03rysffm8e","many_one","0","indirect_first","0","es05ad23","0","27","1","1","3","1","","0","1","0","null","","","<div class = 'row'><div class = 'column'><img src = 'category4/CS3.png' width = '70%;'></div><div class = 'column'><img src = 'usneg/2141.bmp' width = '100%;'></div></div>","null","neg","CS","CS","4","category4/CS3.png","","","","",""
"","html-keyboard-response","83","356478","0.0-6.0-6.0-0.14","03rysffm8e","many_one","0","indirect_first","0","es05ad23","0","27","1","1","3","1","","0","1","0","null","","","<div class = 'row'><div class = 'column'><img src = 'uspos/2040.bmp' width = '100%;'></div><div class = 'column'><img src = 'category1/CS4.png' width = '70%;'></div></div>","null","pos","CS","CS","1","category1/CS4.png","","","","",""
"","html-keyboard-response","84","359006","0.0-6.0-6.0-0.15","03rysffm8e","many_one","0","indirect_first","0","es05ad23","0","27","1","1","3","1","","0","1","0","null","","","<div class = 'row'><div class = 'column'><img src = 'category4/CS5.png' width = '70%;'></div><div class = 'column'><img src = 'usneg/9920.bmp' width = '100%;'></div></div>","null","neg","CS","CS","4","category4/CS5.png","","","","",""
"","html-keyboard-response","85","361524","0.0-6.0-6.0-0.16","03rysffm8e","many_one","0","indirect_first","0","es05ad23","0","27","1","1","3","1","","0","1","0","null","","","<div class = 'row'><div class = 'column'><img src = 'usneg/6020.bmp' width = '100%;'></div><div class = 'column'><img src = 'category2/CS8.png' width = '70%;'></div></div>","null","neg","CS","CS","2","category2/CS8.png","","","","",""
"","html-keyboard-response","86","364031","0.0-6.0-6.0-0.17","03rysffm8e","many_one","0","indirect_first","0","es05ad23","0","27","1","1","3","1","","0","1","0","null","","","<div class = 'row'><div class = 'column'><img src = 'category2/CS2.png' width = '70%;'></div><div class = 'column'><img src = 'usneg/7380.bmp' width = '100%;'></div></div>","null","neg","CS","CS","2","category2/CS2.png","","","","",""
"","html-keyboard-response","87","366542","0.0-6.0-6.0-0.18","03rysffm8e","many_one","0","indirect_first","0","es05ad23","0","27","1","1","3","1","","0","1","0","null","","","<div class = 'row'><div class = 'column'><img src = 'uspos/5629.bmp' width = '100%;'></div><div class = 'column'><img src = 'category1/CS9.png' width = '70%;'></div></div>","null","pos","CS","CS","1","category1/CS9.png","","","","",""
"","html-keyboard-response","88","369058","0.0-6.0-6.0-0.19","03rysffm8e","many_one","0","indirect_first","0","es05ad23","0","27","1","1","3","1","","0","1","0","null","","","<div class = 'row'><div class = 'column'><img src = 'category3/CS6.png' width = '70%;'></div><div class = 'column'><img src = 'uspos/2160.bmp' width = '100%;'></div></div>","null","pos","CS","CS","3","category3/CS6.png","","","","",""
"","html-keyboard-response","89","390693","0.0-7.0","03rysffm8e","many_one","0","indirect_first","0","es05ad23","0","27","1","1","3","1","","0","1","0","21125.54999999702","","","<p>Sie sehen nun die chinesischen Zeichen nur ganz kurz. Danach sehen Sie die jeweilige Aussprache der Zeichen als Silbe auf dem Bildschrim. Ihre Aufgabe ist es, für jede Silbe anzugeben, ob diese etwas angenehmes, oder unangenehmes bedeuten könnte. Verlassen Sie sich hier vor allem auf Ihre Intuition.<br><br>Die Zeichen werden nur zur Orientierung dargestellt, beachten Sie sie deshalb nicht. Konzentrieren Sie sich vor allem auf die Silben. <br>Reagieren Sie mit folgenden zwei Tasten: <br><br><b>'D' </b> wenn die Silbe etwas <b>unangenehmes</b> bedeuten könnte. <br><b>'K'</b> wenn die Silbe etwas <b>angenehmes</b> bedeuten könnte. <br><br>Bitte legen Sie nun den Zeigefinger der linken Hand auf die Taste 'D' und den Zeigefinger der rechten Hand auf die Taste 'K'. <br>Reagieren Sie auf jede Silbe so schnell wie möglich. Uns interessiert Ihre spontane Reaktion. <br> <br> <br>Drücken Sie 'D' oder 'K', um die nächste Aufgabe zu starten. </p>","75","","","","","","","","","",""
"","html-keyboard-response","90","393709","0.0-8.0-0.0","03rysffm8e","many_one","0","indirect_first","0","es05ad23","0","27","1","1","3","1","","0","1","0","null","","","<div style=""font-size:60px;"">+</div>","null","","","","","","","","","",""
"","html-keyboard-response","91","393806","0.0-8.0-1.0","03rysffm8e","many_one","0","indirect_first","0","es05ad23","0","27","1","1","3","1","","0","1","0","null","","","<img src = 'category4/CS6.png' width = '100%;'>","null","","","","","","","","","",""
"","html-keyboard-response","92","394063","0.0-8.0-2.0","03rysffm8e","many_one","0","indirect_first","0","es05ad23","0","27","1","1","3","1","","0","1","0","null","","","<img src = 'targets/16.png' width = '100%;'>","null","","","","","","","","","",""
"","html-keyboard-response","93","397442","0.0-8.0-3.0","03rysffm8e","many_one","0","indirect_first","0","es05ad23","0","27","1","1","3","1","","0","1","0","3378.2450002618134","","","<img src = 'targets/mask.png' width = '100%;'>","68","neg","CS","CS","4","category4/CS6.png","targets/16.png","0","indirect","0",""
"","html-keyboard-response","94","398959","0.0-8.0-0.1","03rysffm8e","many_one","0","indirect_first","0","es05ad23","0","27","1","1","3","1","","0","1","0","null","","","<div style=""font-size:60px;"">+</div>","null","","","","","","","","","",""
"","html-keyboard-response","95","399055","0.0-8.0-1.1","03rysffm8e","many_one","0","indirect_first","0","es05ad23","0","27","1","1","3","1","","0","1","0","null","","","<img src = 'category2/CS4.png' width = '100%;'>","null","","","","","","","","","",""
"","html-keyboard-response","96","399309","0.0-8.0-2.1","03rysffm8e","many_one","0","indirect_first","0","es05ad23","0","27","1","1","3","1","","0","1","0","null","","","<img src = 'targets/37.png' width = '100%;'>","null","","","","","","","","","",""
"","html-keyboard-response","97","401101","0.0-8.0-3.1","03rysffm8e","many_one","0","indirect_first","0","es05ad23","0","27","1","1","3","1","","0","1","0","1791.5500001981854","","","<img src = 'targets/mask.png' width = '100%;'>","75","neg","GS","GSold","2","category2/CS4.png","targets/37.png","1","indirect","1",""
"","html-keyboard-response","98","402609","0.0-8.0-0.2","03rysffm8e","many_one","0","indirect_first","0","es05ad23","0","27","1","1","3","1","","0","1","0","null","","","<div style=""font-size:60px;"">+</div>","null","","","","","","","","","",""
"","html-keyboard-response","99","402703","0.0-8.0-1.2","03rysffm8e","many_one","0","indirect_first","0","es05ad23","0","27","1","1","3","1","","0","1","0","null","","","<img src = 'category3/CS9.png' width = '100%;'>","null","","","","","","","","","",""
"","html-keyboard-response","100","402958","0.0-8.0-2.2","03rysffm8e","many_one","0","indirect_first","0","es05ad23","0","27","1","1","3","1","","0","1","0","null","","","<img src = 'targets/26.png' width = '100%;'>","null","","","","","","","","","",""
"","html-keyboard-response","101","404481","0.0-8.0-3.2","03rysffm8e","many_one","0","indirect_first","0","es05ad23","0","27","1","1","3","1","","0","1","0","1521.990000270307","","","<img src = 'targets/mask.png' width = '100%;'>","75","pos","CS","CS","3","category3/CS9.png","targets/26.png","1","indirect","2",""
"","html-keyboard-response","102","405992","0.0-8.0-0.3","03rysffm8e","many_one","0","indirect_first","0","es05ad23","0","27","1","1","3","1","","0","1","0","null","","","<div style=""font-size:60px;"">+</div>","null","","","","","","","","","",""
"","html-keyboard-response","103","406093","0.0-8.0-1.3","03rysffm8e","many_one","0","indirect_first","0","es05ad23","0","27","1","1","3","1","","0","1","0","null","","","<img src = 'category3/CS5.png' width = '100%;'>","null","","","","","","","","","",""
"","html-keyboard-response","104","406351","0.0-8.0-2.3","03rysffm8e","many_one","0","indirect_first","0","es05ad23","0","27","1","1","3","1","","0","1","0","null","","","<img src = 'targets/45.png' width = '100%;'>","null","","","","","","","","","",""
"","html-keyboard-response","105","406808","0.0-8.0-3.3","03rysffm8e","many_one","0","indirect_first","0","es05ad23","0","27","1","1","3","1","","0","1","0","456.27500023692846","","","<img src = 'targets/mask.png' width = '100%;'>","68","pos","CS","CS","3","category3/CS5.png","targets/45.png","0","indirect","3",""
"","html-keyboard-response","106","408319","0.0-8.0-0.4","03rysffm8e","many_one","0","indirect_first","0","es05ad23","0","27","1","1","3","1","","0","1","0","null","","","<div style=""font-size:60px;"">+</div>","null","","","","","","","","","",""
"","html-keyboard-response","107","408415","0.0-8.0-1.4","03rysffm8e","many_one","0","indirect_first","0","es05ad23","0","27","1","1","3","1","","0","1","0","null","","","<img src = 'category2/CS8.png' width = '100%;'>","null","","","","","","","","","",""
"","html-keyboard-response","108","408671","0.0-8.0-2.4","03rysffm8e","many_one","0","indirect_first","0","es05ad23","0","27","1","1","3","1","","0","1","0","null","","","<img src = 'targets/24.png' width = '100%;'>","null","","","","","","","","","",""
"","html-keyboard-response","109","409570","0.0-8.0-3.4","03rysffm8e","many_one","0","indirect_first","0","es05ad23","0","27","1","1","3","1","","0","1","0","898.0100001208484","","","<img src = 'targets/mask.png' width = '100%;'>","68","neg","CS","CS","2","category2/CS8.png","targets/24.png","0","indirect","4",""
"","html-keyboard-response","110","411087","0.0-8.0-0.5","03rysffm8e","many_one","0","indirect_first","0","es05ad23","0","27","1","1","3","1","","0","1","0","null","","","<div style=""font-size:60px;"">+</div>","null","","","","","","","","","",""
"","html-keyboard-response","111","411182","0.0-8.0-1.5","03rysffm8e","many_one","0","indirect_first","0","es05ad23","0","27","1","1","3","1","","0","1","0","null","","","<img src = 'category3/CS10.png' width = '100%;'>","null","","","","","","","","","",""
"","html-keyboard-response","112","411438","0.0-8.0-2.5","03rysffm8e","many_one","0","indirect_first","0","es05ad23","0","27","1","1","3","1","","0","1","0","null","","","<img src = 'targets/36.png' width = '100%;'>","null","","","","","","","","","",""
"","html-keyboard-response","113","411937","0.0-8.0-3.5","03rysffm8e","many_one","0","indirect_first","0","es05ad23","0","27","1","1","3","1","","0","1","0","498.0999999679625","","","<img src = 'targets/mask.png' width = '100%;'>","75","pos","CS","CS","3","category3/CS10.png","targets/36.png","1","indirect","5",""
"","html-keyboard-response","114","413455","0.0-8.0-0.6","03rysffm8e","many_one","0","indirect_first","0","es05ad23","0","27","1","1","3","1","","0","1","0","null","","","<div style=""font-size:60px;"">+</div>","null","","","","","","","","","",""
"","html-keyboard-response","115","413551","0.0-8.0-1.6","03rysffm8e","many_one","0","indirect_first","0","es05ad23","0","27","1","1","3","1","","0","1","0","null","","","<img src = 'category2/CS9.png' width = '100%;'>","null","","","","","","","","","",""
"","html-keyboard-response","116","413805","0.0-8.0-2.6","03rysffm8e","many_one","0","indirect_first","0","es05ad23","0","27","1","1","3","1","","0","1","0","null","","","<img src = 'targets/10.png' width = '100%;'>","null","","","","","","","","","",""
"","html-keyboard-response","117","414860","0.0-8.0-3.6","03rysffm8e","many_one","0","indirect_first","0","es05ad23","0","27","1","1","3","1","","0","1","0","1054.3899997137487","","","<img src = 'targets/mask.png' width = '100%;'>","68","neg","GS","GSold","2","category2/CS9.png","targets/10.png","0","indirect","6",""
"","html-keyboard-response","118","416376","0.0-8.0-0.7","03rysffm8e","many_one","0","indirect_first","0","es05ad23","0","27","1","1","3","1","","0","1","0","null","","","<div style=""font-size:60px;"">+</div>","null","","","","","","","","","",""
"","html-keyboard-response","119","416477","0.0-8.0-1.7","03rysffm8e","many_one","0","indirect_first","0","es05ad23","0","27","1","1","3","1","","0","1","0","null","","","<img src = 'category2/CS1.png' width = '100%;'>","null","","","","","","","","","",""
"","html-keyboard-response","120","416735","0.0-8.0-2.7","03rysffm8e","many_one","0","indirect_first","0","es05ad23","0","27","1","1","3","1","","0","1","0","null","","","<img src = 'targets/46.png' width = '100%;'>","null","","","","","","","","","",""
"","html-keyboard-response","121","417199","0.0-8.0-3.7","03rysffm8e","many_one","0","indirect_first","0","es05ad23","0","27","1","1","3","1","","0","1","0","464.64999997988343","","","<img src = 'targets/mask.png' width = '100%;'>","68","neg","CS","CS","2","category2/CS1.png","targets/46.png","0","indirect","7",""
"","html-keyboard-response","122","418718","0.0-8.0-0.8","03rysffm8e","many_one","0","indirect_first","0","es05ad23","0","27","1","1","3","1","","0","1","0","null","","","<div style=""font-size:60px;"">+</div>","null","","","","","","","","","",""
"","html-keyboard-response","123","418809","0.0-8.0-1.8","03rysffm8e","many_one","0","indirect_first","0","es05ad23","0","27","1","1","3","1","","0","1","0","null","","","<img src = 'category2/CS5.png' width = '100%;'>","null","","","","","","","","","",""
"","html-keyboard-response","124","419069","0.0-8.0-2.8","03rysffm8e","many_one","0","indirect_first","0","es05ad23","0","27","1","1","3","1","","0","1","0","null","","","<img src = 'targets/34.png' width = '100%;'>","null","","","","","","","","","",""
"","html-keyboard-response","125","419485","0.0-8.0-3.8","03rysffm8e","many_one","0","indirect_first","0","es05ad23","0","27","1","1","3","1","","0","1","0","415.0849999859929","","","<img src = 'targets/mask.png' width = '100%;'>","68","neg","CS","CS","2","category2/CS5.png","targets/34.png","0","indirect","8",""
"","html-keyboard-response","126","420992","0.0-8.0-0.9","03rysffm8e","many_one","0","indirect_first","0","es05ad23","0","27","1","1","3","1","","0","1","0","null","","","<div style=""font-size:60px;"">+</div>","null","","","","","","","","","",""
"","html-keyboard-response","127","421084","0.0-8.0-1.9","03rysffm8e","many_one","0","indirect_first","0","es05ad23","0","27","1","1","3","1","","0","1","0","null","","","<img src = 'category4/CS3.png' width = '100%;'>","null","","","","","","","","","",""
"","html-keyboard-response","128","421341","0.0-8.0-2.9","03rysffm8e","many_one","0","indirect_first","0","es05ad23","0","27","1","1","3","1","","0","1","0","null","","","<img src = 'targets/11.png' width = '100%;'>","null","","","","","","","","","",""
"","html-keyboard-response","129","421893","0.0-8.0-3.9","03rysffm8e","many_one","0","indirect_first","0","es05ad23","0","27","1","1","3","1","","0","1","0","551.4800003729761","","","<img src = 'targets/mask.png' width = '100%;'>","68","neg","CS","CS","4","category4/CS3.png","targets/11.png","0","indirect","9",""
"","html-keyboard-response","130","423406","0.0-8.0-0.10","03rysffm8e","many_one","0","indirect_first","0","es05ad23","0","27","1","1","3","1","","0","1","0","null","","","<div style=""font-size:60px;"">+</div>","null","","","","","","","","","",""
"","html-keyboard-response","131","423502","0.0-8.0-1.10","03rysffm8e","many_one","0","indirect_first","0","es05ad23","0","27","1","1","3","1","","0","1","0","null","","","<img src = 'category3/CS6.png' width = '100%;'>","null","","","","","","","","","",""
"","html-keyboard-response","132","423757","0.0-8.0-2.10","03rysffm8e","many_one","0","indirect_first","0","es05ad23","0","27","1","1","3","1","","0","1","0","null","","","<img src = 'targets/28.png' width = '100%;'>","null","","","","","","","","","",""
"","html-keyboard-response","133","424036","0.0-8.0-3.10","03rysffm8e","many_one","0","indirect_first","0","es05ad23","0","27","1","1","3","1","","0","1","0","277.98999985679984","","","<img src = 'targets/mask.png' width = '100%;'>","75","pos","CS","CS","3","category3/CS6.png","targets/28.png","1","indirect","10",""
"","html-keyboard-response","134","425543","0.0-8.0-0.11","03rysffm8e","many_one","0","indirect_first","0","es05ad23","0","27","1","1","3","1","","0","1","0","null","","","<div style=""font-size:60px;"">+</div>","null","","","","","","","","","",""
"","html-keyboard-response","135","425643","0.0-8.0-1.11","03rysffm8e","many_one","0","indirect_first","0","es05ad23","0","27","1","1","3","1","","0","1","0","null","","","<img src = 'category1/CS8.png' width = '100%;'>","null","","","","","","","","","",""
"","html-keyboard-response","136","425902","0.0-8.0-2.11","03rysffm8e","many_one","0","indirect_first","0","es05ad23","0","27","1","1","3","1","","0","1","0","null","","","<img src = 'targets/47.png' width = '100%;'>","null","","","","","","","","","",""
"","html-keyboard-response","137","426306","0.0-8.0-3.11","03rysffm8e","many_one","0","indirect_first","0","es05ad23","0","27","1","1","3","1","","0","1","0","403.2649998553097","","","<img src = 'targets/mask.png' width = '100%;'>","68","pos","CS","CS","1","category1/CS8.png","targets/47.png","0","indirect","11",""
"","html-keyboard-response","138","427809","0.0-8.0-0.12","03rysffm8e","many_one","0","indirect_first","0","es05ad23","0","27","1","1","3","1","","0","1","0","null","","","<div style=""font-size:60px;"">+</div>","null","","","","","","","","","",""
"","html-keyboard-response","139","427902","0.0-8.0-1.12","03rysffm8e","many_one","0","indirect_first","0","es05ad23","0","27","1","1","3","1","","0","1","0","null","","","<img src = 'category4/CS10.png' width = '100%;'>","null","","","","","","","","","",""
"","html-keyboard-response","140","428159","0.0-8.0-2.12","03rysffm8e","many_one","0","indirect_first","0","es05ad23","0","27","1","1","3","1","","0","1","0","null","","","<img src = 'targets/42.png' width = '100%;'>","null","","","","","","","","","",""
"","html-keyboard-response","141","428336","0.0-8.0-3.12","03rysffm8e","many_one","0","indirect_first","0","es05ad23","0","27","1","1","3","1","","0","1","0","176.20000010356307","","","<img src = 'targets/mask.png' width = '100%;'>","75","neg","CS","CS","4","category4/CS10.png","targets/42.png","1","indirect","12",""
"","html-keyboard-response","142","429843","0.0-8.0-0.13","03rysffm8e","many_one","0","indirect_first","0","es05ad23","0","27","1","1","3","1","","0","1","0","null","","","<div style=""font-size:60px;"">+</div>","null","","","","","","","","","",""
"","html-keyboard-response","143","429934","0.0-8.0-1.13","03rysffm8e","many_one","0","indirect_first","0","es05ad23","0","27","1","1","3","1","","0","1","0","null","","","<img src = 'category4/CS5.png' width = '100%;'>","null","","","","","","","","","",""
"","html-keyboard-response","144","430190","0.0-8.0-2.13","03rysffm8e","many_one","0","indirect_first","0","es05ad23","0","27","1","1","3","1","","0","1","0","null","","","<img src = 'targets/35.png' width = '100%;'>","null","","","","","","","","","",""
"","html-keyboard-response","145","430331","0.0-8.0-3.13","03rysffm8e","many_one","0","indirect_first","0","es05ad23","0","27","1","1","3","1","","0","1","0","139.74999962374568","","","<img src = 'targets/mask.png' width = '100%;'>","75","neg","CS","CS","4","category4/CS5.png","targets/35.png","1","indirect","13",""
"","html-keyboard-response","146","431843","0.0-8.0-0.14","03rysffm8e","many_one","0","indirect_first","0","es05ad23","0","27","1","1","3","1","","0","1","0","null","","","<div style=""font-size:60px;"">+</div>","null","","","","","","","","","",""
"","html-keyboard-response","147","431934","0.0-8.0-1.14","03rysffm8e","many_one","0","indirect_first","0","es05ad23","0","27","1","1","3","1","","0","1","0","null","","","<img src = 'category2/CS2.png' width = '100%;'>","null","","","","","","","","","",""
"","html-keyboard-response","148","432189","0.0-8.0-2.14","03rysffm8e","many_one","0","indirect_first","0","es05ad23","0","27","1","1","3","1","","0","1","0","null","","","<img src = 'targets/48.png' width = '100%;'>","null","","","","","","","","","",""
"","html-keyboard-response","149","432424","0.0-8.0-3.14","03rysffm8e","many_one","0","indirect_first","0","es05ad23","0","27","1","1","3","1","","0","1","0","234.04499981552362","","","<img src = 'targets/mask.png' width = '100%;'>","68","neg","CS","CS","2","category2/CS2.png","targets/48.png","0","indirect","14",""
"","html-keyboard-response","150","433926","0.0-8.0-0.15","03rysffm8e","many_one","0","indirect_first","0","es05ad23","0","27","1","1","3","1","","0","1","0","null","","","<div style=""font-size:60px;"">+</div>","null","","","","","","","","","",""
"","html-keyboard-response","151","434026","0.0-8.0-1.15","03rysffm8e","many_one","0","indirect_first","0","es05ad23","0","27","1","1","3","1","","0","1","0","null","","","<img src = 'category1/CS6.png' width = '100%;'>","null","","","","","","","","","",""
"","html-keyboard-response","152","434286","0.0-8.0-2.15","03rysffm8e","many_one","0","indirect_first","0","es05ad23","0","27","1","1","3","1","","0","1","0","null","","","<img src = 'targets/32.png' width = '100%;'>","null","","","","","","","","","",""
"","html-keyboard-response","153","434520","0.0-8.0-3.15","03rysffm8e","many_one","0","indirect_first","0","es05ad23","0","27","1","1","3","1","","0","1","0","233.53999992832541","","","<img src = 'targets/mask.png' width = '100%;'>","68","pos","CS","CS","1","category1/CS6.png","targets/32.png","0","indirect","15",""
"","html-keyboard-response","154","436026","0.0-8.0-0.16","03rysffm8e","many_one","0","indirect_first","0","es05ad23","0","27","1","1","3","1","","0","1","0","null","","","<div style=""font-size:60px;"">+</div>","null","","","","","","","","","",""
"","html-keyboard-response","155","436124","0.0-8.0-1.16","03rysffm8e","many_one","0","indirect_first","0","es05ad23","0","27","1","1","3","1","","0","1","0","null","","","<img src = 'category1/CS9.png' width = '100%;'>","null","","","","","","","","","",""
"","html-keyboard-response","156","436380","0.0-8.0-2.16","03rysffm8e","many_one","0","indirect_first","0","es05ad23","0","27","1","1","3","1","","0","1","0","null","","","<img src = 'targets/9.png' width = '100%;'>","null","","","","","","","","","",""
"","html-keyboard-response","157","437010","0.0-8.0-3.16","03rysffm8e","many_one","0","indirect_first","0","es05ad23","0","27","1","1","3","1","","0","1","0","629.2550000362098","","","<img src = 'targets/mask.png' width = '100%;'>","75","pos","CS","CS","1","category1/CS9.png","targets/9.png","1","indirect","16",""
"","html-keyboard-response","158","438526","0.0-8.0-0.17","03rysffm8e","many_one","0","indirect_first","0","es05ad23","0","27","1","1","3","1","","0","1","0","null","","","<div style=""font-size:60px;"">+</div>","null","","","","","","","","","",""
"","html-keyboard-response","159","438627","0.0-8.0-1.17","03rysffm8e","many_one","0","indirect_first","0","es05ad23","0","27","1","1","3","1","","0","1","0","null","","","<img src = 'category3/CS8.png' width = '100%;'>","null","","","","","","","","","",""
"","html-keyboard-response","160","438886","0.0-8.0-2.17","03rysffm8e","many_one","0","indirect_first","0","es05ad23","0","27","1","1","3","1","","0","1","0","null","","","<img src = 'targets/8.png' width = '100%;'>","null","","","","","","","","","",""
"","html-keyboard-response","161","439077","0.0-8.0-3.17","03rysffm8e","many_one","0","indirect_first","0","es05ad23","0","27","1","1","3","1","","0","1","0","189.76000044494867","","","<img src = 'targets/mask.png' width = '100%;'>","75","pos","CS","CS","3","category3/CS8.png","targets/8.png","1","indirect","17",""
"","html-keyboard-response","162","440593","0.0-8.0-0.18","03rysffm8e","many_one","0","indirect_first","0","es05ad23","0","27","1","1","3","1","","0","1","0","null","","","<div style=""font-size:60px;"">+</div>","null","","","","","","","","","",""
"","html-keyboard-response","163","440693","0.0-8.0-1.18","03rysffm8e","many_one","0","indirect_first","0","es05ad23","0","27","1","1","3","1","","0","1","0","null","","","<img src = 'category1/CS4.png' width = '100%;'>","null","","","","","","","","","",""
"","html-keyboard-response","164","440950","0.0-8.0-2.18","03rysffm8e","many_one","0","indirect_first","0","es05ad23","0","27","1","1","3","1","","0","1","0","null","","","<img src = 'targets/33.png' width = '100%;'>","null","","","","","","","","","",""
"","html-keyboard-response","165","441008","0.0-8.0-3.18","03rysffm8e","many_one","0","indirect_first","0","es05ad23","0","27","1","1","3","1","","0","1","0","56.73500010743737","","","<img src = 'targets/mask.png' width = '100%;'>","68","pos","CS","CS","1","category1/CS4.png","targets/33.png","0","indirect","18",""
"","html-keyboard-response","166","442510","0.0-8.0-0.19","03rysffm8e","many_one","0","indirect_first","0","es05ad23","0","27","1","1","3","1","","0","1","0","null","","","<div style=""font-size:60px;"">+</div>","null","","","","","","","","","",""
"","html-keyboard-response","167","442610","0.0-8.0-1.19","03rysffm8e","many_one","0","indirect_first","0","es05ad23","0","27","1","1","3","1","","0","1","0","null","","","<img src = 'category4/CS1.png' width = '100%;'>","null","","","","","","","","","",""
"","html-keyboard-response","168","442868","0.0-8.0-2.19","03rysffm8e","many_one","0","indirect_first","0","es05ad23","0","27","1","1","3","1","","0","1","0","null","","","<img src = 'targets/18.png' width = '100%;'>","null","","","","","","","","","",""
"","html-keyboard-response","169","442985","0.0-8.0-3.19","03rysffm8e","many_one","0","indirect_first","0","es05ad23","0","27","1","1","3","1","","0","1","0","115.64500024542212","","","<img src = 'targets/mask.png' width = '100%;'>","75","neg","CS","CS","4","category4/CS1.png","targets/18.png","1","indirect","19",""
"","html-keyboard-response","170","444493","0.0-8.0-0.20","03rysffm8e","many_one","0","indirect_first","0","es05ad23","0","27","1","1","3","1","","0","1","0","null","","","<div style=""font-size:60px;"">+</div>","null","","","","","","","","","",""
"","html-keyboard-response","171","444593","0.0-8.0-1.20","03rysffm8e","many_one","0","indirect_first","0","es05ad23","0","27","1","1","3","1","","0","1","0","null","","","<img src = 'category1/CS10.png' width = '100%;'>","null","","","","","","","","","",""
"","html-keyboard-response","172","444854","0.0-8.0-2.20","03rysffm8e","many_one","0","indirect_first","0","es05ad23","0","27","1","1","3","1","","0","1","0","null","","","<img src = 'targets/3.png' width = '100%;'>","null","","","","","","","","","",""
"","html-keyboard-response","173","444960","0.0-8.0-3.20","03rysffm8e","many_one","0","indirect_first","0","es05ad23","0","27","1","1","3","1","","0","1","0","105.97999999299645","","","<img src = 'targets/mask.png' width = '100%;'>","68","pos","GS","GSold","1","category1/CS10.png","targets/3.png","0","indirect","20",""
"","html-keyboard-response","174","446470","0.0-8.0-0.21","03rysffm8e","many_one","0","indirect_first","0","es05ad23","0","27","1","1","3","1","","0","1","0","null","","","<div style=""font-size:60px;"">+</div>","null","","","","","","","","","",""
"","html-keyboard-response","175","446566","0.0-8.0-1.21","03rysffm8e","many_one","0","indirect_first","0","es05ad23","0","27","1","1","3","1","","0","1","0","null","","","<img src = 'category2/CS7.png' width = '100%;'>","null","","","","","","","","","",""
"","html-keyboard-response","176","446821","0.0-8.0-2.21","03rysffm8e","many_one","0","indirect_first","0","es05ad23","0","27","1","1","3","1","","0","1","0","null","","","<img src = 'targets/5.png' width = '100%;'>","null","","","","","","","","","",""
"","html-keyboard-response","177","446877","0.0-8.0-3.21","03rysffm8e","many_one","0","indirect_first","0","es05ad23","0","27","1","1","3","1","","0","1","0","54.71999989822507","","","<img src = 'targets/mask.png' width = '100%;'>","75","neg","GS","GSold","2","category2/CS7.png","targets/5.png","1","indirect","21",""
"","html-keyboard-response","178","448390","0.0-8.0-0.22","03rysffm8e","many_one","0","indirect_first","0","es05ad23","0","27","1","1","3","1","","0","1","0","null","","","<div style=""font-size:60px;"">+</div>","null","","","","","","","","","",""
"","html-keyboard-response","179","448486","0.0-8.0-1.22","03rysffm8e","many_one","0","indirect_first","0","es05ad23","0","27","1","1","3","1","","0","1","0","null","","","<img src = 'category2/CS10.png' width = '100%;'>","null","","","","","","","","","",""
"","html-keyboard-response","180","448742","0.0-8.0-2.22","03rysffm8e","many_one","0","indirect_first","0","es05ad23","0","27","1","1","3","1","","0","1","0","null","","","<img src = 'targets/30.png' width = '100%;'>","null","","","","","","","","","",""
"","html-keyboard-response","181","448938","0.0-8.0-3.22","03rysffm8e","many_one","0","indirect_first","0","es05ad23","0","27","1","1","3","1","","0","1","0","194.40999999642372","","","<img src = 'targets/mask.png' width = '100%;'>","68","neg","CS","CS","2","category2/CS10.png","targets/30.png","0","indirect","22",""
"","html-keyboard-response","182","450444","0.0-8.0-0.23","03rysffm8e","many_one","0","indirect_first","0","es05ad23","0","27","1","1","3","1","","0","1","0","null","","","<div style=""font-size:60px;"">+</div>","null","","","","","","","","","",""
"","html-keyboard-response","183","450543","0.0-8.0-1.23","03rysffm8e","many_one","0","indirect_first","0","es05ad23","0","27","1","1","3","1","","0","1","0","null","","","<img src = 'category1/CS5.png' width = '100%;'>","null","","","","","","","","","",""
"","html-keyboard-response","184","450806","0.0-8.0-2.23","03rysffm8e","many_one","0","indirect_first","0","es05ad23","0","27","1","1","3","1","","0","1","0","null","","","<img src = 'targets/7.png' width = '100%;'>","null","","","","","","","","","",""
"","html-keyboard-response","185","450967","0.0-8.0-3.23","03rysffm8e","many_one","0","indirect_first","0","es05ad23","0","27","1","1","3","1","","0","1","0","160.050000064075","","","<img src = 'targets/mask.png' width = '100%;'>","68","pos","CS","CS","1","category1/CS5.png","targets/7.png","0","indirect","23",""
"","survey-html-form","186","456463","0.0-9.0","03rysffm8e","many_one","0","indirect_first","0","es05ad23","0","27","1","1","3","1","","0","1","0","4985.749999992549","","{}","","","","","","","","","","","",""
"","html-keyboard-response","187","459478","0.0-10.0-0.0","03rysffm8e","many_one","0","indirect_first","0","es05ad23","0","27","1","1","3","1","","0","1","0","null","","","<div style=""font-size:60px;"">+</div>","null","","","","","","","","","",""
"","html-keyboard-response","188","459573","0.0-10.0-1.0","03rysffm8e","many_one","0","indirect_first","0","es05ad23","0","27","1","1","3","1","","0","1","0","null","","","<img src = 'category3/GS1.png' width = '100%;'>","null","","","","","","","","","",""
"","html-keyboard-response","189","459828","0.0-10.0-2.0","03rysffm8e","many_one","0","indirect_first","0","es05ad23","0","27","1","1","3","1","","0","1","0","null","","","<img src = 'targets/43.png' width = '100%;'>","null","","","","","","","","","",""
"","html-keyboard-response","190","460542","0.0-10.0-3.0","03rysffm8e","many_one","0","indirect_first","0","es05ad23","0","27","1","1","3","1","","0","1","0","713.5549997910857","","","<img src = 'targets/mask.png' width = '100%;'>","68","pos","GS","GSnew","3","category3/GS1.png","targets/43.png","0","indirect","24",""
"","html-keyboard-response","191","462054","0.0-10.0-0.1","03rysffm8e","many_one","0","indirect_first","0","es05ad23","0","27","1","1","3","1","","0","1","0","null","","","<div style=""font-size:60px;"">+</div>","null","","","","","","","","","",""
"","html-keyboard-response","192","462150","0.0-10.0-1.1","03rysffm8e","many_one","0","indirect_first","0","es05ad23","0","27","1","1","3","1","","0","1","0","null","","","<img src = 'category1/GS1.png' width = '100%;'>","null","","","","","","","","","",""
"","html-keyboard-response","193","462406","0.0-10.0-2.1","03rysffm8e","many_one","0","indirect_first","0","es05ad23","0","27","1","1","3","1","","0","1","0","null","","","<img src = 'targets/2.png' width = '100%;'>","null","","","","","","","","","",""
"","html-keyboard-response","194","462556","0.0-10.0-3.1","03rysffm8e","many_one","0","indirect_first","0","es05ad23","0","27","1","1","3","1","","0","1","0","149.40499980002642","","","<img src = 'targets/mask.png' width = '100%;'>","75","pos","GS","GSnew","1","category1/GS1.png","targets/2.png","1","indirect","25",""
"","html-keyboard-response","195","464061","0.0-10.0-0.2","03rysffm8e","many_one","0","indirect_first","0","es05ad23","0","27","1","1","3","1","","0","1","0","null","","","<div style=""font-size:60px;"">+</div>","null","","","","","","","","","",""
"","html-keyboard-response","196","464161","0.0-10.0-1.2","03rysffm8e","many_one","0","indirect_first","0","es05ad23","0","27","1","1","3","1","","0","1","0","null","","","<img src = 'category1/GS3.png' width = '100%;'>","null","","","","","","","","","",""
"","html-keyboard-response","197","464422","0.0-10.0-2.2","03rysffm8e","many_one","0","indirect_first","0","es05ad23","0","27","1","1","3","1","","0","1","0","null","","","<img src = 'targets/38.png' width = '100%;'>","null","","","","","","","","","",""
"","html-keyboard-response","198","464708","0.0-10.0-3.2","03rysffm8e","many_one","0","indirect_first","0","es05ad23","0","27","1","1","3","1","","0","1","0","285.6100001372397","","","<img src = 'targets/mask.png' width = '100%;'>","75","pos","GS","GSnew","1","category1/GS3.png","targets/38.png","1","indirect","26",""
"","html-keyboard-response","199","466211","0.0-10.0-0.3","03rysffm8e","many_one","0","indirect_first","0","es05ad23","0","27","1","1","3","1","","0","1","0","null","","","<div style=""font-size:60px;"">+</div>","null","","","","","","","","","",""
"","html-keyboard-response","200","466308","0.0-10.0-1.3","03rysffm8e","many_one","0","indirect_first","0","es05ad23","0","27","1","1","3","1","","0","1","0","null","","","<img src = 'category4/GS3.png' width = '100%;'>","null","","","","","","","","","",""
"","html-keyboard-response","201","466566","0.0-10.0-2.3","03rysffm8e","many_one","0","indirect_first","0","es05ad23","0","27","1","1","3","1","","0","1","0","null","","","<img src = 'targets/1.png' width = '100%;'>","null","","","","","","","","","",""
"","html-keyboard-response","202","466661","0.0-10.0-3.3","03rysffm8e","many_one","0","indirect_first","0","es05ad23","0","27","1","1","3","1","","0","1","0","94.32499995455146","","","<img src = 'targets/mask.png' width = '100%;'>","75","neg","GS","GSnew","4","category4/GS3.png","targets/1.png","1","indirect","27",""
"","html-keyboard-response","203","468178","0.0-10.0-0.4","03rysffm8e","many_one","0","indirect_first","0","es05ad23","0","27","1","1","3","1","","0","1","0","null","","","<div style=""font-size:60px;"">+</div>","null","","","","","","","","","",""
"","html-keyboard-response","204","468277","0.0-10.0-1.4","03rysffm8e","many_one","0","indirect_first","0","es05ad23","0","27","1","1","3","1","","0","1","0","null","","","<img src = 'category3/GS2.png' width = '100%;'>","null","","","","","","","","","",""
"","html-keyboard-response","205","468534","0.0-10.0-2.4","03rysffm8e","many_one","0","indirect_first","0","es05ad23","0","27","1","1","3","1","","0","1","0","null","","","<img src = 'targets/29.png' width = '100%;'>","null","","","","","","","","","",""
"","html-keyboard-response","206","469137","0.0-10.0-3.4","03rysffm8e","many_one","0","indirect_first","0","es05ad23","0","27","1","1","3","1","","0","1","0","601.8650000914931","","","<img src = 'targets/mask.png' width = '100%;'>","68","pos","GS","GSnew","3","category3/GS2.png","targets/29.png","0","indirect","28",""
"","html-keyboard-response","207","470645","0.0-10.0-0.5","03rysffm8e","many_one","0","indirect_first","0","es05ad23","0","27","1","1","3","1","","0","1","0","null","","","<div style=""font-size:60px;"">+</div>","null","","","","","","","","","",""
"","html-keyboard-response","208","470740","0.0-10.0-1.5","03rysffm8e","many_one","0","indirect_first","0","es05ad23","0","27","1","1","3","1","","0","1","0","null","","","<img src = 'category2/GS3.png' width = '100%;'>","null","","","","","","","","","",""
"","html-keyboard-response","209","470998","0.0-10.0-2.5","03rysffm8e","many_one","0","indirect_first","0","es05ad23","0","27","1","1","3","1","","0","1","0","null","","","<img src = 'targets/27.png' width = '100%;'>","null","","","","","","","","","",""
"","html-keyboard-response","210","471444","0.0-10.0-3.5","03rysffm8e","many_one","0","indirect_first","0","es05ad23","0","27","1","1","3","1","","0","1","0","445.11500000953674","","","<img src = 'targets/mask.png' width = '100%;'>","68","neg","GS","GSnew","2","category2/GS3.png","targets/27.png","0","indirect","29",""
"","html-keyboard-response","211","472961","0.0-10.0-0.6","03rysffm8e","many_one","0","indirect_first","0","es05ad23","0","27","1","1","3","1","","0","1","0","null","","","<div style=""font-size:60px;"">+</div>","null","","","","","","","","","",""
"","html-keyboard-response","212","473060","0.0-10.0-1.6","03rysffm8e","many_one","0","indirect_first","0","es05ad23","0","27","1","1","3","1","","0","1","0","null","","","<img src = 'category4/lin.png' width = '100%;'>","null","","","","","","","","","",""
"","html-keyboard-response","213","473315","0.0-10.0-2.6","03rysffm8e","many_one","0","indirect_first","0","es05ad23","0","27","1","1","3","1","","0","1","0","null","","","<img src = 'targets/39.png' width = '100%;'>","null","","","","","","","","","",""
"","html-keyboard-response","214","474256","0.0-10.0-3.6","03rysffm8e","many_one","0","indirect_first","0","es05ad23","0","27","1","1","3","1","","0","1","0","940.3450000099838","","","<img src = 'targets/mask.png' width = '100%;'>","75","neg","GS","abstract","4","category4/lin.png","targets/39.png","1","indirect","30",""
"","html-keyboard-response","215","475772","0.0-10.0-0.7","03rysffm8e","many_one","0","indirect_first","0","es05ad23","0","27","1","1","3","1","","0","1","0","null","","","<div style=""font-size:60px;"">+</div>","null","","","","","","","","","",""
"","html-keyboard-response","216","475868","0.0-10.0-1.7","03rysffm8e","many_one","0","indirect_first","0","es05ad23","0","27","1","1","3","1","","0","1","0","null","","","<img src = 'category1/GS2.png' width = '100%;'>","null","","","","","","","","","",""
"","html-keyboard-response","217","476126","0.0-10.0-2.7","03rysffm8e","many_one","0","indirect_first","0","es05ad23","0","27","1","1","3","1","","0","1","0","null","","","<img src = 'targets/15.png' width = '100%;'>","null","","","","","","","","","",""
"","html-keyboard-response","218","476387","0.0-10.0-3.7","03rysffm8e","many_one","0","indirect_first","0","es05ad23","0","27","1","1","3","1","","0","1","0","259.90499975159764","","","<img src = 'targets/mask.png' width = '100%;'>","68","pos","GS","GSnew","1","category1/GS2.png","targets/15.png","0","indirect","31",""
"","html-keyboard-response","219","477895","0.0-10.0-0.8","03rysffm8e","many_one","0","indirect_first","0","es05ad23","0","27","1","1","3","1","","0","1","0","null","","","<div style=""font-size:60px;"">+</div>","null","","","","","","","","","",""
"","html-keyboard-response","220","477995","0.0-10.0-1.8","03rysffm8e","many_one","0","indirect_first","0","es05ad23","0","27","1","1","3","1","","0","1","0","null","","","<img src = 'category3/CS1.png' width = '100%;'>","null","","","","","","","","","",""
"","html-keyboard-response","221","478254","0.0-10.0-2.8","03rysffm8e","many_one","0","indirect_first","0","es05ad23","0","27","1","1","3","1","","0","1","0","null","","","<img src = 'targets/44.png' width = '100%;'>","null","","","","","","","","","",""
"","html-keyboard-response","222","478524","0.0-10.0-3.8","03rysffm8e","many_one","0","indirect_first","0","es05ad23","0","27","1","1","3","1","","0","1","0","269.5050002075732","","","<img src = 'targets/mask.png' width = '100%;'>","75","pos","GS","GSold","3","category3/CS1.png","targets/44.png","1","indirect","32",""
"","html-keyboard-response","223","480030","0.0-10.0-0.9","03rysffm8e","many_one","0","indirect_first","0","es05ad23","0","27","1","1","3","1","","0","1","0","null","","","<div style=""font-size:60px;"">+</div>","null","","","","","","","","","",""
"","html-keyboard-response","224","480125","0.0-10.0-1.9","03rysffm8e","many_one","0","indirect_first","0","es05ad23","0","27","1","1","3","1","","0","1","0","null","","","<img src = 'category4/GS2.png' width = '100%;'>","null","","","","","","","","","",""
"","html-keyboard-response","225","480382","0.0-10.0-2.9","03rysffm8e","many_one","0","indirect_first","0","es05ad23","0","27","1","1","3","1","","0","1","0","null","","","<img src = 'targets/31.png' width = '100%;'>","null","","","","","","","","","",""
"","html-keyboard-response","226","480542","0.0-10.0-3.9","03rysffm8e","many_one","0","indirect_first","0","es05ad23","0","27","1","1","3","1","","0","1","0","158.68999995291233","","","<img src = 'targets/mask.png' width = '100%;'>","68","neg","GS","GSnew","4","category4/GS2.png","targets/31.png","0","indirect","33",""
"","html-keyboard-response","227","482045","0.0-10.0-0.10","03rysffm8e","many_one","0","indirect_first","0","es05ad23","0","27","1","1","3","1","","0","1","0","null","","","<div style=""font-size:60px;"">+</div>","null","","","","","","","","","",""
"","html-keyboard-response","228","482140","0.0-10.0-1.10","03rysffm8e","many_one","0","indirect_first","0","es05ad23","0","27","1","1","3","1","","0","1","0","null","","","<img src = 'category2/GS2.png' width = '100%;'>","null","","","","","","","","","",""
"","html-keyboard-response","229","482398","0.0-10.0-2.10","03rysffm8e","many_one","0","indirect_first","0","es05ad23","0","27","1","1","3","1","","0","1","0","null","","","<img src = 'targets/4.png' width = '100%;'>","null","","","","","","","","","",""
"","html-keyboard-response","230","482499","0.0-10.0-3.10","03rysffm8e","many_one","0","indirect_first","0","es05ad23","0","27","1","1","3","1","","0","1","0","100.11500027030706","","","<img src = 'targets/mask.png' width = '100%;'>","68","neg","GS","GSnew","2","category2/GS2.png","targets/4.png","0","indirect","34",""
"","html-keyboard-response","231","484012","0.0-10.0-0.11","03rysffm8e","many_one","0","indirect_first","0","es05ad23","0","27","1","1","3","1","","0","1","0","null","","","<div style=""font-size:60px;"">+</div>","null","","","","","","","","","",""
"","html-keyboard-response","232","484110","0.0-10.0-1.11","03rysffm8e","many_one","0","indirect_first","0","es05ad23","0","27","1","1","3","1","","0","1","0","null","","","<img src = 'category2/men.png' width = '100%;'>","null","","","","","","","","","",""
"","html-keyboard-response","233","484366","0.0-10.0-2.11","03rysffm8e","many_one","0","indirect_first","0","es05ad23","0","27","1","1","3","1","","0","1","0","null","","","<img src = 'targets/17.png' width = '100%;'>","null","","","","","","","","","",""
"","html-keyboard-response","234","485407","0.0-10.0-3.11","03rysffm8e","many_one","0","indirect_first","0","es05ad23","0","27","1","1","3","1","","0","1","0","1040.4150001704693","","","<img src = 'targets/mask.png' width = '100%;'>","68","neg","GS","abstract","2","category2/men.png","targets/17.png","0","indirect","35",""
"","html-keyboard-response","235","486918","0.0-10.0-0.12","03rysffm8e","many_one","0","indirect_first","0","es05ad23","0","27","1","1","3","1","","0","1","0","null","","","<div style=""font-size:60px;"">+</div>","null","","","","","","","","","",""
"","html-keyboard-response","236","487011","0.0-10.0-1.12","03rysffm8e","many_one","0","indirect_first","0","es05ad23","0","27","1","1","3","1","","0","1","0","null","","","<img src = 'category3/wang.png' width = '100%;'>","null","","","","","","","","","",""
"","html-keyboard-response","237","487270","0.0-10.0-2.12","03rysffm8e","many_one","0","indirect_first","0","es05ad23","0","27","1","1","3","1","","0","1","0","null","","","<img src = 'targets/41.png' width = '100%;'>","null","","","","","","","","","",""
"","html-keyboard-response","238","487611","0.0-10.0-3.12","03rysffm8e","many_one","0","indirect_first","0","es05ad23","0","27","1","1","3","1","","0","1","0","339.499999769032","","","<img src = 'targets/mask.png' width = '100%;'>","75","pos","GS","abstract","3","category3/wang.png","targets/41.png","1","indirect","36",""
"","html-keyboard-response","239","489126","0.0-10.0-0.13","03rysffm8e","many_one","0","indirect_first","0","es05ad23","0","27","1","1","3","1","","0","1","0","null","","","<div style=""font-size:60px;"">+</div>","null","","","","","","","","","",""
"","html-keyboard-response","240","489222","0.0-10.0-1.13","03rysffm8e","many_one","0","indirect_first","0","es05ad23","0","27","1","1","3","1","","0","1","0","null","","","<img src = 'category4/GS1.png' width = '100%;'>","null","","","","","","","","","",""
"","html-keyboard-response","241","489477","0.0-10.0-2.13","03rysffm8e","many_one","0","indirect_first","0","es05ad23","0","27","1","1","3","1","","0","1","0","null","","","<img src = 'targets/23.png' width = '100%;'>","null","","","","","","","","","",""
"","html-keyboard-response","242","489896","0.0-10.0-3.13","03rysffm8e","many_one","0","indirect_first","0","es05ad23","0","27","1","1","3","1","","0","1","0","418.47999999299645","","","<img src = 'targets/mask.png' width = '100%;'>","75","neg","GS","GSnew","4","category4/GS1.png","targets/23.png","1","indirect","37",""
"","html-keyboard-response","243","491412","0.0-10.0-0.14","03rysffm8e","many_one","0","indirect_first","0","es05ad23","0","27","1","1","3","1","","0","1","0","null","","","<div style=""font-size:60px;"">+</div>","null","","","","","","","","","",""
"","html-keyboard-response","244","491509","0.0-10.0-1.14","03rysffm8e","many_one","0","indirect_first","0","es05ad23","0","27","1","1","3","1","","0","1","0","null","","","<img src = 'category2/GS1.png' width = '100%;'>","null","","","","","","","","","",""
"","html-keyboard-response","245","491766","0.0-10.0-2.14","03rysffm8e","many_one","0","indirect_first","0","es05ad23","0","27","1","1","3","1","","0","1","0","null","","","<img src = 'targets/19.png' width = '100%;'>","null","","","","","","","","","",""
"","html-keyboard-response","246","491857","0.0-10.0-3.14","03rysffm8e","many_one","0","indirect_first","0","es05ad23","0","27","1","1","3","1","","0","1","0","90.46999970450997","","","<img src = 'targets/mask.png' width = '100%;'>","75","neg","GS","GSnew","2","category2/GS1.png","targets/19.png","1","indirect","38",""
"","html-keyboard-response","247","493362","0.0-10.0-0.15","03rysffm8e","many_one","0","indirect_first","0","es05ad23","0","27","1","1","3","1","","0","1","0","null","","","<div style=""font-size:60px;"">+</div>","null","","","","","","","","","",""
"","html-keyboard-response","248","493460","0.0-10.0-1.15","03rysffm8e","many_one","0","indirect_first","0","es05ad23","0","27","1","1","3","1","","0","1","0","null","","","<img src = 'category3/CS4.png' width = '100%;'>","null","","","","","","","","","",""
"","html-keyboard-response","249","493718","0.0-10.0-2.15","03rysffm8e","many_one","0","indirect_first","0","es05ad23","0","27","1","1","3","1","","0","1","0","null","","","<img src = 'targets/6.png' width = '100%;'>","null","","","","","","","","","",""
"","html-keyboard-response","250","494113","0.0-10.0-3.15","03rysffm8e","many_one","0","indirect_first","0","es05ad23","0","27","1","1","3","1","","0","1","0","393.8150000758469","","","<img src = 'targets/mask.png' width = '100%;'>","75","pos","GS","GSold","3","category3/CS4.png","targets/6.png","1","indirect","39",""
"","html-keyboard-response","251","495622","0.0-10.0-0.16","03rysffm8e","many_one","0","indirect_first","0","es05ad23","0","27","1","1","3","1","","0","1","0","null","","","<div style=""font-size:60px;"">+</div>","null","","","","","","","","","",""
"","html-keyboard-response","252","495718","0.0-10.0-1.16","03rysffm8e","many_one","0","indirect_first","0","es05ad23","0","27","1","1","3","1","","0","1","0","null","","","<img src = 'category4/CS7.png' width = '100%;'>","null","","","","","","","","","",""
"","html-keyboard-response","253","495974","0.0-10.0-2.16","03rysffm8e","many_one","0","indirect_first","0","es05ad23","0","27","1","1","3","1","","0","1","0","null","","","<img src = 'targets/20.png' width = '100%;'>","null","","","","","","","","","",""
"","html-keyboard-response","254","496096","0.0-10.0-3.16","03rysffm8e","many_one","0","indirect_first","0","es05ad23","0","27","1","1","3","1","","0","1","0","120.81500003114343","","","<img src = 'targets/mask.png' width = '100%;'>","68","neg","GS","GSold","4","category4/CS7.png","targets/20.png","0","indirect","40",""
"","html-keyboard-response","255","497598","0.0-10.0-0.17","03rysffm8e","many_one","0","indirect_first","0","es05ad23","0","27","1","1","3","1","","0","1","0","null","","","<div style=""font-size:60px;"">+</div>","null","","","","","","","","","",""
"","html-keyboard-response","256","497693","0.0-10.0-1.17","03rysffm8e","many_one","0","indirect_first","0","es05ad23","0","27","1","1","3","1","","0","1","0","null","","","<img src = 'category4/CS9.png' width = '100%;'>","null","","","","","","","","","",""
"","html-keyboard-response","257","497950","0.0-10.0-2.17","03rysffm8e","many_one","0","indirect_first","0","es05ad23","0","27","1","1","3","1","","0","1","0","null","","","<img src = 'targets/12.png' width = '100%;'>","null","","","","","","","","","",""
"","html-keyboard-response","258","498504","0.0-10.0-3.17","03rysffm8e","many_one","0","indirect_first","0","es05ad23","0","27","1","1","3","1","","0","1","0","553.3149996772408","","","<img src = 'targets/mask.png' width = '100%;'>","68","neg","GS","GSold","4","category4/CS9.png","targets/12.png","0","indirect","41",""
"","html-keyboard-response","259","500014","0.0-10.0-0.18","03rysffm8e","many_one","0","indirect_first","0","es05ad23","0","27","1","1","3","1","","0","1","0","null","","","<div style=""font-size:60px;"">+</div>","null","","","","","","","","","",""
"","html-keyboard-response","260","500109","0.0-10.0-1.18","03rysffm8e","many_one","0","indirect_first","0","es05ad23","0","27","1","1","3","1","","0","1","0","null","","","<img src = 'category1/CS1.png' width = '100%;'>","null","","","","","","","","","",""
"","html-keyboard-response","261","500366","0.0-10.0-2.18","03rysffm8e","many_one","0","indirect_first","0","es05ad23","0","27","1","1","3","1","","0","1","0","null","","","<img src = 'targets/21.png' width = '100%;'>","null","","","","","","","","","",""
"","html-keyboard-response","262","500697","0.0-10.0-3.18","03rysffm8e","many_one","0","indirect_first","0","es05ad23","0","27","1","1","3","1","","0","1","0","329.7250000759959","","","<img src = 'targets/mask.png' width = '100%;'>","68","pos","GS","GSold","1","category1/CS1.png","targets/21.png","0","indirect","42",""
"","html-keyboard-response","263","502206","0.0-10.0-0.19","03rysffm8e","many_one","0","indirect_first","0","es05ad23","0","27","1","1","3","1","","0","1","0","null","","","<div style=""font-size:60px;"">+</div>","null","","","","","","","","","",""
"","html-keyboard-response","264","502302","0.0-10.0-1.19","03rysffm8e","many_one","0","indirect_first","0","es05ad23","0","27","1","1","3","1","","0","1","0","null","","","<img src = 'category3/CS7.png' width = '100%;'>","null","","","","","","","","","",""
"","html-keyboard-response","265","502557","0.0-10.0-2.19","03rysffm8e","many_one","0","indirect_first","0","es05ad23","0","27","1","1","3","1","","0","1","0","null","","","<img src = 'targets/40.png' width = '100%;'>","null","","","","","","","","","",""
"","html-keyboard-response","266","502907","0.0-10.0-3.19","03rysffm8e","many_one","0","indirect_first","0","es05ad23","0","27","1","1","3","1","","0","1","0","349.6150001883507","","","<img src = 'targets/mask.png' width = '100%;'>","75","pos","GS","GSold","3","category3/CS7.png","targets/40.png","1","indirect","43",""
"","html-keyboard-response","267","504413","0.0-10.0-0.20","03rysffm8e","many_one","0","indirect_first","0","es05ad23","0","27","1","1","3","1","","0","1","0","null","","","<div style=""font-size:60px;"">+</div>","null","","","","","","","","","",""
"","html-keyboard-response","268","504510","0.0-10.0-1.20","03rysffm8e","many_one","0","indirect_first","0","es05ad23","0","27","1","1","3","1","","0","1","0","null","","","<img src = 'category1/ma.png' width = '100%;'>","null","","","","","","","","","",""
"","html-keyboard-response","269","504766","0.0-10.0-2.20","03rysffm8e","many_one","0","indirect_first","0","es05ad23","0","27","1","1","3","1","","0","1","0","null","","","<img src = 'targets/13.png' width = '100%;'>","null","","","","","","","","","",""
"","html-keyboard-response","270","505676","0.0-10.0-3.20","03rysffm8e","many_one","0","indirect_first","0","es05ad23","0","27","1","1","3","1","","0","1","0","908.9249996468425","","","<img src = 'targets/mask.png' width = '100%;'>","68","pos","GS","abstract","1","category1/ma.png","targets/13.png","0","indirect","44",""
"","html-keyboard-response","271","507182","0.0-10.0-0.21","03rysffm8e","many_one","0","indirect_first","0","es05ad23","0","27","1","1","3","1","","0","1","0","null","","","<div style=""font-size:60px;"">+</div>","null","","","","","","","","","",""
"","html-keyboard-response","272","507277","0.0-10.0-1.21","03rysffm8e","many_one","0","indirect_first","0","es05ad23","0","27","1","1","3","1","","0","1","0","null","","","<img src = 'category3/GS3.png' width = '100%;'>","null","","","","","","","","","",""
"","html-keyboard-response","273","507534","0.0-10.0-2.21","03rysffm8e","many_one","0","indirect_first","0","es05ad23","0","27","1","1","3","1","","0","1","0","null","","","<img src = 'targets/22.png' width = '100%;'>","null","","","","","","","","","",""
"","html-keyboard-response","274","507951","0.0-10.0-3.21","03rysffm8e","many_one","0","indirect_first","0","es05ad23","0","27","1","1","3","1","","0","1","0","416.1950000561774","","","<img src = 'targets/mask.png' width = '100%;'>","75","pos","GS","GSnew","3","category3/GS3.png","targets/22.png","1","indirect","45",""
"","html-keyboard-response","275","509463","0.0-10.0-0.22","03rysffm8e","many_one","0","indirect_first","0","es05ad23","0","27","1","1","3","1","","0","1","0","null","","","<div style=""font-size:60px;"">+</div>","null","","","","","","","","","",""
"","html-keyboard-response","276","509563","0.0-10.0-1.22","03rysffm8e","many_one","0","indirect_first","0","es05ad23","0","27","1","1","3","1","","0","1","0","null","","","<img src = 'category1/CS3.png' width = '100%;'>","null","","","","","","","","","",""
"","html-keyboard-response","277","509821","0.0-10.0-2.22","03rysffm8e","many_one","0","indirect_first","0","es05ad23","0","27","1","1","3","1","","0","1","0","null","","","<img src = 'targets/14.png' width = '100%;'>","null","","","","","","","","","",""
"","html-keyboard-response","278","510113","0.0-10.0-3.22","03rysffm8e","many_one","0","indirect_first","0","es05ad23","0","27","1","1","3","1","","0","1","0","291.4499999023974","","","<img src = 'targets/mask.png' width = '100%;'>","68","pos","GS","GSold","1","category1/CS3.png","targets/14.png","0","indirect","46",""
"","html-keyboard-response","279","511629","0.0-10.0-0.23","03rysffm8e","many_one","0","indirect_first","0","es05ad23","0","27","1","1","3","1","","0","1","0","null","","","<div style=""font-size:60px;"">+</div>","null","","","","","","","","","",""
"","html-keyboard-response","280","511726","0.0-10.0-1.23","03rysffm8e","many_one","0","indirect_first","0","es05ad23","0","27","1","1","3","1","","0","1","0","null","","","<img src = 'category4/CS2.png' width = '100%;'>","null","","","","","","","","","",""
"","html-keyboard-response","281","511980","0.0-10.0-2.23","03rysffm8e","many_one","0","indirect_first","0","es05ad23","0","27","1","1","3","1","","0","1","0","null","","","<img src = 'targets/25.png' width = '100%;'>","null","","","","","","","","","",""
"","html-keyboard-response","282","512234","0.0-10.0-3.23","03rysffm8e","many_one","0","indirect_first","0","es05ad23","0","27","1","1","3","1","","0","1","0","254.1899997740984","","","<img src = 'targets/mask.png' width = '100%;'>","75","neg","GS","GSold","4","category4/CS2.png","targets/25.png","1","indirect","47",""
"","survey-html-form","283","522968","0.0-11.0","03rysffm8e","many_one","0","indirect_first","0","es05ad23","0","27","1","1","3","1","","0","1","0","10220.764999743551","","{}","","","","","","","","","","","",""
"","image-slider-response","284","534707","0.0-12.0-0.0","03rysffm8e","many_one","0","indirect_first","0","es05ad23","0","27","1","1","3","1","","0","1","0","9725.645000115037","","","","","neg","CS","CS","2","category2/CS1.png","targets/46.png","","direct","","-100"
"","image-slider-response","285","537568","0.0-12.0-0.1","03rysffm8e","many_one","0","indirect_first","0","es05ad23","0","27","1","1","3","1","","0","1","0","2858.7149996310472","","","","","neg","GS","abstract","4","category4/lin.png","targets/39.png","","direct","","100"
"","image-slider-response","286","542328","0.0-12.0-0.2","03rysffm8e","many_one","0","indirect_first","0","es05ad23","0","27","1","1","3","1","","0","1","0","4758.84999986738","","","","","neg","GS","GSold","2","category2/CS4.png","targets/37.png","","direct","","-40"
"","image-slider-response","287","544498","0.0-12.0-0.3","03rysffm8e","many_one","0","indirect_first","0","es05ad23","0","27","1","1","3","1","","0","1","0","2168.8550002872944","","","","","pos","GS","abstract","1","category1/ma.png","targets/13.png","","direct","","-21"
"","image-slider-response","288","546934","0.0-12.0-0.4","03rysffm8e","many_one","0","indirect_first","0","es05ad23","0","27","1","1","3","1","","0","1","0","2434.1750000603497","","","","","pos","GS","GSold","3","category3/CS1.png","targets/44.png","","direct","","97"
"","image-slider-response","289","550858","0.0-12.0-0.5","03rysffm8e","many_one","0","indirect_first","0","es05ad23","0","27","1","1","3","1","","0","1","0","3923.5149999149144","","","","","neg","CS","CS","2","category2/CS10.png","targets/30.png","","direct","","-4"
"","image-slider-response","290","553582","0.0-12.0-0.6","03rysffm8e","many_one","0","indirect_first","0","es05ad23","0","27","1","1","3","1","","0","1","0","2723.1149999424815","","","","","neg","GS","GSold","4","category4/CS7.png","targets/20.png","","direct","","61"
"","image-slider-response","291","557108","0.0-12.0-0.7","03rysffm8e","many_one","0","indirect_first","0","es05ad23","0","27","1","1","3","1","","0","1","0","3524.845000356436","","","","","pos","GS","GSold","1","category1/CS10.png","targets/3.png","","direct","","27"
"","image-slider-response","292","561120","0.0-12.0-0.8","03rysffm8e","many_one","0","indirect_first","0","es05ad23","0","27","1","1","3","1","","0","1","0","4011.0849998891354","","","","","neg","CS","CS","4","category4/CS10.png","targets/42.png","","direct","","99"
"","image-slider-response","293","564246","0.0-12.0-0.9","03rysffm8e","many_one","0","indirect_first","0","es05ad23","0","27","1","1","3","1","","0","1","0","3124.55500010401","","","","","pos","CS","CS","3","category3/CS5.png","targets/45.png","","direct","","100"
"","image-slider-response","294","567113","0.0-12.0-0.10","03rysffm8e","many_one","0","indirect_first","0","es05ad23","0","27","1","1","3","1","","0","1","0","2866.1249997094274","","","","","pos","CS","CS","1","category1/CS6.png","targets/32.png","","direct","","-19"
"","image-slider-response","295","569092","0.0-12.0-0.11","03rysffm8e","many_one","0","indirect_first","0","es05ad23","0","27","1","1","3","1","","0","1","0","1977.1050000563264","","","","","neg","GS","GSnew","2","category2/GS3.png","targets/27.png","","direct","","-13"
"","image-slider-response","296","571534","0.0-12.0-0.12","03rysffm8e","many_one","0","indirect_first","0","es05ad23","0","27","1","1","3","1","","0","1","0","2441.0900003276765","","","","","pos","GS","GSold","1","category1/CS1.png","targets/21.png","","direct","","-12"
"","image-slider-response","297","573874","0.0-12.0-0.13","03rysffm8e","many_one","0","indirect_first","0","es05ad23","0","27","1","1","3","1","","0","1","0","2339.4700000062585","","","","","pos","GS","GSold","1","category1/CS3.png","targets/14.png","","direct","","-10"
"","image-slider-response","298","576148","0.0-12.0-0.14","03rysffm8e","many_one","0","indirect_first","0","es05ad23","0","27","1","1","3","1","","0","1","0","2272.5500003434718","","","","","pos","GS","GSold","3","category3/CS4.png","targets/6.png","","direct","","14"
"","image-slider-response","299","578009","0.0-12.0-0.15","03rysffm8e","many_one","0","indirect_first","0","es05ad23","0","27","1","1","3","1","","0","1","0","1859.9550002254546","","","","","pos","GS","GSold","3","category3/CS7.png","targets/40.png","","direct","","10"
"","image-slider-response","300","581228","0.0-12.0-0.16","03rysffm8e","many_one","0","indirect_first","0","es05ad23","0","27","1","1","3","1","","0","1","0","3218.4450002387166","","","","","pos","GS","GSnew","3","category3/GS3.png","targets/22.png","","direct","","100"
"","image-slider-response","301","583374","0.0-12.0-0.17","03rysffm8e","many_one","0","indirect_first","0","es05ad23","0","27","1","1","3","1","","0","1","0","2144.8500002734363","","","","","pos","CS","CS","3","category3/CS6.png","targets/28.png","","direct","","27"
"","image-slider-response","302","585048","0.0-12.0-0.18","03rysffm8e","many_one","0","indirect_first","0","es05ad23","0","27","1","1","3","1","","0","1","0","1673.040000256151","","","","","pos","CS","CS","1","category1/CS4.png","targets/33.png","","direct","","-16"
"","image-slider-response","303","587476","0.0-12.0-0.19","03rysffm8e","many_one","0","indirect_first","0","es05ad23","0","27","1","1","3","1","","0","1","0","2427.244999911636","","","","","pos","GS","abstract","3","category3/wang.png","targets/41.png","","direct","","100"
"","image-slider-response","304","591890","0.0-12.0-0.20","03rysffm8e","many_one","0","indirect_first","0","es05ad23","0","27","1","1","3","1","","0","1","0","4412.465000059456","","","","","pos","CS","CS","1","category1/CS5.png","targets/7.png","","direct","","-16"
"","image-slider-response","305","594727","0.0-12.0-0.21","03rysffm8e","many_one","0","indirect_first","0","es05ad23","0","27","1","1","3","1","","0","1","0","2835.609999950975","","","","","neg","CS","CS","4","category4/CS3.png","targets/11.png","","direct","","69"
"","image-slider-response","306","597096","0.0-12.0-0.22","03rysffm8e","many_one","0","indirect_first","0","es05ad23","0","27","1","1","3","1","","0","1","0","2368.644999805838","","","","","neg","CS","CS","2","category2/CS5.png","targets/34.png","","direct","","-22"
"","image-slider-response","307","599201","0.0-12.0-0.23","03rysffm8e","many_one","0","indirect_first","0","es05ad23","0","27","1","1","3","1","","0","1","0","2104.2249999009073","","","","","neg","GS","GSold","4","category4/CS2.png","targets/25.png","","direct","","100"
"","image-slider-response","308","601141","0.0-12.0-0.24","03rysffm8e","many_one","0","indirect_first","0","es05ad23","0","27","1","1","3","1","","0","1","0","1939.159999601543","","","","","neg","GS","GSnew","4","category4/GS2.png","targets/31.png","","direct","","-16"
"","image-slider-response","309","603504","0.0-12.0-0.25","03rysffm8e","many_one","0","indirect_first","0","es05ad23","0","27","1","1","3","1","","0","1","0","2362.110000103712","","","","","neg","GS","GSnew","4","category4/GS1.png","targets/23.png","","direct","","9"
"","image-slider-response","310","605597","0.0-12.0-0.26","03rysffm8e","many_one","0","indirect_first","0","es05ad23","0","27","1","1","3","1","","0","1","0","2091.535000130534","","","","","neg","CS","CS","4","category4/CS5.png","targets/35.png","","direct","","16"
"","image-slider-response","311","607981","0.0-12.0-0.27","03rysffm8e","many_one","0","indirect_first","0","es05ad23","0","27","1","1","3","1","","0","1","0","2383.295000065118","","","","","pos","GS","GSnew","1","category1/GS2.png","targets/15.png","","direct","","-12"
"","image-slider-response","312","609792","0.0-12.0-0.28","03rysffm8e","many_one","0","indirect_first","0","es05ad23","0","27","1","1","3","1","","0","1","0","1809.8549996502697","","","","","neg","GS","GSnew","2","category2/GS2.png","targets/4.png","","direct","","-14"
"","image-slider-response","313","611185","0.0-12.0-0.29","03rysffm8e","many_one","0","indirect_first","0","es05ad23","0","27","1","1","3","1","","0","1","0","1391.7950000613928","","","","","neg","CS","CS","4","category4/CS6.png","targets/16.png","","direct","","-9"
"","image-slider-response","314","613158","0.0-12.0-0.30","03rysffm8e","many_one","0","indirect_first","0","es05ad23","0","27","1","1","3","1","","0","1","0","1971.7350001446903","","","","","neg","GS","GSold","4","category4/CS9.png","targets/12.png","","direct","","13"
"","image-slider-response","315","617724","0.0-12.0-0.31","03rysffm8e","many_one","0","indirect_first","0","es05ad23","0","27","1","1","3","1","","0","1","0","4565.029999706894","","","","","pos","CS","CS","3","category3/CS10.png","targets/36.png","","direct","","-12"
"","image-slider-response","316","620952","0.0-12.0-0.32","03rysffm8e","many_one","0","indirect_first","0","es05ad23","0","27","1","1","3","1","","0","1","0","3227.1150001324713","","","","","neg","CS","CS","4","category4/CS1.png","targets/18.png","","direct","","100"
"","image-slider-response","317","626528","0.0-12.0-0.33","03rysffm8e","many_one","0","indirect_first","0","es05ad23","0","27","1","1","3","1","","0","1","0","5574.7350002639","","","","","neg","GS","abstract","2","category2/men.png","targets/17.png","","direct","","13"
"","image-slider-response","318","628225","0.0-12.0-0.34","03rysffm8e","many_one","0","indirect_first","0","es05ad23","0","27","1","1","3","1","","0","1","0","1696.1250002495944","","","","","pos","CS","CS","3","category3/CS8.png","targets/8.png","","direct","","21"
"","image-slider-response","319","630108","0.0-12.0-0.35","03rysffm8e","many_one","0","indirect_first","0","es05ad23","0","27","1","1","3","1","","0","1","0","1881.7100003361702","","","","","pos","CS","CS","3","category3/CS9.png","targets/26.png","","direct","","33"
"","image-slider-response","320","633015","0.0-12.0-0.36","03rysffm8e","many_one","0","indirect_first","0","es05ad23","0","27","1","1","3","1","","0","1","0","2906.8100000731647","","","","","pos","CS","CS","1","category1/CS8.png","targets/47.png","","direct","","-14"
"","image-slider-response","321","634961","0.0-12.0-0.37","03rysffm8e","many_one","0","indirect_first","0","es05ad23","0","27","1","1","3","1","","0","1","0","1945.1250000856817","","","","","neg","CS","CS","2","category2/CS2.png","targets/48.png","","direct","","-13"
"","image-slider-response","322","637003","0.0-12.0-0.38","03rysffm8e","many_one","0","indirect_first","0","es05ad23","0","27","1","1","3","1","","0","1","0","2040.4900000430644","","","","","neg","GS","GSold","2","category2/CS7.png","targets/5.png","","direct","","-13"
"","image-slider-response","323","639311","0.0-12.0-0.39","03rysffm8e","many_one","0","indirect_first","0","es05ad23","0","27","1","1","3","1","","0","1","0","2307.4600002728403","","","","","pos","GS","GSnew","3","category3/GS1.png","targets/43.png","","direct","","27"
"","image-slider-response","324","641257","0.0-12.0-0.40","03rysffm8e","many_one","0","indirect_first","0","es05ad23","0","27","1","1","3","1","","0","1","0","1944.770000409335","","","","","pos","GS","GSnew","3","category3/GS2.png","targets/29.png","","direct","","13"
