"success","trial_type","trial_index","time_elapsed","internal_node_id","subject","condition","condition_code","measure","measure_code","codeword","gender","age","education","chinese","fach","handedness","rt","url","responses","stimulus","key_press","val","type","type_specific","category","cs_selected","target","indirect","task","nr_pres","response"
"true","fullscreen","0","8016","0.0-0.0","mk54186wco","many_one","0","indirect_first","0","ui03ng31","0","20","1","1","3","2","","","","","","","","","","","","","","",""
"","external-html","1","47751","0.0-1.0","mk54186wco","many_one","0","indirect_first","0","ui03ng31","0","20","1","1","3","2","39705","text/information.html","","","","","","","","","","","","",""
"","external-html","2","55807","0.0-2.0","mk54186wco","many_one","0","indirect_first","0","ui03ng31","0","20","1","1","3","2","8035","text/consent.html","","","","","","","","","","","","",""
"","survey-html-form","3","104541","0.0-3.0","mk54186wco","many_one","0","indirect_first","0","ui03ng31","0","20","1","1","3","2","48734","","{""codeword_enter"":""ui03ng31""}","","","","","","","","","","","",""
"","survey-html-form","4","122343","0.0-4.0","mk54186wco","many_one","0","indirect_first","0","ui03ng31","0","20","1","1","3","2","17800","","{""age"":""20"",""education"":""1"",""subject"":""3"",""gender"":""0"",""handedness"":""2"",""chinese"":""1""}","","","","","","","","","","","",""
"","survey-html-form","5","127109","0.0-5.0","mk54186wco","many_one","0","indirect_first","0","ui03ng31","0","20","1","1","3","2","4766","","{}","","","","","","","","","","","",""
"","html-keyboard-response","6","131139","0.0-6.0-0.0-0.0","mk54186wco","many_one","0","indirect_first","0","ui03ng31","0","20","1","1","3","2","null","","","<div class = 'row'><div class = 'column'><img src = 'usneg/9635.2.bmp' width = '100%;'></div><div class = 'column'><img src = 'category3/CS3.png' width = '70%;'></div></div>","null","neg","CS","CS","3","category3/CS3.png","","","","",""
"","html-keyboard-response","7","133668","0.0-6.0-0.0-0.1","mk54186wco","many_one","0","indirect_first","0","ui03ng31","0","20","1","1","3","2","null","","","<div class = 'row'><div class = 'column'><img src = 'category3/CS4.png' width = '70%;'></div><div class = 'column'><img src = 'usneg/8485.bmp' width = '100%;'></div></div>","null","neg","CS","CS","3","category3/CS4.png","","","","",""
"","html-keyboard-response","8","136208","0.0-6.0-0.0-0.2","mk54186wco","many_one","0","indirect_first","0","ui03ng31","0","20","1","1","3","2","null","","","<div class = 'row'><div class = 'column'><img src = 'uspos/8190.bmp' width = '100%;'></div><div class = 'column'><img src = 'category4/CS3.png' width = '70%;'></div></div>","null","pos","CS","CS","4","category4/CS3.png","","","","",""
"","html-keyboard-response","9","138748","0.0-6.0-0.0-0.3","mk54186wco","many_one","0","indirect_first","0","ui03ng31","0","20","1","1","3","2","null","","","<div class = 'row'><div class = 'column'><img src = 'category2/CS5.png' width = '70%;'></div><div class = 'column'><img src = 'uspos/5700.bmp' width = '100%;'></div></div>","null","pos","CS","CS","2","category2/CS5.png","","","","",""
"","html-keyboard-response","10","141268","0.0-6.0-0.0-0.4","mk54186wco","many_one","0","indirect_first","0","ui03ng31","0","20","1","1","3","2","null","","","<div class = 'row'><div class = 'column'><img src = 'usneg/9920.bmp' width = '100%;'></div><div class = 'column'><img src = 'category3/CS7.png' width = '70%;'></div></div>","null","neg","CS","CS","3","category3/CS7.png","","","","",""
"","html-keyboard-response","11","143807","0.0-6.0-0.0-0.5","mk54186wco","many_one","0","indirect_first","0","ui03ng31","0","20","1","1","3","2","null","","","<div class = 'row'><div class = 'column'><img src = 'category1/CS7.png' width = '70%;'></div><div class = 'column'><img src = 'usneg/9435.bmp' width = '100%;'></div></div>","null","neg","CS","CS","1","category1/CS7.png","","","","",""
"","html-keyboard-response","12","146347","0.0-6.0-0.0-0.6","mk54186wco","many_one","0","indirect_first","0","ui03ng31","0","20","1","1","3","2","null","","","<div class = 'row'><div class = 'column'><img src = 'uspos/5621.bmp' width = '100%;'></div><div class = 'column'><img src = 'category2/CS6.png' width = '70%;'></div></div>","null","pos","CS","CS","2","category2/CS6.png","","","","",""
"","html-keyboard-response","13","148877","0.0-6.0-0.0-0.7","mk54186wco","many_one","0","indirect_first","0","ui03ng31","0","20","1","1","3","2","null","","","<div class = 'row'><div class = 'column'><img src = 'category2/CS7.png' width = '70%;'></div><div class = 'column'><img src = 'uspos/5600.bmp' width = '100%;'></div></div>","null","pos","CS","CS","2","category2/CS7.png","","","","",""
"","html-keyboard-response","14","151407","0.0-6.0-0.0-0.8","mk54186wco","many_one","0","indirect_first","0","ui03ng31","0","20","1","1","3","2","null","","","<div class = 'row'><div class = 'column'><img src = 'category2/CS2.png' width = '70%;'></div><div class = 'column'><img src = 'uspos/2360.bmp' width = '100%;'></div></div>","null","pos","CS","CS","2","category2/CS2.png","","","","",""
"","html-keyboard-response","15","153937","0.0-6.0-0.0-0.9","mk54186wco","many_one","0","indirect_first","0","ui03ng31","0","20","1","1","3","2","null","","","<div class = 'row'><div class = 'column'><img src = 'usneg/9000.bmp' width = '100%;'></div><div class = 'column'><img src = 'category1/CS6.png' width = '70%;'></div></div>","null","neg","CS","CS","1","category1/CS6.png","","","","",""
"","html-keyboard-response","16","156477","0.0-6.0-0.0-0.10","mk54186wco","many_one","0","indirect_first","0","ui03ng31","0","20","1","1","3","2","null","","","<div class = 'row'><div class = 'column'><img src = 'category3/CS6.png' width = '70%;'></div><div class = 'column'><img src = 'usneg/6212.bmp' width = '100%;'></div></div>","null","neg","CS","CS","3","category3/CS6.png","","","","",""
"","html-keyboard-response","17","159017","0.0-6.0-0.0-0.11","mk54186wco","many_one","0","indirect_first","0","ui03ng31","0","20","1","1","3","2","null","","","<div class = 'row'><div class = 'column'><img src = 'category3/CS5.png' width = '70%;'></div><div class = 'column'><img src = 'usneg/3300.bmp' width = '100%;'></div></div>","null","neg","CS","CS","3","category3/CS5.png","","","","",""
"","html-keyboard-response","18","161556","0.0-6.0-0.0-0.12","mk54186wco","many_one","0","indirect_first","0","ui03ng31","0","20","1","1","3","2","null","","","<div class = 'row'><div class = 'column'><img src = 'uspos/8490.bmp' width = '100%;'></div><div class = 'column'><img src = 'category4/CS2.png' width = '70%;'></div></div>","null","pos","CS","CS","4","category4/CS2.png","","","","",""
"","html-keyboard-response","19","164097","0.0-6.0-0.0-0.13","mk54186wco","many_one","0","indirect_first","0","ui03ng31","0","20","1","1","3","2","null","","","<div class = 'row'><div class = 'column'><img src = 'usneg/1280.bmp' width = '100%;'></div><div class = 'column'><img src = 'category1/CS2.png' width = '70%;'></div></div>","null","neg","CS","CS","1","category1/CS2.png","","","","",""
"","html-keyboard-response","20","166635","0.0-6.0-0.0-0.14","mk54186wco","many_one","0","indirect_first","0","ui03ng31","0","20","1","1","3","2","null","","","<div class = 'row'><div class = 'column'><img src = 'usneg/6570.1.bmp' width = '100%;'></div><div class = 'column'><img src = 'category1/CS9.png' width = '70%;'></div></div>","null","neg","CS","CS","1","category1/CS9.png","","","","",""
"","html-keyboard-response","21","169177","0.0-6.0-0.0-0.15","mk54186wco","many_one","0","indirect_first","0","ui03ng31","0","20","1","1","3","2","null","","","<div class = 'row'><div class = 'column'><img src = 'uspos/5629.bmp' width = '100%;'></div><div class = 'column'><img src = 'category4/CS7.png' width = '70%;'></div></div>","null","pos","CS","CS","4","category4/CS7.png","","","","",""
"","html-keyboard-response","22","171706","0.0-6.0-0.0-0.16","mk54186wco","many_one","0","indirect_first","0","ui03ng31","0","20","1","1","3","2","null","","","<div class = 'row'><div class = 'column'><img src = 'category4/CS1.png' width = '70%;'></div><div class = 'column'><img src = 'uspos/2057.bmp' width = '100%;'></div></div>","null","pos","CS","CS","4","category4/CS1.png","","","","",""
"","html-keyboard-response","23","174246","0.0-6.0-0.0-0.17","mk54186wco","many_one","0","indirect_first","0","ui03ng31","0","20","1","1","3","2","null","","","<div class = 'row'><div class = 'column'><img src = 'usneg/9560.bmp' width = '100%;'></div><div class = 'column'><img src = 'category1/CS5.png' width = '70%;'></div></div>","null","neg","CS","CS","1","category1/CS5.png","","","","",""
"","html-keyboard-response","24","176777","0.0-6.0-0.0-0.18","mk54186wco","many_one","0","indirect_first","0","ui03ng31","0","20","1","1","3","2","null","","","<div class = 'row'><div class = 'column'><img src = 'category2/CS1.png' width = '70%;'></div><div class = 'column'><img src = 'uspos/8080.bmp' width = '100%;'></div></div>","null","pos","CS","CS","2","category2/CS1.png","","","","",""
"","html-keyboard-response","25","179315","0.0-6.0-0.0-0.19","mk54186wco","many_one","0","indirect_first","0","ui03ng31","0","20","1","1","3","2","null","","","<div class = 'row'><div class = 'column'><img src = 'uspos/2208.bmp' width = '100%;'></div><div class = 'column'><img src = 'category4/CS4.png' width = '70%;'></div></div>","null","pos","CS","CS","4","category4/CS4.png","","","","",""
"","survey-html-form","26","324425","0.0-6.0-1.0","mk54186wco","many_one","0","indirect_first","0","ui03ng31","0","20","1","1","3","2","144596","","{}","","","","","","","","","","","",""
"","html-keyboard-response","27","328464","0.0-6.0-2.0-0.0","mk54186wco","many_one","0","indirect_first","0","ui03ng31","0","20","1","1","3","2","null","","","<div class = 'row'><div class = 'column'><img src = 'category3/CS6.png' width = '70%;'></div><div class = 'column'><img src = 'usneg/6212.bmp' width = '100%;'></div></div>","null","neg","CS","CS","3","category3/CS6.png","","","","",""
"","html-keyboard-response","28","331003","0.0-6.0-2.0-0.1","mk54186wco","many_one","0","indirect_first","0","ui03ng31","0","20","1","1","3","2","null","","","<div class = 'row'><div class = 'column'><img src = 'category1/CS7.png' width = '70%;'></div><div class = 'column'><img src = 'usneg/9435.bmp' width = '100%;'></div></div>","null","neg","CS","CS","1","category1/CS7.png","","","","",""
"","html-keyboard-response","29","333539","0.0-6.0-2.0-0.2","mk54186wco","many_one","0","indirect_first","0","ui03ng31","0","20","1","1","3","2","null","","","<div class = 'row'><div class = 'column'><img src = 'usneg/6570.1.bmp' width = '100%;'></div><div class = 'column'><img src = 'category1/CS9.png' width = '70%;'></div></div>","null","neg","CS","CS","1","category1/CS9.png","","","","",""
"","html-keyboard-response","30","336043","0.0-6.0-2.0-0.3","mk54186wco","many_one","0","indirect_first","0","ui03ng31","0","20","1","1","3","2","null","","","<div class = 'row'><div class = 'column'><img src = 'category4/CS7.png' width = '70%;'></div><div class = 'column'><img src = 'uspos/5629.bmp' width = '100%;'></div></div>","null","pos","CS","CS","4","category4/CS7.png","","","","",""
"","html-keyboard-response","31","338583","0.0-6.0-2.0-0.4","mk54186wco","many_one","0","indirect_first","0","ui03ng31","0","20","1","1","3","2","null","","","<div class = 'row'><div class = 'column'><img src = 'category3/CS5.png' width = '70%;'></div><div class = 'column'><img src = 'usneg/3300.bmp' width = '100%;'></div></div>","null","neg","CS","CS","3","category3/CS5.png","","","","",""
"","html-keyboard-response","32","341123","0.0-6.0-2.0-0.5","mk54186wco","many_one","0","indirect_first","0","ui03ng31","0","20","1","1","3","2","null","","","<div class = 'row'><div class = 'column'><img src = 'usneg/9560.bmp' width = '100%;'></div><div class = 'column'><img src = 'category1/CS5.png' width = '70%;'></div></div>","null","neg","CS","CS","1","category1/CS5.png","","","","",""
"","html-keyboard-response","33","343663","0.0-6.0-2.0-0.6","mk54186wco","many_one","0","indirect_first","0","ui03ng31","0","20","1","1","3","2","null","","","<div class = 'row'><div class = 'column'><img src = 'category3/CS3.png' width = '70%;'></div><div class = 'column'><img src = 'usneg/9635.2.bmp' width = '100%;'></div></div>","null","neg","CS","CS","3","category3/CS3.png","","","","",""
"","html-keyboard-response","34","346203","0.0-6.0-2.0-0.7","mk54186wco","many_one","0","indirect_first","0","ui03ng31","0","20","1","1","3","2","null","","","<div class = 'row'><div class = 'column'><img src = 'category2/CS2.png' width = '70%;'></div><div class = 'column'><img src = 'uspos/2360.bmp' width = '100%;'></div></div>","null","pos","CS","CS","2","category2/CS2.png","","","","",""
"","html-keyboard-response","35","348734","0.0-6.0-2.0-0.8","mk54186wco","many_one","0","indirect_first","0","ui03ng31","0","20","1","1","3","2","null","","","<div class = 'row'><div class = 'column'><img src = 'uspos/5700.bmp' width = '100%;'></div><div class = 'column'><img src = 'category2/CS5.png' width = '70%;'></div></div>","null","pos","CS","CS","2","category2/CS5.png","","","","",""
"","html-keyboard-response","36","351273","0.0-6.0-2.0-0.9","mk54186wco","many_one","0","indirect_first","0","ui03ng31","0","20","1","1","3","2","null","","","<div class = 'row'><div class = 'column'><img src = 'usneg/8485.bmp' width = '100%;'></div><div class = 'column'><img src = 'category3/CS4.png' width = '70%;'></div></div>","null","neg","CS","CS","3","category3/CS4.png","","","","",""
"","html-keyboard-response","37","353813","0.0-6.0-2.0-0.10","mk54186wco","many_one","0","indirect_first","0","ui03ng31","0","20","1","1","3","2","null","","","<div class = 'row'><div class = 'column'><img src = 'usneg/9920.bmp' width = '100%;'></div><div class = 'column'><img src = 'category3/CS7.png' width = '70%;'></div></div>","null","neg","CS","CS","3","category3/CS7.png","","","","",""
"","html-keyboard-response","38","356343","0.0-6.0-2.0-0.11","mk54186wco","many_one","0","indirect_first","0","ui03ng31","0","20","1","1","3","2","null","","","<div class = 'row'><div class = 'column'><img src = 'category4/CS1.png' width = '70%;'></div><div class = 'column'><img src = 'uspos/2057.bmp' width = '100%;'></div></div>","null","pos","CS","CS","4","category4/CS1.png","","","","",""
"","html-keyboard-response","39","358883","0.0-6.0-2.0-0.12","mk54186wco","many_one","0","indirect_first","0","ui03ng31","0","20","1","1","3","2","null","","","<div class = 'row'><div class = 'column'><img src = 'category1/CS2.png' width = '70%;'></div><div class = 'column'><img src = 'usneg/1280.bmp' width = '100%;'></div></div>","null","neg","CS","CS","1","category1/CS2.png","","","","",""
"","html-keyboard-response","40","361403","0.0-6.0-2.0-0.13","mk54186wco","many_one","0","indirect_first","0","ui03ng31","0","20","1","1","3","2","null","","","<div class = 'row'><div class = 'column'><img src = 'uspos/8190.bmp' width = '100%;'></div><div class = 'column'><img src = 'category4/CS3.png' width = '70%;'></div></div>","null","pos","CS","CS","4","category4/CS3.png","","","","",""
"","html-keyboard-response","41","363944","0.0-6.0-2.0-0.14","mk54186wco","many_one","0","indirect_first","0","ui03ng31","0","20","1","1","3","2","null","","","<div class = 'row'><div class = 'column'><img src = 'category2/CS7.png' width = '70%;'></div><div class = 'column'><img src = 'uspos/5600.bmp' width = '100%;'></div></div>","null","pos","CS","CS","2","category2/CS7.png","","","","",""
"","html-keyboard-response","42","366483","0.0-6.0-2.0-0.15","mk54186wco","many_one","0","indirect_first","0","ui03ng31","0","20","1","1","3","2","null","","","<div class = 'row'><div class = 'column'><img src = 'category1/CS6.png' width = '70%;'></div><div class = 'column'><img src = 'usneg/9000.bmp' width = '100%;'></div></div>","null","neg","CS","CS","1","category1/CS6.png","","","","",""
"","html-keyboard-response","43","369024","0.0-6.0-2.0-0.16","mk54186wco","many_one","0","indirect_first","0","ui03ng31","0","20","1","1","3","2","null","","","<div class = 'row'><div class = 'column'><img src = 'category2/CS6.png' width = '70%;'></div><div class = 'column'><img src = 'uspos/5621.bmp' width = '100%;'></div></div>","null","pos","CS","CS","2","category2/CS6.png","","","","",""
"","html-keyboard-response","44","371563","0.0-6.0-2.0-0.17","mk54186wco","many_one","0","indirect_first","0","ui03ng31","0","20","1","1","3","2","null","","","<div class = 'row'><div class = 'column'><img src = 'category4/CS4.png' width = '70%;'></div><div class = 'column'><img src = 'uspos/2208.bmp' width = '100%;'></div></div>","null","pos","CS","CS","4","category4/CS4.png","","","","",""
"","html-keyboard-response","45","374103","0.0-6.0-2.0-0.18","mk54186wco","many_one","0","indirect_first","0","ui03ng31","0","20","1","1","3","2","null","","","<div class = 'row'><div class = 'column'><img src = 'uspos/8080.bmp' width = '100%;'></div><div class = 'column'><img src = 'category2/CS1.png' width = '70%;'></div></div>","null","pos","CS","CS","2","category2/CS1.png","","","","",""
"","html-keyboard-response","46","376643","0.0-6.0-2.0-0.19","mk54186wco","many_one","0","indirect_first","0","ui03ng31","0","20","1","1","3","2","null","","","<div class = 'row'><div class = 'column'><img src = 'category4/CS2.png' width = '70%;'></div><div class = 'column'><img src = 'uspos/8490.bmp' width = '100%;'></div></div>","null","pos","CS","CS","4","category4/CS2.png","","","","",""
"","survey-html-form","47","481505","0.0-6.0-3.0","mk54186wco","many_one","0","indirect_first","0","ui03ng31","0","20","1","1","3","2","104342","","{}","","","","","","","","","","","",""
"","html-keyboard-response","48","485543","0.0-6.0-4.0-0.0","mk54186wco","many_one","0","indirect_first","0","ui03ng31","0","20","1","1","3","2","null","","","<div class = 'row'><div class = 'column'><img src = 'usneg/1280.bmp' width = '100%;'></div><div class = 'column'><img src = 'category1/CS2.png' width = '70%;'></div></div>","null","neg","CS","CS","1","category1/CS2.png","","","","",""
"","html-keyboard-response","49","488063","0.0-6.0-4.0-0.1","mk54186wco","many_one","0","indirect_first","0","ui03ng31","0","20","1","1","3","2","null","","","<div class = 'row'><div class = 'column'><img src = 'usneg/9920.bmp' width = '100%;'></div><div class = 'column'><img src = 'category3/CS7.png' width = '70%;'></div></div>","null","neg","CS","CS","3","category3/CS7.png","","","","",""
"","html-keyboard-response","50","490584","0.0-6.0-4.0-0.2","mk54186wco","many_one","0","indirect_first","0","ui03ng31","0","20","1","1","3","2","null","","","<div class = 'row'><div class = 'column'><img src = 'usneg/9635.2.bmp' width = '100%;'></div><div class = 'column'><img src = 'category3/CS3.png' width = '70%;'></div></div>","null","neg","CS","CS","3","category3/CS3.png","","","","",""
"","html-keyboard-response","51","493123","0.0-6.0-4.0-0.3","mk54186wco","many_one","0","indirect_first","0","ui03ng31","0","20","1","1","3","2","null","","","<div class = 'row'><div class = 'column'><img src = 'uspos/8080.bmp' width = '100%;'></div><div class = 'column'><img src = 'category2/CS1.png' width = '70%;'></div></div>","null","pos","CS","CS","2","category2/CS1.png","","","","",""
"","html-keyboard-response","52","495663","0.0-6.0-4.0-0.4","mk54186wco","many_one","0","indirect_first","0","ui03ng31","0","20","1","1","3","2","null","","","<div class = 'row'><div class = 'column'><img src = 'category2/CS5.png' width = '70%;'></div><div class = 'column'><img src = 'uspos/5700.bmp' width = '100%;'></div></div>","null","pos","CS","CS","2","category2/CS5.png","","","","",""
"","html-keyboard-response","53","498203","0.0-6.0-4.0-0.5","mk54186wco","many_one","0","indirect_first","0","ui03ng31","0","20","1","1","3","2","null","","","<div class = 'row'><div class = 'column'><img src = 'category4/CS7.png' width = '70%;'></div><div class = 'column'><img src = 'uspos/5629.bmp' width = '100%;'></div></div>","null","pos","CS","CS","4","category4/CS7.png","","","","",""
"","html-keyboard-response","54","500743","0.0-6.0-4.0-0.6","mk54186wco","many_one","0","indirect_first","0","ui03ng31","0","20","1","1","3","2","null","","","<div class = 'row'><div class = 'column'><img src = 'category4/CS4.png' width = '70%;'></div><div class = 'column'><img src = 'uspos/2208.bmp' width = '100%;'></div></div>","null","pos","CS","CS","4","category4/CS4.png","","","","",""
"","html-keyboard-response","55","503283","0.0-6.0-4.0-0.7","mk54186wco","many_one","0","indirect_first","0","ui03ng31","0","20","1","1","3","2","null","","","<div class = 'row'><div class = 'column'><img src = 'uspos/2360.bmp' width = '100%;'></div><div class = 'column'><img src = 'category2/CS2.png' width = '70%;'></div></div>","null","pos","CS","CS","2","category2/CS2.png","","","","",""
"","html-keyboard-response","56","505823","0.0-6.0-4.0-0.8","mk54186wco","many_one","0","indirect_first","0","ui03ng31","0","20","1","1","3","2","null","","","<div class = 'row'><div class = 'column'><img src = 'category1/CS9.png' width = '70%;'></div><div class = 'column'><img src = 'usneg/6570.1.bmp' width = '100%;'></div></div>","null","neg","CS","CS","1","category1/CS9.png","","","","",""
"","html-keyboard-response","57","508363","0.0-6.0-4.0-0.9","mk54186wco","many_one","0","indirect_first","0","ui03ng31","0","20","1","1","3","2","null","","","<div class = 'row'><div class = 'column'><img src = 'uspos/5600.bmp' width = '100%;'></div><div class = 'column'><img src = 'category2/CS7.png' width = '70%;'></div></div>","null","pos","CS","CS","2","category2/CS7.png","","","","",""
"","html-keyboard-response","58","510903","0.0-6.0-4.0-0.10","mk54186wco","many_one","0","indirect_first","0","ui03ng31","0","20","1","1","3","2","null","","","<div class = 'row'><div class = 'column'><img src = 'usneg/9560.bmp' width = '100%;'></div><div class = 'column'><img src = 'category1/CS5.png' width = '70%;'></div></div>","null","neg","CS","CS","1","category1/CS5.png","","","","",""
"","html-keyboard-response","59","513443","0.0-6.0-4.0-0.11","mk54186wco","many_one","0","indirect_first","0","ui03ng31","0","20","1","1","3","2","null","","","<div class = 'row'><div class = 'column'><img src = 'usneg/6212.bmp' width = '100%;'></div><div class = 'column'><img src = 'category3/CS6.png' width = '70%;'></div></div>","null","neg","CS","CS","3","category3/CS6.png","","","","",""
"","html-keyboard-response","60","515983","0.0-6.0-4.0-0.12","mk54186wco","many_one","0","indirect_first","0","ui03ng31","0","20","1","1","3","2","null","","","<div class = 'row'><div class = 'column'><img src = 'usneg/9000.bmp' width = '100%;'></div><div class = 'column'><img src = 'category1/CS6.png' width = '70%;'></div></div>","null","neg","CS","CS","1","category1/CS6.png","","","","",""
"","html-keyboard-response","61","518523","0.0-6.0-4.0-0.13","mk54186wco","many_one","0","indirect_first","0","ui03ng31","0","20","1","1","3","2","null","","","<div class = 'row'><div class = 'column'><img src = 'category4/CS3.png' width = '70%;'></div><div class = 'column'><img src = 'uspos/8190.bmp' width = '100%;'></div></div>","null","pos","CS","CS","4","category4/CS3.png","","","","",""
"","html-keyboard-response","62","521063","0.0-6.0-4.0-0.14","mk54186wco","many_one","0","indirect_first","0","ui03ng31","0","20","1","1","3","2","null","","","<div class = 'row'><div class = 'column'><img src = 'category2/CS6.png' width = '70%;'></div><div class = 'column'><img src = 'uspos/5621.bmp' width = '100%;'></div></div>","null","pos","CS","CS","2","category2/CS6.png","","","","",""
"","html-keyboard-response","63","523603","0.0-6.0-4.0-0.15","mk54186wco","many_one","0","indirect_first","0","ui03ng31","0","20","1","1","3","2","null","","","<div class = 'row'><div class = 'column'><img src = 'uspos/2057.bmp' width = '100%;'></div><div class = 'column'><img src = 'category4/CS1.png' width = '70%;'></div></div>","null","pos","CS","CS","4","category4/CS1.png","","","","",""
"","html-keyboard-response","64","526133","0.0-6.0-4.0-0.16","mk54186wco","many_one","0","indirect_first","0","ui03ng31","0","20","1","1","3","2","null","","","<div class = 'row'><div class = 'column'><img src = 'uspos/8490.bmp' width = '100%;'></div><div class = 'column'><img src = 'category4/CS2.png' width = '70%;'></div></div>","null","pos","CS","CS","4","category4/CS2.png","","","","",""
"","html-keyboard-response","65","528673","0.0-6.0-4.0-0.17","mk54186wco","many_one","0","indirect_first","0","ui03ng31","0","20","1","1","3","2","null","","","<div class = 'row'><div class = 'column'><img src = 'usneg/8485.bmp' width = '100%;'></div><div class = 'column'><img src = 'category3/CS4.png' width = '70%;'></div></div>","null","neg","CS","CS","3","category3/CS4.png","","","","",""
"","html-keyboard-response","66","531204","0.0-6.0-4.0-0.18","mk54186wco","many_one","0","indirect_first","0","ui03ng31","0","20","1","1","3","2","null","","","<div class = 'row'><div class = 'column'><img src = 'usneg/9435.bmp' width = '100%;'></div><div class = 'column'><img src = 'category1/CS7.png' width = '70%;'></div></div>","null","neg","CS","CS","1","category1/CS7.png","","","","",""
"","html-keyboard-response","67","533743","0.0-6.0-4.0-0.19","mk54186wco","many_one","0","indirect_first","0","ui03ng31","0","20","1","1","3","2","null","","","<div class = 'row'><div class = 'column'><img src = 'usneg/3300.bmp' width = '100%;'></div><div class = 'column'><img src = 'category3/CS5.png' width = '70%;'></div></div>","null","neg","CS","CS","3","category3/CS5.png","","","","",""
"","survey-html-form","68","629601","0.0-6.0-5.0","mk54186wco","many_one","0","indirect_first","0","ui03ng31","0","20","1","1","3","2","95338","","{}","","","","","","","","","","","",""
"","html-keyboard-response","69","633633","0.0-6.0-6.0-0.0","mk54186wco","many_one","0","indirect_first","0","ui03ng31","0","20","1","1","3","2","null","","","<div class = 'row'><div class = 'column'><img src = 'category2/CS1.png' width = '70%;'></div><div class = 'column'><img src = 'uspos/8080.bmp' width = '100%;'></div></div>","null","pos","CS","CS","2","category2/CS1.png","","","","",""
"","html-keyboard-response","70","636173","0.0-6.0-6.0-0.1","mk54186wco","many_one","0","indirect_first","0","ui03ng31","0","20","1","1","3","2","null","","","<div class = 'row'><div class = 'column'><img src = 'category1/CS2.png' width = '70%;'></div><div class = 'column'><img src = 'usneg/1280.bmp' width = '100%;'></div></div>","null","neg","CS","CS","1","category1/CS2.png","","","","",""
"","html-keyboard-response","71","638712","0.0-6.0-6.0-0.2","mk54186wco","many_one","0","indirect_first","0","ui03ng31","0","20","1","1","3","2","null","","","<div class = 'row'><div class = 'column'><img src = 'category1/CS7.png' width = '70%;'></div><div class = 'column'><img src = 'usneg/9435.bmp' width = '100%;'></div></div>","null","neg","CS","CS","1","category1/CS7.png","","","","",""
"","html-keyboard-response","72","641253","0.0-6.0-6.0-0.3","mk54186wco","many_one","0","indirect_first","0","ui03ng31","0","20","1","1","3","2","null","","","<div class = 'row'><div class = 'column'><img src = 'category3/CS4.png' width = '70%;'></div><div class = 'column'><img src = 'usneg/8485.bmp' width = '100%;'></div></div>","null","neg","CS","CS","3","category3/CS4.png","","","","",""
"","html-keyboard-response","73","643783","0.0-6.0-6.0-0.4","mk54186wco","many_one","0","indirect_first","0","ui03ng31","0","20","1","1","3","2","null","","","<div class = 'row'><div class = 'column'><img src = 'usneg/9560.bmp' width = '100%;'></div><div class = 'column'><img src = 'category1/CS5.png' width = '70%;'></div></div>","null","neg","CS","CS","1","category1/CS5.png","","","","",""
"","html-keyboard-response","74","646323","0.0-6.0-6.0-0.5","mk54186wco","many_one","0","indirect_first","0","ui03ng31","0","20","1","1","3","2","null","","","<div class = 'row'><div class = 'column'><img src = 'uspos/5700.bmp' width = '100%;'></div><div class = 'column'><img src = 'category2/CS5.png' width = '70%;'></div></div>","null","pos","CS","CS","2","category2/CS5.png","","","","",""
"","html-keyboard-response","75","648853","0.0-6.0-6.0-0.6","mk54186wco","many_one","0","indirect_first","0","ui03ng31","0","20","1","1","3","2","null","","","<div class = 'row'><div class = 'column'><img src = 'category2/CS7.png' width = '70%;'></div><div class = 'column'><img src = 'uspos/5600.bmp' width = '100%;'></div></div>","null","pos","CS","CS","2","category2/CS7.png","","","","",""
"","html-keyboard-response","76","651392","0.0-6.0-6.0-0.7","mk54186wco","many_one","0","indirect_first","0","ui03ng31","0","20","1","1","3","2","null","","","<div class = 'row'><div class = 'column'><img src = 'category3/CS3.png' width = '70%;'></div><div class = 'column'><img src = 'usneg/9635.2.bmp' width = '100%;'></div></div>","null","neg","CS","CS","3","category3/CS3.png","","","","",""
"","html-keyboard-response","77","653923","0.0-6.0-6.0-0.8","mk54186wco","many_one","0","indirect_first","0","ui03ng31","0","20","1","1","3","2","null","","","<div class = 'row'><div class = 'column'><img src = 'uspos/5621.bmp' width = '100%;'></div><div class = 'column'><img src = 'category2/CS6.png' width = '70%;'></div></div>","null","pos","CS","CS","2","category2/CS6.png","","","","",""
"","html-keyboard-response","78","656463","0.0-6.0-6.0-0.9","mk54186wco","many_one","0","indirect_first","0","ui03ng31","0","20","1","1","3","2","null","","","<div class = 'row'><div class = 'column'><img src = 'usneg/9000.bmp' width = '100%;'></div><div class = 'column'><img src = 'category1/CS6.png' width = '70%;'></div></div>","null","neg","CS","CS","1","category1/CS6.png","","","","",""
"","html-keyboard-response","79","659003","0.0-6.0-6.0-0.10","mk54186wco","many_one","0","indirect_first","0","ui03ng31","0","20","1","1","3","2","null","","","<div class = 'row'><div class = 'column'><img src = 'category1/CS9.png' width = '70%;'></div><div class = 'column'><img src = 'usneg/6570.1.bmp' width = '100%;'></div></div>","null","neg","CS","CS","1","category1/CS9.png","","","","",""
"","html-keyboard-response","80","661543","0.0-6.0-6.0-0.11","mk54186wco","many_one","0","indirect_first","0","ui03ng31","0","20","1","1","3","2","null","","","<div class = 'row'><div class = 'column'><img src = 'category4/CS3.png' width = '70%;'></div><div class = 'column'><img src = 'uspos/8190.bmp' width = '100%;'></div></div>","null","pos","CS","CS","4","category4/CS3.png","","","","",""
"","html-keyboard-response","81","664083","0.0-6.0-6.0-0.12","mk54186wco","many_one","0","indirect_first","0","ui03ng31","0","20","1","1","3","2","null","","","<div class = 'row'><div class = 'column'><img src = 'category4/CS2.png' width = '70%;'></div><div class = 'column'><img src = 'uspos/8490.bmp' width = '100%;'></div></div>","null","pos","CS","CS","4","category4/CS2.png","","","","",""
"","html-keyboard-response","82","666613","0.0-6.0-6.0-0.13","mk54186wco","many_one","0","indirect_first","0","ui03ng31","0","20","1","1","3","2","null","","","<div class = 'row'><div class = 'column'><img src = 'category3/CS7.png' width = '70%;'></div><div class = 'column'><img src = 'usneg/9920.bmp' width = '100%;'></div></div>","null","neg","CS","CS","3","category3/CS7.png","","","","",""
"","html-keyboard-response","83","669148","0.0-6.0-6.0-0.14","mk54186wco","many_one","0","indirect_first","0","ui03ng31","0","20","1","1","3","2","null","","","<div class = 'row'><div class = 'column'><img src = 'usneg/3300.bmp' width = '100%;'></div><div class = 'column'><img src = 'category3/CS5.png' width = '70%;'></div></div>","null","neg","CS","CS","3","category3/CS5.png","","","","",""
"","html-keyboard-response","84","671653","0.0-6.0-6.0-0.15","mk54186wco","many_one","0","indirect_first","0","ui03ng31","0","20","1","1","3","2","null","","","<div class = 'row'><div class = 'column'><img src = 'uspos/5629.bmp' width = '100%;'></div><div class = 'column'><img src = 'category4/CS7.png' width = '70%;'></div></div>","null","pos","CS","CS","4","category4/CS7.png","","","","",""
"","html-keyboard-response","85","674193","0.0-6.0-6.0-0.16","mk54186wco","many_one","0","indirect_first","0","ui03ng31","0","20","1","1","3","2","null","","","<div class = 'row'><div class = 'column'><img src = 'category2/CS2.png' width = '70%;'></div><div class = 'column'><img src = 'uspos/2360.bmp' width = '100%;'></div></div>","null","pos","CS","CS","2","category2/CS2.png","","","","",""
"","html-keyboard-response","86","676733","0.0-6.0-6.0-0.17","mk54186wco","many_one","0","indirect_first","0","ui03ng31","0","20","1","1","3","2","null","","","<div class = 'row'><div class = 'column'><img src = 'uspos/2208.bmp' width = '100%;'></div><div class = 'column'><img src = 'category4/CS4.png' width = '70%;'></div></div>","null","pos","CS","CS","4","category4/CS4.png","","","","",""
"","html-keyboard-response","87","679273","0.0-6.0-6.0-0.18","mk54186wco","many_one","0","indirect_first","0","ui03ng31","0","20","1","1","3","2","null","","","<div class = 'row'><div class = 'column'><img src = 'uspos/2057.bmp' width = '100%;'></div><div class = 'column'><img src = 'category4/CS1.png' width = '70%;'></div></div>","null","pos","CS","CS","4","category4/CS1.png","","","","",""
"","html-keyboard-response","88","681813","0.0-6.0-6.0-0.19","mk54186wco","many_one","0","indirect_first","0","ui03ng31","0","20","1","1","3","2","null","","","<div class = 'row'><div class = 'column'><img src = 'usneg/6212.bmp' width = '100%;'></div><div class = 'column'><img src = 'category3/CS6.png' width = '70%;'></div></div>","null","neg","CS","CS","3","category3/CS6.png","","","","",""
"","html-keyboard-response","89","777819","0.0-7.0","mk54186wco","many_one","0","indirect_first","0","ui03ng31","0","20","1","1","3","2","95484","","","<p>Sie sehen nun die chinesischen Zeichen nur ganz kurz, und danach die jeweilige Aussprache der Zeichen. Ihre Aufgabe ist es, für jede Silbe anzugeben, ob diese etwas angenehmes, oder unangenehmes bedeuten könnte. Verlassen Sie sich hier vor allem auf Ihre Intuition.<br><br>Die Zeichen werden nur zur Orientierung dargestellt, beachten Sie sie deshalb nicht. Konzentrieren Sie sich vor allem auf die Silben. <br>Reagieren Sie mit folgenden zwei Tasten: <br><br><b>'D' </b> wenn die Silbe etwas <b>unangenehmes</b> bedeuten könnte. <br><b>'K'</b> wenn die Silbe etwas <b>angenehmes</b> bedeuten könnte. <br><br>Bitte legen Sie nun den Zeigefinger der linken Hand auf die Taste 'D' und den Zeigefinger der rechten Hand auf die Taste 'K'. <br>Reagieren Sie auf jede Silbe so schnell wie möglich. Uns interessiert Ihre spontane Reaktion. <br> <br> <br>Drücken Sie 'D' oder 'K', um die nächste Aufgabe zu starten. </p>","75","","","","","","","","","",""
"","html-keyboard-response","90","780832","0.0-8.0-0.0","mk54186wco","many_one","0","indirect_first","0","ui03ng31","0","20","1","1","3","2","null","","","<div style=""font-size:60px;"">+</div>","null","","","","","","","","","",""
"","html-keyboard-response","91","780933","0.0-8.0-1.0","mk54186wco","many_one","0","indirect_first","0","ui03ng31","0","20","1","1","3","2","null","","","<img src = 'category2/CS5.png' width = '100%;'>","null","","","","","","","","","",""
"","html-keyboard-response","92","781213","0.0-8.0-2.0","mk54186wco","many_one","0","indirect_first","0","ui03ng31","0","20","1","1","3","2","null","","","<img src = 'targets/26.png' width = '100%;'>","null","","","","","","","","","",""
"","html-keyboard-response","93","786473","0.0-8.0-3.0","mk54186wco","many_one","0","indirect_first","0","ui03ng31","0","20","1","1","3","2","5258","","","<img src = 'targets/mask.png' width = '100%;'>","75","pos","CS","CS","2","category2/CS5.png","targets/26.png","1","indirect","0",""
"","html-keyboard-response","94","788013","0.0-8.0-0.1","mk54186wco","many_one","0","indirect_first","0","ui03ng31","0","20","1","1","3","2","null","","","<div style=""font-size:60px;"">+</div>","null","","","","","","","","","",""
"","html-keyboard-response","95","788112","0.0-8.0-1.1","mk54186wco","many_one","0","indirect_first","0","ui03ng31","0","20","1","1","3","2","null","","","<img src = 'category4/CS4.png' width = '100%;'>","null","","","","","","","","","",""
"","html-keyboard-response","96","788390","0.0-8.0-2.1","mk54186wco","many_one","0","indirect_first","0","ui03ng31","0","20","1","1","3","2","null","","","<img src = 'targets/34.png' width = '100%;'>","null","","","","","","","","","",""
"","html-keyboard-response","97","793330","0.0-8.0-3.1","mk54186wco","many_one","0","indirect_first","0","ui03ng31","0","20","1","1","3","2","4938","","","<img src = 'targets/mask.png' width = '100%;'>","68","pos","CS","CS","4","category4/CS4.png","targets/34.png","0","indirect","1",""
"","html-keyboard-response","98","794862","0.0-8.0-0.2","mk54186wco","many_one","0","indirect_first","0","ui03ng31","0","20","1","1","3","2","null","","","<div style=""font-size:60px;"">+</div>","null","","","","","","","","","",""
"","html-keyboard-response","99","794963","0.0-8.0-1.2","mk54186wco","many_one","0","indirect_first","0","ui03ng31","0","20","1","1","3","2","null","","","<img src = 'category3/CS2.png' width = '100%;'>","null","","","","","","","","","",""
"","html-keyboard-response","100","795242","0.0-8.0-2.2","mk54186wco","many_one","0","indirect_first","0","ui03ng31","0","20","1","1","3","2","null","","","<img src = 'targets/28.png' width = '100%;'>","null","","","","","","","","","",""
"","html-keyboard-response","101","800161","0.0-8.0-3.2","mk54186wco","many_one","0","indirect_first","0","ui03ng31","0","20","1","1","3","2","4918","","","<img src = 'targets/mask.png' width = '100%;'>","68","neg","GS","GSold","3","category3/CS2.png","targets/28.png","0","indirect","2",""
"","html-keyboard-response","102","801683","0.0-8.0-0.3","mk54186wco","many_one","0","indirect_first","0","ui03ng31","0","20","1","1","3","2","null","","","<div style=""font-size:60px;"">+</div>","null","","","","","","","","","",""
"","html-keyboard-response","103","801783","0.0-8.0-1.3","mk54186wco","many_one","0","indirect_first","0","ui03ng31","0","20","1","1","3","2","null","","","<img src = 'category4/CS2.png' width = '100%;'>","null","","","","","","","","","",""
"","html-keyboard-response","104","802063","0.0-8.0-2.3","mk54186wco","many_one","0","indirect_first","0","ui03ng31","0","20","1","1","3","2","null","","","<img src = 'targets/38.png' width = '100%;'>","null","","","","","","","","","",""
"","html-keyboard-response","105","806354","0.0-8.0-3.3","mk54186wco","many_one","0","indirect_first","0","ui03ng31","0","20","1","1","3","2","4290","","","<img src = 'targets/mask.png' width = '100%;'>","75","pos","CS","CS","4","category4/CS2.png","targets/38.png","1","indirect","3",""
"","html-keyboard-response","106","807863","0.0-8.0-0.4","mk54186wco","many_one","0","indirect_first","0","ui03ng31","0","20","1","1","3","2","null","","","<div style=""font-size:60px;"">+</div>","null","","","","","","","","","",""
"","html-keyboard-response","107","807963","0.0-8.0-1.4","mk54186wco","many_one","0","indirect_first","0","ui03ng31","0","20","1","1","3","2","null","","","<img src = 'category3/CS5.png' width = '100%;'>","null","","","","","","","","","",""
"","html-keyboard-response","108","808242","0.0-8.0-2.4","mk54186wco","many_one","0","indirect_first","0","ui03ng31","0","20","1","1","3","2","null","","","<img src = 'targets/32.png' width = '100%;'>","null","","","","","","","","","",""
"","html-keyboard-response","109","810178","0.0-8.0-3.4","mk54186wco","many_one","0","indirect_first","0","ui03ng31","0","20","1","1","3","2","1934","","","<img src = 'targets/mask.png' width = '100%;'>","68","neg","CS","CS","3","category3/CS5.png","targets/32.png","0","indirect","4",""
"","html-keyboard-response","110","811703","0.0-8.0-0.5","mk54186wco","many_one","0","indirect_first","0","ui03ng31","0","20","1","1","3","2","null","","","<div style=""font-size:60px;"">+</div>","null","","","","","","","","","",""
"","html-keyboard-response","111","811803","0.0-8.0-1.5","mk54186wco","many_one","0","indirect_first","0","ui03ng31","0","20","1","1","3","2","null","","","<img src = 'category2/CS1.png' width = '100%;'>","null","","","","","","","","","",""
"","html-keyboard-response","112","812082","0.0-8.0-2.5","mk54186wco","many_one","0","indirect_first","0","ui03ng31","0","20","1","1","3","2","null","","","<img src = 'targets/21.png' width = '100%;'>","null","","","","","","","","","",""
"","html-keyboard-response","113","813889","0.0-8.0-3.5","mk54186wco","many_one","0","indirect_first","0","ui03ng31","0","20","1","1","3","2","1805","","","<img src = 'targets/mask.png' width = '100%;'>","75","pos","CS","CS","2","category2/CS1.png","targets/21.png","1","indirect","5",""
"","html-keyboard-response","114","815402","0.0-8.0-0.6","mk54186wco","many_one","0","indirect_first","0","ui03ng31","0","20","1","1","3","2","null","","","<div style=""font-size:60px;"">+</div>","null","","","","","","","","","",""
"","html-keyboard-response","115","815502","0.0-8.0-1.6","mk54186wco","many_one","0","indirect_first","0","ui03ng31","0","20","1","1","3","2","null","","","<img src = 'category2/CS10.png' width = '100%;'>","null","","","","","","","","","",""
"","html-keyboard-response","116","815782","0.0-8.0-2.6","mk54186wco","many_one","0","indirect_first","0","ui03ng31","0","20","1","1","3","2","null","","","<img src = 'targets/9.png' width = '100%;'>","null","","","","","","","","","",""
"","html-keyboard-response","117","817225","0.0-8.0-3.6","mk54186wco","many_one","0","indirect_first","0","ui03ng31","0","20","1","1","3","2","1441","","","<img src = 'targets/mask.png' width = '100%;'>","68","pos","GS","GSold","2","category2/CS10.png","targets/9.png","0","indirect","6",""
"","html-keyboard-response","118","818743","0.0-8.0-0.7","mk54186wco","many_one","0","indirect_first","0","ui03ng31","0","20","1","1","3","2","null","","","<div style=""font-size:60px;"">+</div>","null","","","","","","","","","",""
"","html-keyboard-response","119","818843","0.0-8.0-1.7","mk54186wco","many_one","0","indirect_first","0","ui03ng31","0","20","1","1","3","2","null","","","<img src = 'category1/CS9.png' width = '100%;'>","null","","","","","","","","","",""
"","html-keyboard-response","120","819123","0.0-8.0-2.7","mk54186wco","many_one","0","indirect_first","0","ui03ng31","0","20","1","1","3","2","null","","","<img src = 'targets/4.png' width = '100%;'>","null","","","","","","","","","",""
"","html-keyboard-response","121","821521","0.0-8.0-3.7","mk54186wco","many_one","0","indirect_first","0","ui03ng31","0","20","1","1","3","2","2397","","","<img src = 'targets/mask.png' width = '100%;'>","75","neg","CS","CS","1","category1/CS9.png","targets/4.png","1","indirect","7",""
"","html-keyboard-response","122","823022","0.0-8.0-0.8","mk54186wco","many_one","0","indirect_first","0","ui03ng31","0","20","1","1","3","2","null","","","<div style=""font-size:60px;"">+</div>","null","","","","","","","","","",""
"","html-keyboard-response","123","823123","0.0-8.0-1.8","mk54186wco","many_one","0","indirect_first","0","ui03ng31","0","20","1","1","3","2","null","","","<img src = 'category3/CS6.png' width = '100%;'>","null","","","","","","","","","",""
"","html-keyboard-response","124","823403","0.0-8.0-2.8","mk54186wco","many_one","0","indirect_first","0","ui03ng31","0","20","1","1","3","2","null","","","<img src = 'targets/2.png' width = '100%;'>","null","","","","","","","","","",""
"","html-keyboard-response","125","825258","0.0-8.0-3.8","mk54186wco","many_one","0","indirect_first","0","ui03ng31","0","20","1","1","3","2","1854","","","<img src = 'targets/mask.png' width = '100%;'>","68","neg","CS","CS","3","category3/CS6.png","targets/2.png","0","indirect","8",""
"","html-keyboard-response","126","826773","0.0-8.0-0.9","mk54186wco","many_one","0","indirect_first","0","ui03ng31","0","20","1","1","3","2","null","","","<div style=""font-size:60px;"">+</div>","null","","","","","","","","","",""
"","html-keyboard-response","127","826873","0.0-8.0-1.9","mk54186wco","many_one","0","indirect_first","0","ui03ng31","0","20","1","1","3","2","null","","","<img src = 'category1/CS2.png' width = '100%;'>","null","","","","","","","","","",""
"","html-keyboard-response","128","827152","0.0-8.0-2.9","mk54186wco","many_one","0","indirect_first","0","ui03ng31","0","20","1","1","3","2","null","","","<img src = 'targets/5.png' width = '100%;'>","null","","","","","","","","","",""
"","html-keyboard-response","129","829994","0.0-8.0-3.9","mk54186wco","many_one","0","indirect_first","0","ui03ng31","0","20","1","1","3","2","2841","","","<img src = 'targets/mask.png' width = '100%;'>","75","neg","CS","CS","1","category1/CS2.png","targets/5.png","1","indirect","9",""
"","html-keyboard-response","130","831522","0.0-8.0-0.10","mk54186wco","many_one","0","indirect_first","0","ui03ng31","0","20","1","1","3","2","null","","","<div style=""font-size:60px;"">+</div>","null","","","","","","","","","",""
"","html-keyboard-response","131","831622","0.0-8.0-1.10","mk54186wco","many_one","0","indirect_first","0","ui03ng31","0","20","1","1","3","2","null","","","<img src = 'category3/CS9.png' width = '100%;'>","null","","","","","","","","","",""
"","html-keyboard-response","132","831902","0.0-8.0-2.10","mk54186wco","many_one","0","indirect_first","0","ui03ng31","0","20","1","1","3","2","null","","","<img src = 'targets/10.png' width = '100%;'>","null","","","","","","","","","",""
"","html-keyboard-response","133","837969","0.0-8.0-3.10","mk54186wco","many_one","0","indirect_first","0","ui03ng31","0","20","1","1","3","2","6065","","","<img src = 'targets/mask.png' width = '100%;'>","75","neg","GS","GSold","3","category3/CS9.png","targets/10.png","1","indirect","10",""
"","html-keyboard-response","134","839502","0.0-8.0-0.11","mk54186wco","many_one","0","indirect_first","0","ui03ng31","0","20","1","1","3","2","null","","","<div style=""font-size:60px;"">+</div>","null","","","","","","","","","",""
"","html-keyboard-response","135","839602","0.0-8.0-1.11","mk54186wco","many_one","0","indirect_first","0","ui03ng31","0","20","1","1","3","2","null","","","<img src = 'category3/CS4.png' width = '100%;'>","null","","","","","","","","","",""
"","html-keyboard-response","136","839883","0.0-8.0-2.11","mk54186wco","many_one","0","indirect_first","0","ui03ng31","0","20","1","1","3","2","null","","","<img src = 'targets/31.png' width = '100%;'>","null","","","","","","","","","",""
"","html-keyboard-response","137","844130","0.0-8.0-3.11","mk54186wco","many_one","0","indirect_first","0","ui03ng31","0","20","1","1","3","2","4246","","","<img src = 'targets/mask.png' width = '100%;'>","68","neg","CS","CS","3","category3/CS4.png","targets/31.png","0","indirect","11",""
"","html-keyboard-response","138","845643","0.0-8.0-0.12","mk54186wco","many_one","0","indirect_first","0","ui03ng31","0","20","1","1","3","2","null","","","<div style=""font-size:60px;"">+</div>","null","","","","","","","","","",""
"","html-keyboard-response","139","845743","0.0-8.0-1.12","mk54186wco","many_one","0","indirect_first","0","ui03ng31","0","20","1","1","3","2","null","","","<img src = 'category4/CS3.png' width = '100%;'>","null","","","","","","","","","",""
"","html-keyboard-response","140","846022","0.0-8.0-2.12","mk54186wco","many_one","0","indirect_first","0","ui03ng31","0","20","1","1","3","2","null","","","<img src = 'targets/22.png' width = '100%;'>","null","","","","","","","","","",""
"","html-keyboard-response","141","849449","0.0-8.0-3.12","mk54186wco","many_one","0","indirect_first","0","ui03ng31","0","20","1","1","3","2","3426","","","<img src = 'targets/mask.png' width = '100%;'>","68","pos","CS","CS","4","category4/CS3.png","targets/22.png","0","indirect","12",""
"","html-keyboard-response","142","850982","0.0-8.0-0.13","mk54186wco","many_one","0","indirect_first","0","ui03ng31","0","20","1","1","3","2","null","","","<div style=""font-size:60px;"">+</div>","null","","","","","","","","","",""
"","html-keyboard-response","143","851082","0.0-8.0-1.13","mk54186wco","many_one","0","indirect_first","0","ui03ng31","0","20","1","1","3","2","null","","","<img src = 'category1/CS6.png' width = '100%;'>","null","","","","","","","","","",""
"","html-keyboard-response","144","851363","0.0-8.0-2.13","mk54186wco","many_one","0","indirect_first","0","ui03ng31","0","20","1","1","3","2","null","","","<img src = 'targets/19.png' width = '100%;'>","null","","","","","","","","","",""
"","html-keyboard-response","145","853513","0.0-8.0-3.13","mk54186wco","many_one","0","indirect_first","0","ui03ng31","0","20","1","1","3","2","2149","","","<img src = 'targets/mask.png' width = '100%;'>","68","neg","CS","CS","1","category1/CS6.png","targets/19.png","0","indirect","13",""
"","html-keyboard-response","146","855042","0.0-8.0-0.14","mk54186wco","many_one","0","indirect_first","0","ui03ng31","0","20","1","1","3","2","null","","","<div style=""font-size:60px;"">+</div>","null","","","","","","","","","",""
"","html-keyboard-response","147","855143","0.0-8.0-1.14","mk54186wco","many_one","0","indirect_first","0","ui03ng31","0","20","1","1","3","2","null","","","<img src = 'category3/CS10.png' width = '100%;'>","null","","","","","","","","","",""
"","html-keyboard-response","148","855423","0.0-8.0-2.14","mk54186wco","many_one","0","indirect_first","0","ui03ng31","0","20","1","1","3","2","null","","","<img src = 'targets/29.png' width = '100%;'>","null","","","","","","","","","",""
"","html-keyboard-response","149","858177","0.0-8.0-3.14","mk54186wco","many_one","0","indirect_first","0","ui03ng31","0","20","1","1","3","2","2754","","","<img src = 'targets/mask.png' width = '100%;'>","75","neg","GS","GSold","3","category3/CS10.png","targets/29.png","1","indirect","14",""
"","html-keyboard-response","150","859702","0.0-8.0-0.15","mk54186wco","many_one","0","indirect_first","0","ui03ng31","0","20","1","1","3","2","null","","","<div style=""font-size:60px;"">+</div>","null","","","","","","","","","",""
"","html-keyboard-response","151","859803","0.0-8.0-1.15","mk54186wco","many_one","0","indirect_first","0","ui03ng31","0","20","1","1","3","2","null","","","<img src = 'category2/CS2.png' width = '100%;'>","null","","","","","","","","","",""
"","html-keyboard-response","152","860082","0.0-8.0-2.15","mk54186wco","many_one","0","indirect_first","0","ui03ng31","0","20","1","1","3","2","null","","","<img src = 'targets/11.png' width = '100%;'>","null","","","","","","","","","",""
"","html-keyboard-response","153","861553","0.0-8.0-3.15","mk54186wco","many_one","0","indirect_first","0","ui03ng31","0","20","1","1","3","2","1469","","","<img src = 'targets/mask.png' width = '100%;'>","75","pos","CS","CS","2","category2/CS2.png","targets/11.png","1","indirect","15",""
"","html-keyboard-response","154","863082","0.0-8.0-0.16","mk54186wco","many_one","0","indirect_first","0","ui03ng31","0","20","1","1","3","2","null","","","<div style=""font-size:60px;"">+</div>","null","","","","","","","","","",""
"","html-keyboard-response","155","863183","0.0-8.0-1.16","mk54186wco","many_one","0","indirect_first","0","ui03ng31","0","20","1","1","3","2","null","","","<img src = 'category4/CS7.png' width = '100%;'>","null","","","","","","","","","",""
"","html-keyboard-response","156","863463","0.0-8.0-2.16","mk54186wco","many_one","0","indirect_first","0","ui03ng31","0","20","1","1","3","2","null","","","<img src = 'targets/46.png' width = '100%;'>","null","","","","","","","","","",""
"","html-keyboard-response","157","865033","0.0-8.0-3.16","mk54186wco","many_one","0","indirect_first","0","ui03ng31","0","20","1","1","3","2","1570","","","<img src = 'targets/mask.png' width = '100%;'>","75","pos","CS","CS","4","category4/CS7.png","targets/46.png","1","indirect","16",""
"","html-keyboard-response","158","866542","0.0-8.0-0.17","mk54186wco","many_one","0","indirect_first","0","ui03ng31","0","20","1","1","3","2","null","","","<div style=""font-size:60px;"">+</div>","null","","","","","","","","","",""
"","html-keyboard-response","159","866642","0.0-8.0-1.17","mk54186wco","many_one","0","indirect_first","0","ui03ng31","0","20","1","1","3","2","null","","","<img src = 'category1/CS5.png' width = '100%;'>","null","","","","","","","","","",""
"","html-keyboard-response","160","866922","0.0-8.0-2.17","mk54186wco","many_one","0","indirect_first","0","ui03ng31","0","20","1","1","3","2","null","","","<img src = 'targets/7.png' width = '100%;'>","null","","","","","","","","","",""
"","html-keyboard-response","161","868474","0.0-8.0-3.17","mk54186wco","many_one","0","indirect_first","0","ui03ng31","0","20","1","1","3","2","1550","","","<img src = 'targets/mask.png' width = '100%;'>","75","neg","CS","CS","1","category1/CS5.png","targets/7.png","1","indirect","17",""
"","html-keyboard-response","162","870003","0.0-8.0-0.18","mk54186wco","many_one","0","indirect_first","0","ui03ng31","0","20","1","1","3","2","null","","","<div style=""font-size:60px;"">+</div>","null","","","","","","","","","",""
"","html-keyboard-response","163","870102","0.0-8.0-1.18","mk54186wco","many_one","0","indirect_first","0","ui03ng31","0","20","1","1","3","2","null","","","<img src = 'category3/CS7.png' width = '100%;'>","null","","","","","","","","","",""
"","html-keyboard-response","164","870382","0.0-8.0-2.18","mk54186wco","many_one","0","indirect_first","0","ui03ng31","0","20","1","1","3","2","null","","","<img src = 'targets/17.png' width = '100%;'>","null","","","","","","","","","",""
"","html-keyboard-response","165","871521","0.0-8.0-3.18","mk54186wco","many_one","0","indirect_first","0","ui03ng31","0","20","1","1","3","2","1138","","","<img src = 'targets/mask.png' width = '100%;'>","68","neg","CS","CS","3","category3/CS7.png","targets/17.png","0","indirect","18",""
"","html-keyboard-response","166","873042","0.0-8.0-0.19","mk54186wco","many_one","0","indirect_first","0","ui03ng31","0","20","1","1","3","2","null","","","<div style=""font-size:60px;"">+</div>","null","","","","","","","","","",""
"","html-keyboard-response","167","873143","0.0-8.0-1.19","mk54186wco","many_one","0","indirect_first","0","ui03ng31","0","20","1","1","3","2","null","","","<img src = 'category4/CS1.png' width = '100%;'>","null","","","","","","","","","",""
"","html-keyboard-response","168","873422","0.0-8.0-2.19","mk54186wco","many_one","0","indirect_first","0","ui03ng31","0","20","1","1","3","2","null","","","<img src = 'targets/1.png' width = '100%;'>","null","","","","","","","","","",""
"","html-keyboard-response","169","875369","0.0-8.0-3.19","mk54186wco","many_one","0","indirect_first","0","ui03ng31","0","20","1","1","3","2","1944","","","<img src = 'targets/mask.png' width = '100%;'>","75","pos","CS","CS","4","category4/CS1.png","targets/1.png","1","indirect","19",""
"","html-keyboard-response","170","876882","0.0-8.0-0.20","mk54186wco","many_one","0","indirect_first","0","ui03ng31","0","20","1","1","3","2","null","","","<div style=""font-size:60px;"">+</div>","null","","","","","","","","","",""
"","html-keyboard-response","171","876982","0.0-8.0-1.20","mk54186wco","many_one","0","indirect_first","0","ui03ng31","0","20","1","1","3","2","null","","","<img src = 'category2/CS6.png' width = '100%;'>","null","","","","","","","","","",""
"","html-keyboard-response","172","877263","0.0-8.0-2.20","mk54186wco","many_one","0","indirect_first","0","ui03ng31","0","20","1","1","3","2","null","","","<img src = 'targets/41.png' width = '100%;'>","null","","","","","","","","","",""
"","html-keyboard-response","173","887825","0.0-8.0-3.20","mk54186wco","many_one","0","indirect_first","0","ui03ng31","0","20","1","1","3","2","10562","","","<img src = 'targets/mask.png' width = '100%;'>","75","pos","CS","CS","2","category2/CS6.png","targets/41.png","1","indirect","20",""
"","html-keyboard-response","174","889362","0.0-8.0-0.21","mk54186wco","many_one","0","indirect_first","0","ui03ng31","0","20","1","1","3","2","null","","","<div style=""font-size:60px;"">+</div>","null","","","","","","","","","",""
"","html-keyboard-response","175","889462","0.0-8.0-1.21","mk54186wco","many_one","0","indirect_first","0","ui03ng31","0","20","1","1","3","2","null","","","<img src = 'category1/CS7.png' width = '100%;'>","null","","","","","","","","","",""
"","html-keyboard-response","176","889743","0.0-8.0-2.21","mk54186wco","many_one","0","indirect_first","0","ui03ng31","0","20","1","1","3","2","null","","","<img src = 'targets/23.png' width = '100%;'>","null","","","","","","","","","",""
"","html-keyboard-response","177","896017","0.0-8.0-3.21","mk54186wco","many_one","0","indirect_first","0","ui03ng31","0","20","1","1","3","2","6272","","","<img src = 'targets/mask.png' width = '100%;'>","68","neg","CS","CS","1","category1/CS7.png","targets/23.png","0","indirect","21",""
"","html-keyboard-response","178","897543","0.0-8.0-0.22","mk54186wco","many_one","0","indirect_first","0","ui03ng31","0","20","1","1","3","2","null","","","<div style=""font-size:60px;"">+</div>","null","","","","","","","","","",""
"","html-keyboard-response","179","897642","0.0-8.0-1.22","mk54186wco","many_one","0","indirect_first","0","ui03ng31","0","20","1","1","3","2","null","","","<img src = 'category3/CS3.png' width = '100%;'>","null","","","","","","","","","",""
"","html-keyboard-response","180","897923","0.0-8.0-2.22","mk54186wco","many_one","0","indirect_first","0","ui03ng31","0","20","1","1","3","2","null","","","<img src = 'targets/30.png' width = '100%;'>","null","","","","","","","","","",""
"","html-keyboard-response","181","910641","0.0-8.0-3.22","mk54186wco","many_one","0","indirect_first","0","ui03ng31","0","20","1","1","3","2","12718","","","<img src = 'targets/mask.png' width = '100%;'>","68","neg","CS","CS","3","category3/CS3.png","targets/30.png","0","indirect","22",""
"","html-keyboard-response","182","912162","0.0-8.0-0.23","mk54186wco","many_one","0","indirect_first","0","ui03ng31","0","20","1","1","3","2","null","","","<div style=""font-size:60px;"">+</div>","null","","","","","","","","","",""
"","html-keyboard-response","183","912262","0.0-8.0-1.23","mk54186wco","many_one","0","indirect_first","0","ui03ng31","0","20","1","1","3","2","null","","","<img src = 'category2/CS7.png' width = '100%;'>","null","","","","","","","","","",""
"","html-keyboard-response","184","912543","0.0-8.0-2.23","mk54186wco","many_one","0","indirect_first","0","ui03ng31","0","20","1","1","3","2","null","","","<img src = 'targets/47.png' width = '100%;'>","null","","","","","","","","","",""
"","html-keyboard-response","185","939130","0.0-8.0-3.23","mk54186wco","many_one","0","indirect_first","0","ui03ng31","0","20","1","1","3","2","26586","","","<img src = 'targets/mask.png' width = '100%;'>","68","pos","CS","CS","2","category2/CS7.png","targets/47.png","0","indirect","23",""
"","survey-html-form","186","1066703","0.0-9.0","mk54186wco","many_one","0","indirect_first","0","ui03ng31","0","20","1","1","3","2","127071","","{}","","","","","","","","","","","",""
"","html-keyboard-response","187","1069741","0.0-10.0-0.0","mk54186wco","many_one","0","indirect_first","0","ui03ng31","0","20","1","1","3","2","null","","","<div style=""font-size:60px;"">+</div>","null","","","","","","","","","",""
"","html-keyboard-response","188","1069841","0.0-10.0-1.0","mk54186wco","many_one","0","indirect_first","0","ui03ng31","0","20","1","1","3","2","null","","","<img src = 'category1/CS10.png' width = '100%;'>","null","","","","","","","","","",""
"","html-keyboard-response","189","1070121","0.0-10.0-2.0","mk54186wco","many_one","0","indirect_first","0","ui03ng31","0","20","1","1","3","2","null","","","<img src = 'targets/8.png' width = '100%;'>","null","","","","","","","","","",""
"","html-keyboard-response","190","1072903","0.0-10.0-3.0","mk54186wco","many_one","0","indirect_first","0","ui03ng31","0","20","1","1","3","2","2781","","","<img src = 'targets/mask.png' width = '100%;'>","68","neg","GS","GSold","1","category1/CS10.png","targets/8.png","0","indirect","24",""
"","html-keyboard-response","191","1074421","0.0-10.0-0.1","mk54186wco","many_one","0","indirect_first","0","ui03ng31","0","20","1","1","3","2","null","","","<div style=""font-size:60px;"">+</div>","null","","","","","","","","","",""
"","html-keyboard-response","192","1074520","0.0-10.0-1.1","mk54186wco","many_one","0","indirect_first","0","ui03ng31","0","20","1","1","3","2","null","","","<img src = 'category3/GS1.png' width = '100%;'>","null","","","","","","","","","",""
"","html-keyboard-response","193","1074800","0.0-10.0-2.1","mk54186wco","many_one","0","indirect_first","0","ui03ng31","0","20","1","1","3","2","null","","","<img src = 'targets/12.png' width = '100%;'>","null","","","","","","","","","",""
"","html-keyboard-response","194","1076719","0.0-10.0-3.1","mk54186wco","many_one","0","indirect_first","0","ui03ng31","0","20","1","1","3","2","1918","","","<img src = 'targets/mask.png' width = '100%;'>","75","neg","GS","GSnew","3","category3/GS1.png","targets/12.png","1","indirect","25",""
"","html-keyboard-response","195","1078251","0.0-10.0-0.2","mk54186wco","many_one","0","indirect_first","0","ui03ng31","0","20","1","1","3","2","null","","","<div style=""font-size:60px;"">+</div>","null","","","","","","","","","",""
"","html-keyboard-response","196","1078350","0.0-10.0-1.2","mk54186wco","many_one","0","indirect_first","0","ui03ng31","0","20","1","1","3","2","null","","","<img src = 'category2/CS4.png' width = '100%;'>","null","","","","","","","","","",""
"","html-keyboard-response","197","1078630","0.0-10.0-2.2","mk54186wco","many_one","0","indirect_first","0","ui03ng31","0","20","1","1","3","2","null","","","<img src = 'targets/25.png' width = '100%;'>","null","","","","","","","","","",""
"","html-keyboard-response","198","1080951","0.0-10.0-3.2","mk54186wco","many_one","0","indirect_first","0","ui03ng31","0","20","1","1","3","2","2319","","","<img src = 'targets/mask.png' width = '100%;'>","75","pos","GS","GSold","2","category2/CS4.png","targets/25.png","1","indirect","26",""
"","html-keyboard-response","199","1082491","0.0-10.0-0.3","mk54186wco","many_one","0","indirect_first","0","ui03ng31","0","20","1","1","3","2","null","","","<div style=""font-size:60px;"">+</div>","null","","","","","","","","","",""
"","html-keyboard-response","200","1082590","0.0-10.0-1.3","mk54186wco","many_one","0","indirect_first","0","ui03ng31","0","20","1","1","3","2","null","","","<img src = 'category2/CS9.png' width = '100%;'>","null","","","","","","","","","",""
"","html-keyboard-response","201","1082871","0.0-10.0-2.3","mk54186wco","many_one","0","indirect_first","0","ui03ng31","0","20","1","1","3","2","null","","","<img src = 'targets/27.png' width = '100%;'>","null","","","","","","","","","",""
"","html-keyboard-response","202","1084847","0.0-10.0-3.3","mk54186wco","many_one","0","indirect_first","0","ui03ng31","0","20","1","1","3","2","1975","","","<img src = 'targets/mask.png' width = '100%;'>","68","pos","GS","GSold","2","category2/CS9.png","targets/27.png","0","indirect","27",""
"","html-keyboard-response","203","1086370","0.0-10.0-0.4","mk54186wco","many_one","0","indirect_first","0","ui03ng31","0","20","1","1","3","2","null","","","<div style=""font-size:60px;"">+</div>","null","","","","","","","","","",""
"","html-keyboard-response","204","1086470","0.0-10.0-1.4","mk54186wco","many_one","0","indirect_first","0","ui03ng31","0","20","1","1","3","2","null","","","<img src = 'category2/GS2.png' width = '100%;'>","null","","","","","","","","","",""
"","html-keyboard-response","205","1086751","0.0-10.0-2.4","mk54186wco","many_one","0","indirect_first","0","ui03ng31","0","20","1","1","3","2","null","","","<img src = 'targets/24.png' width = '100%;'>","null","","","","","","","","","",""
"","html-keyboard-response","206","1090719","0.0-10.0-3.4","mk54186wco","many_one","0","indirect_first","0","ui03ng31","0","20","1","1","3","2","3968","","","<img src = 'targets/mask.png' width = '100%;'>","75","pos","GS","GSnew","2","category2/GS2.png","targets/24.png","1","indirect","28",""
"","html-keyboard-response","207","1092250","0.0-10.0-0.5","mk54186wco","many_one","0","indirect_first","0","ui03ng31","0","20","1","1","3","2","null","","","<div style=""font-size:60px;"">+</div>","null","","","","","","","","","",""
"","html-keyboard-response","208","1092350","0.0-10.0-1.5","mk54186wco","many_one","0","indirect_first","0","ui03ng31","0","20","1","1","3","2","null","","","<img src = 'category2/GS1.png' width = '100%;'>","null","","","","","","","","","",""
"","html-keyboard-response","209","1092631","0.0-10.0-2.5","mk54186wco","many_one","0","indirect_first","0","ui03ng31","0","20","1","1","3","2","null","","","<img src = 'targets/39.png' width = '100%;'>","null","","","","","","","","","",""
"","html-keyboard-response","210","1095399","0.0-10.0-3.5","mk54186wco","many_one","0","indirect_first","0","ui03ng31","0","20","1","1","3","2","2767","","","<img src = 'targets/mask.png' width = '100%;'>","75","pos","GS","GSnew","2","category2/GS1.png","targets/39.png","1","indirect","29",""
"","html-keyboard-response","211","1096930","0.0-10.0-0.6","mk54186wco","many_one","0","indirect_first","0","ui03ng31","0","20","1","1","3","2","null","","","<div style=""font-size:60px;"">+</div>","null","","","","","","","","","",""
"","html-keyboard-response","212","1097030","0.0-10.0-1.6","mk54186wco","many_one","0","indirect_first","0","ui03ng31","0","20","1","1","3","2","null","","","<img src = 'category1/ma.png' width = '100%;'>","null","","","","","","","","","",""
"","html-keyboard-response","213","1097310","0.0-10.0-2.6","mk54186wco","many_one","0","indirect_first","0","ui03ng31","0","20","1","1","3","2","null","","","<img src = 'targets/3.png' width = '100%;'>","null","","","","","","","","","",""
"","html-keyboard-response","214","1099110","0.0-10.0-3.6","mk54186wco","many_one","0","indirect_first","0","ui03ng31","0","20","1","1","3","2","1799","","","<img src = 'targets/mask.png' width = '100%;'>","68","neg","GS","abstract","1","category1/ma.png","targets/3.png","0","indirect","30",""
"","html-keyboard-response","215","1100650","0.0-10.0-0.7","mk54186wco","many_one","0","indirect_first","0","ui03ng31","0","20","1","1","3","2","null","","","<div style=""font-size:60px;"">+</div>","null","","","","","","","","","",""
"","html-keyboard-response","216","1100741","0.0-10.0-1.7","mk54186wco","many_one","0","indirect_first","0","ui03ng31","0","20","1","1","3","2","null","","","<img src = 'category2/GS3.png' width = '100%;'>","null","","","","","","","","","",""
"","html-keyboard-response","217","1100993","0.0-10.0-2.7","mk54186wco","many_one","0","indirect_first","0","ui03ng31","0","20","1","1","3","2","null","","","<img src = 'targets/40.png' width = '100%;'>","null","","","","","","","","","",""
"","html-keyboard-response","218","1103222","0.0-10.0-3.7","mk54186wco","many_one","0","indirect_first","0","ui03ng31","0","20","1","1","3","2","2228","","","<img src = 'targets/mask.png' width = '100%;'>","68","pos","GS","GSnew","2","category2/GS3.png","targets/40.png","0","indirect","31",""
"","html-keyboard-response","219","1104749","0.0-10.0-0.8","mk54186wco","many_one","0","indirect_first","0","ui03ng31","0","20","1","1","3","2","null","","","<div style=""font-size:60px;"">+</div>","null","","","","","","","","","",""
"","html-keyboard-response","220","1104850","0.0-10.0-1.8","mk54186wco","many_one","0","indirect_first","0","ui03ng31","0","20","1","1","3","2","null","","","<img src = 'category3/GS2.png' width = '100%;'>","null","","","","","","","","","",""
"","html-keyboard-response","221","1105130","0.0-10.0-2.8","mk54186wco","many_one","0","indirect_first","0","ui03ng31","0","20","1","1","3","2","null","","","<img src = 'targets/45.png' width = '100%;'>","null","","","","","","","","","",""
"","html-keyboard-response","222","1106854","0.0-10.0-3.8","mk54186wco","many_one","0","indirect_first","0","ui03ng31","0","20","1","1","3","2","1724","","","<img src = 'targets/mask.png' width = '100%;'>","75","neg","GS","GSnew","3","category3/GS2.png","targets/45.png","1","indirect","32",""
"","html-keyboard-response","223","1108380","0.0-10.0-0.9","mk54186wco","many_one","0","indirect_first","0","ui03ng31","0","20","1","1","3","2","null","","","<div style=""font-size:60px;"">+</div>","null","","","","","","","","","",""
"","html-keyboard-response","224","1108480","0.0-10.0-1.9","mk54186wco","many_one","0","indirect_first","0","ui03ng31","0","20","1","1","3","2","null","","","<img src = 'category1/CS1.png' width = '100%;'>","null","","","","","","","","","",""
"","html-keyboard-response","225","1108760","0.0-10.0-2.9","mk54186wco","many_one","0","indirect_first","0","ui03ng31","0","20","1","1","3","2","null","","","<img src = 'targets/35.png' width = '100%;'>","null","","","","","","","","","",""
"","html-keyboard-response","226","1115742","0.0-10.0-3.9","mk54186wco","many_one","0","indirect_first","0","ui03ng31","0","20","1","1","3","2","6981","","","<img src = 'targets/mask.png' width = '100%;'>","75","neg","GS","GSold","1","category1/CS1.png","targets/35.png","1","indirect","33",""
"","html-keyboard-response","227","1117279","0.0-10.0-0.10","mk54186wco","many_one","0","indirect_first","0","ui03ng31","0","20","1","1","3","2","null","","","<div style=""font-size:60px;"">+</div>","null","","","","","","","","","",""
"","html-keyboard-response","228","1117379","0.0-10.0-1.10","mk54186wco","many_one","0","indirect_first","0","ui03ng31","0","20","1","1","3","2","null","","","<img src = 'category2/men.png' width = '100%;'>","null","","","","","","","","","",""
"","html-keyboard-response","229","1117659","0.0-10.0-2.10","mk54186wco","many_one","0","indirect_first","0","ui03ng31","0","20","1","1","3","2","null","","","<img src = 'targets/6.png' width = '100%;'>","null","","","","","","","","","",""
"","html-keyboard-response","230","1119214","0.0-10.0-3.10","mk54186wco","many_one","0","indirect_first","0","ui03ng31","0","20","1","1","3","2","1554","","","<img src = 'targets/mask.png' width = '100%;'>","68","pos","GS","abstract","2","category2/men.png","targets/6.png","0","indirect","34",""
"","html-keyboard-response","231","1120739","0.0-10.0-0.11","mk54186wco","many_one","0","indirect_first","0","ui03ng31","0","20","1","1","3","2","null","","","<div style=""font-size:60px;"">+</div>","null","","","","","","","","","",""
"","html-keyboard-response","232","1120840","0.0-10.0-1.11","mk54186wco","many_one","0","indirect_first","0","ui03ng31","0","20","1","1","3","2","null","","","<img src = 'category1/GS2.png' width = '100%;'>","null","","","","","","","","","",""
"","html-keyboard-response","233","1121120","0.0-10.0-2.11","mk54186wco","many_one","0","indirect_first","0","ui03ng31","0","20","1","1","3","2","null","","","<img src = 'targets/15.png' width = '100%;'>","null","","","","","","","","","",""
"","html-keyboard-response","234","1123334","0.0-10.0-3.11","mk54186wco","many_one","0","indirect_first","0","ui03ng31","0","20","1","1","3","2","2214","","","<img src = 'targets/mask.png' width = '100%;'>","75","neg","GS","GSnew","1","category1/GS2.png","targets/15.png","1","indirect","35",""
"","html-keyboard-response","235","1124860","0.0-10.0-0.12","mk54186wco","many_one","0","indirect_first","0","ui03ng31","0","20","1","1","3","2","null","","","<div style=""font-size:60px;"">+</div>","null","","","","","","","","","",""
"","html-keyboard-response","236","1124959","0.0-10.0-1.12","mk54186wco","many_one","0","indirect_first","0","ui03ng31","0","20","1","1","3","2","null","","","<img src = 'category1/CS3.png' width = '100%;'>","null","","","","","","","","","",""
"","html-keyboard-response","237","1125239","0.0-10.0-2.12","mk54186wco","many_one","0","indirect_first","0","ui03ng31","0","20","1","1","3","2","null","","","<img src = 'targets/13.png' width = '100%;'>","null","","","","","","","","","",""
"","html-keyboard-response","238","1127342","0.0-10.0-3.12","mk54186wco","many_one","0","indirect_first","0","ui03ng31","0","20","1","1","3","2","2102","","","<img src = 'targets/mask.png' width = '100%;'>","75","neg","GS","GSold","1","category1/CS3.png","targets/13.png","1","indirect","36",""
"","html-keyboard-response","239","1128850","0.0-10.0-0.13","mk54186wco","many_one","0","indirect_first","0","ui03ng31","0","20","1","1","3","2","null","","","<div style=""font-size:60px;"">+</div>","null","","","","","","","","","",""
"","html-keyboard-response","240","1128949","0.0-10.0-1.13","mk54186wco","many_one","0","indirect_first","0","ui03ng31","0","20","1","1","3","2","null","","","<img src = 'category4/GS1.png' width = '100%;'>","null","","","","","","","","","",""
"","html-keyboard-response","241","1129229","0.0-10.0-2.13","mk54186wco","many_one","0","indirect_first","0","ui03ng31","0","20","1","1","3","2","null","","","<img src = 'targets/48.png' width = '100%;'>","null","","","","","","","","","",""
"","html-keyboard-response","242","1130590","0.0-10.0-3.13","mk54186wco","many_one","0","indirect_first","0","ui03ng31","0","20","1","1","3","2","1360","","","<img src = 'targets/mask.png' width = '100%;'>","68","pos","GS","GSnew","4","category4/GS1.png","targets/48.png","0","indirect","37",""
"","html-keyboard-response","243","1132119","0.0-10.0-0.14","mk54186wco","many_one","0","indirect_first","0","ui03ng31","0","20","1","1","3","2","null","","","<div style=""font-size:60px;"">+</div>","null","","","","","","","","","",""
"","html-keyboard-response","244","1132219","0.0-10.0-1.14","mk54186wco","many_one","0","indirect_first","0","ui03ng31","0","20","1","1","3","2","null","","","<img src = 'category3/GS3.png' width = '100%;'>","null","","","","","","","","","",""
"","html-keyboard-response","245","1132499","0.0-10.0-2.14","mk54186wco","many_one","0","indirect_first","0","ui03ng31","0","20","1","1","3","2","null","","","<img src = 'targets/20.png' width = '100%;'>","null","","","","","","","","","",""
"","html-keyboard-response","246","1134446","0.0-10.0-3.14","mk54186wco","many_one","0","indirect_first","0","ui03ng31","0","20","1","1","3","2","1945","","","<img src = 'targets/mask.png' width = '100%;'>","75","neg","GS","GSnew","3","category3/GS3.png","targets/20.png","1","indirect","38",""
"","html-keyboard-response","247","1135979","0.0-10.0-0.15","mk54186wco","many_one","0","indirect_first","0","ui03ng31","0","20","1","1","3","2","null","","","<div style=""font-size:60px;"">+</div>","null","","","","","","","","","",""
"","html-keyboard-response","248","1136079","0.0-10.0-1.15","mk54186wco","many_one","0","indirect_first","0","ui03ng31","0","20","1","1","3","2","null","","","<img src = 'category4/GS2.png' width = '100%;'>","null","","","","","","","","","",""
"","html-keyboard-response","249","1136359","0.0-10.0-2.15","mk54186wco","many_one","0","indirect_first","0","ui03ng31","0","20","1","1","3","2","null","","","<img src = 'targets/44.png' width = '100%;'>","null","","","","","","","","","",""
"","html-keyboard-response","250","1137693","0.0-10.0-3.15","mk54186wco","many_one","0","indirect_first","0","ui03ng31","0","20","1","1","3","2","1333","","","<img src = 'targets/mask.png' width = '100%;'>","75","pos","GS","GSnew","4","category4/GS2.png","targets/44.png","1","indirect","39",""
"","html-keyboard-response","251","1139219","0.0-10.0-0.16","mk54186wco","many_one","0","indirect_first","0","ui03ng31","0","20","1","1","3","2","null","","","<div style=""font-size:60px;"">+</div>","null","","","","","","","","","",""
"","html-keyboard-response","252","1139319","0.0-10.0-1.16","mk54186wco","many_one","0","indirect_first","0","ui03ng31","0","20","1","1","3","2","null","","","<img src = 'category4/CS9.png' width = '100%;'>","null","","","","","","","","","",""
"","html-keyboard-response","253","1139599","0.0-10.0-2.16","mk54186wco","many_one","0","indirect_first","0","ui03ng31","0","20","1","1","3","2","null","","","<img src = 'targets/36.png' width = '100%;'>","null","","","","","","","","","",""
"","html-keyboard-response","254","1141397","0.0-10.0-3.16","mk54186wco","many_one","0","indirect_first","0","ui03ng31","0","20","1","1","3","2","1797","","","<img src = 'targets/mask.png' width = '100%;'>","68","pos","GS","GSold","4","category4/CS9.png","targets/36.png","0","indirect","40",""
"","html-keyboard-response","255","1142898","0.0-10.0-0.17","mk54186wco","many_one","0","indirect_first","0","ui03ng31","0","20","1","1","3","2","null","","","<div style=""font-size:60px;"">+</div>","null","","","","","","","","","",""
"","html-keyboard-response","256","1142999","0.0-10.0-1.17","mk54186wco","many_one","0","indirect_first","0","ui03ng31","0","20","1","1","3","2","null","","","<img src = 'category4/GS3.png' width = '100%;'>","null","","","","","","","","","",""
"","html-keyboard-response","257","1143278","0.0-10.0-2.17","mk54186wco","many_one","0","indirect_first","0","ui03ng31","0","20","1","1","3","2","null","","","<img src = 'targets/14.png' width = '100%;'>","null","","","","","","","","","",""
"","html-keyboard-response","258","1144758","0.0-10.0-3.17","mk54186wco","many_one","0","indirect_first","0","ui03ng31","0","20","1","1","3","2","1478","","","<img src = 'targets/mask.png' width = '100%;'>","68","pos","GS","GSnew","4","category4/GS3.png","targets/14.png","0","indirect","41",""
"","html-keyboard-response","259","1146279","0.0-10.0-0.18","mk54186wco","many_one","0","indirect_first","0","ui03ng31","0","20","1","1","3","2","null","","","<div style=""font-size:60px;"">+</div>","null","","","","","","","","","",""
"","html-keyboard-response","260","1146378","0.0-10.0-1.18","mk54186wco","many_one","0","indirect_first","0","ui03ng31","0","20","1","1","3","2","null","","","<img src = 'category4/lin.png' width = '100%;'>","null","","","","","","","","","",""
"","html-keyboard-response","261","1146658","0.0-10.0-2.18","mk54186wco","many_one","0","indirect_first","0","ui03ng31","0","20","1","1","3","2","null","","","<img src = 'targets/37.png' width = '100%;'>","null","","","","","","","","","",""
"","html-keyboard-response","262","1148109","0.0-10.0-3.18","mk54186wco","many_one","0","indirect_first","0","ui03ng31","0","20","1","1","3","2","1450","","","<img src = 'targets/mask.png' width = '100%;'>","75","pos","GS","abstract","4","category4/lin.png","targets/37.png","1","indirect","42",""
"","html-keyboard-response","263","1149639","0.0-10.0-0.19","mk54186wco","many_one","0","indirect_first","0","ui03ng31","0","20","1","1","3","2","null","","","<div style=""font-size:60px;"">+</div>","null","","","","","","","","","",""
"","html-keyboard-response","264","1149739","0.0-10.0-1.19","mk54186wco","many_one","0","indirect_first","0","ui03ng31","0","20","1","1","3","2","null","","","<img src = 'category4/CS5.png' width = '100%;'>","null","","","","","","","","","",""
"","html-keyboard-response","265","1150018","0.0-10.0-2.19","mk54186wco","many_one","0","indirect_first","0","ui03ng31","0","20","1","1","3","2","null","","","<img src = 'targets/16.png' width = '100%;'>","null","","","","","","","","","",""
"","html-keyboard-response","266","1152853","0.0-10.0-3.19","mk54186wco","many_one","0","indirect_first","0","ui03ng31","0","20","1","1","3","2","2834","","","<img src = 'targets/mask.png' width = '100%;'>","68","pos","GS","GSold","4","category4/CS5.png","targets/16.png","0","indirect","43",""
"","html-keyboard-response","267","1154368","0.0-10.0-0.20","mk54186wco","many_one","0","indirect_first","0","ui03ng31","0","20","1","1","3","2","null","","","<div style=""font-size:60px;"">+</div>","null","","","","","","","","","",""
"","html-keyboard-response","268","1154469","0.0-10.0-1.20","mk54186wco","many_one","0","indirect_first","0","ui03ng31","0","20","1","1","3","2","null","","","<img src = 'category3/wang.png' width = '100%;'>","null","","","","","","","","","",""
"","html-keyboard-response","269","1154748","0.0-10.0-2.20","mk54186wco","many_one","0","indirect_first","0","ui03ng31","0","20","1","1","3","2","null","","","<img src = 'targets/33.png' width = '100%;'>","null","","","","","","","","","",""
"","html-keyboard-response","270","1156509","0.0-10.0-3.20","mk54186wco","many_one","0","indirect_first","0","ui03ng31","0","20","1","1","3","2","1760","","","<img src = 'targets/mask.png' width = '100%;'>","68","neg","GS","abstract","3","category3/wang.png","targets/33.png","0","indirect","44",""
"","html-keyboard-response","271","1158048","0.0-10.0-0.21","mk54186wco","many_one","0","indirect_first","0","ui03ng31","0","20","1","1","3","2","null","","","<div style=""font-size:60px;"">+</div>","null","","","","","","","","","",""
"","html-keyboard-response","272","1158149","0.0-10.0-1.21","mk54186wco","many_one","0","indirect_first","0","ui03ng31","0","20","1","1","3","2","null","","","<img src = 'category4/CS8.png' width = '100%;'>","null","","","","","","","","","",""
"","html-keyboard-response","273","1158428","0.0-10.0-2.21","mk54186wco","many_one","0","indirect_first","0","ui03ng31","0","20","1","1","3","2","null","","","<img src = 'targets/43.png' width = '100%;'>","null","","","","","","","","","",""
"","html-keyboard-response","274","1161349","0.0-10.0-3.21","mk54186wco","many_one","0","indirect_first","0","ui03ng31","0","20","1","1","3","2","2919","","","<img src = 'targets/mask.png' width = '100%;'>","68","pos","GS","GSold","4","category4/CS8.png","targets/43.png","0","indirect","45",""
"","html-keyboard-response","275","1162868","0.0-10.0-0.22","mk54186wco","many_one","0","indirect_first","0","ui03ng31","0","20","1","1","3","2","null","","","<div style=""font-size:60px;"">+</div>","null","","","","","","","","","",""
"","html-keyboard-response","276","1162969","0.0-10.0-1.22","mk54186wco","many_one","0","indirect_first","0","ui03ng31","0","20","1","1","3","2","null","","","<img src = 'category1/GS3.png' width = '100%;'>","null","","","","","","","","","",""
"","html-keyboard-response","277","1163249","0.0-10.0-2.22","mk54186wco","many_one","0","indirect_first","0","ui03ng31","0","20","1","1","3","2","null","","","<img src = 'targets/42.png' width = '100%;'>","null","","","","","","","","","",""
"","html-keyboard-response","278","1165029","0.0-10.0-3.22","mk54186wco","many_one","0","indirect_first","0","ui03ng31","0","20","1","1","3","2","1780","","","<img src = 'targets/mask.png' width = '100%;'>","68","neg","GS","GSnew","1","category1/GS3.png","targets/42.png","0","indirect","46",""
"","html-keyboard-response","279","1166538","0.0-10.0-0.23","mk54186wco","many_one","0","indirect_first","0","ui03ng31","0","20","1","1","3","2","null","","","<div style=""font-size:60px;"">+</div>","null","","","","","","","","","",""
"","html-keyboard-response","280","1166638","0.0-10.0-1.23","mk54186wco","many_one","0","indirect_first","0","ui03ng31","0","20","1","1","3","2","null","","","<img src = 'category1/GS1.png' width = '100%;'>","null","","","","","","","","","",""
"","html-keyboard-response","281","1166918","0.0-10.0-2.23","mk54186wco","many_one","0","indirect_first","0","ui03ng31","0","20","1","1","3","2","null","","","<img src = 'targets/18.png' width = '100%;'>","null","","","","","","","","","",""
"","html-keyboard-response","282","1168797","0.0-10.0-3.23","mk54186wco","many_one","0","indirect_first","0","ui03ng31","0","20","1","1","3","2","1877","","","<img src = 'targets/mask.png' width = '100%;'>","68","neg","GS","GSnew","1","category1/GS1.png","targets/18.png","0","indirect","47",""
"","survey-html-form","283","1203371","0.0-11.0","mk54186wco","many_one","0","indirect_first","0","ui03ng31","0","20","1","1","3","2","34063","","{}","","","","","","","","","","","",""
"","image-slider-response","284","1258466","0.0-12.0-0.0","mk54186wco","many_one","0","indirect_first","0","ui03ng31","0","20","1","1","3","2","53075","","","","","pos","CS","CS","2","category2/CS1.png","targets/21.png","","direct","","-86"
"","image-slider-response","285","1266977","0.0-12.0-0.1","mk54186wco","many_one","0","indirect_first","0","ui03ng31","0","20","1","1","3","2","8511","","","","","pos","CS","CS","2","category2/CS5.png","targets/26.png","","direct","","-94"
"","image-slider-response","286","1276896","0.0-12.0-0.2","mk54186wco","many_one","0","indirect_first","0","ui03ng31","0","20","1","1","3","2","9918","","","","","pos","GS","GSold","2","category2/CS4.png","targets/25.png","","direct","","-76"
"","image-slider-response","287","1307472","0.0-12.0-0.3","mk54186wco","many_one","0","indirect_first","0","ui03ng31","0","20","1","1","3","2","30574","","","","","pos","GS","GSnew","2","category2/GS1.png","targets/39.png","","direct","","-64"
"","image-slider-response","288","1338472","0.0-12.0-0.4","mk54186wco","many_one","0","indirect_first","0","ui03ng31","0","20","1","1","3","2","30998","","","","","neg","GS","GSold","1","category1/CS10.png","targets/8.png","","direct","","-79"
"","image-slider-response","289","1343520","0.0-12.0-0.5","mk54186wco","many_one","0","indirect_first","0","ui03ng31","0","20","1","1","3","2","5047","","","","","neg","CS","CS","3","category3/CS5.png","targets/32.png","","direct","","26"
"","image-slider-response","290","1349272","0.0-12.0-0.6","mk54186wco","many_one","0","indirect_first","0","ui03ng31","0","20","1","1","3","2","5752","","","","","neg","CS","CS","3","category3/CS6.png","targets/2.png","","direct","","-46"
"","image-slider-response","291","1353447","0.0-12.0-0.7","mk54186wco","many_one","0","indirect_first","0","ui03ng31","0","20","1","1","3","2","4174","","","","","pos","CS","CS","4","category4/CS1.png","targets/1.png","","direct","","23"
"","image-slider-response","292","1357944","0.0-12.0-0.8","mk54186wco","many_one","0","indirect_first","0","ui03ng31","0","20","1","1","3","2","4495","","","","","neg","GS","abstract","1","category1/ma.png","targets/3.png","","direct","","37"
"","image-slider-response","293","1365072","0.0-12.0-0.9","mk54186wco","many_one","0","indirect_first","0","ui03ng31","0","20","1","1","3","2","7127","","","","","pos","GS","GSold","4","category4/CS5.png","targets/16.png","","direct","","-21"
"","image-slider-response","294","1370640","0.0-12.0-0.10","mk54186wco","many_one","0","indirect_first","0","ui03ng31","0","20","1","1","3","2","5566","","","","","pos","GS","GSold","2","category2/CS9.png","targets/27.png","","direct","","-51"
"","image-slider-response","295","1426024","0.0-12.0-0.11","mk54186wco","many_one","0","indirect_first","0","ui03ng31","0","20","1","1","3","2","55382","","","","","pos","GS","GSnew","2","category2/GS2.png","targets/24.png","","direct","","-42"
"","image-slider-response","296","1430023","0.0-12.0-0.12","mk54186wco","many_one","0","indirect_first","0","ui03ng31","0","20","1","1","3","2","3998","","","","","pos","CS","CS","4","category4/CS2.png","targets/38.png","","direct","","46"
"","image-slider-response","297","1432776","0.0-12.0-0.13","mk54186wco","many_one","0","indirect_first","0","ui03ng31","0","20","1","1","3","2","2752","","","","","neg","CS","CS","3","category3/CS4.png","targets/31.png","","direct","","-88"
"","image-slider-response","298","1436120","0.0-12.0-0.14","mk54186wco","many_one","0","indirect_first","0","ui03ng31","0","20","1","1","3","2","3343","","","","","neg","GS","GSold","3","category3/CS9.png","targets/10.png","","direct","","45"
"","image-slider-response","299","1443536","0.0-12.0-0.15","mk54186wco","many_one","0","indirect_first","0","ui03ng31","0","20","1","1","3","2","7414","","","","","neg","CS","CS","3","category3/CS3.png","targets/30.png","","direct","","35"
"","image-slider-response","300","1450775","0.0-12.0-0.16","mk54186wco","many_one","0","indirect_first","0","ui03ng31","0","20","1","1","3","2","7239","","","","","neg","CS","CS","3","category3/CS7.png","targets/17.png","","direct","","-50"
"","image-slider-response","301","1453576","0.0-12.0-0.17","mk54186wco","many_one","0","indirect_first","0","ui03ng31","0","20","1","1","3","2","2799","","","","","pos","GS","GSnew","4","category4/GS1.png","targets/48.png","","direct","","-29"
"","image-slider-response","302","1455967","0.0-12.0-0.18","mk54186wco","many_one","0","indirect_first","0","ui03ng31","0","20","1","1","3","2","2391","","","","","neg","GS","GSnew","1","category1/GS1.png","targets/18.png","","direct","","-59"
"","image-slider-response","303","1458624","0.0-12.0-0.19","mk54186wco","many_one","0","indirect_first","0","ui03ng31","0","20","1","1","3","2","2654","","","","","pos","GS","GSold","4","category4/CS9.png","targets/36.png","","direct","","27"
"","image-slider-response","304","1462400","0.0-12.0-0.20","mk54186wco","many_one","0","indirect_first","0","ui03ng31","0","20","1","1","3","2","3774","","","","","neg","CS","CS","1","category1/CS9.png","targets/4.png","","direct","","-35"
"","image-slider-response","305","1464991","0.0-12.0-0.21","mk54186wco","many_one","0","indirect_first","0","ui03ng31","0","20","1","1","3","2","2590","","","","","neg","GS","GSnew","3","category3/GS2.png","targets/45.png","","direct","","-99"
"","image-slider-response","306","1468047","0.0-12.0-0.22","mk54186wco","many_one","0","indirect_first","0","ui03ng31","0","20","1","1","3","2","3055","","","","","neg","GS","abstract","3","category3/wang.png","targets/33.png","","direct","","37"
"","image-slider-response","307","1471239","0.0-12.0-0.23","mk54186wco","many_one","0","indirect_first","0","ui03ng31","0","20","1","1","3","2","3190","","","","","pos","CS","CS","4","category4/CS3.png","targets/22.png","","direct","","-33"
"","image-slider-response","308","1474192","0.0-12.0-0.24","mk54186wco","many_one","0","indirect_first","0","ui03ng31","0","20","1","1","3","2","2950","","","","","neg","CS","CS","1","category1/CS2.png","targets/5.png","","direct","","-42"
"","image-slider-response","309","1477104","0.0-12.0-0.25","mk54186wco","many_one","0","indirect_first","0","ui03ng31","0","20","1","1","3","2","2911","","","","","pos","CS","CS","2","category2/CS6.png","targets/41.png","","direct","","-51"
"","image-slider-response","310","1480104","0.0-12.0-0.26","mk54186wco","many_one","0","indirect_first","0","ui03ng31","0","20","1","1","3","2","2999","","","","","pos","CS","CS","4","category4/CS4.png","targets/34.png","","direct","","28"
"","image-slider-response","311","1483047","0.0-12.0-0.27","mk54186wco","many_one","0","indirect_first","0","ui03ng31","0","20","1","1","3","2","2943","","","","","neg","GS","GSold","3","category3/CS10.png","targets/29.png","","direct","","-31"
"","image-slider-response","312","1486192","0.0-12.0-0.28","mk54186wco","many_one","0","indirect_first","0","ui03ng31","0","20","1","1","3","2","3143","","","","","pos","GS","GSnew","2","category2/GS3.png","targets/40.png","","direct","","34"
"","image-slider-response","313","1488687","0.0-12.0-0.29","mk54186wco","many_one","0","indirect_first","0","ui03ng31","0","20","1","1","3","2","2494","","","","","pos","CS","CS","2","category2/CS2.png","targets/11.png","","direct","","69"
"","image-slider-response","314","1491056","0.0-12.0-0.30","mk54186wco","many_one","0","indirect_first","0","ui03ng31","0","20","1","1","3","2","2366","","","","","pos","CS","CS","4","category4/CS7.png","targets/46.png","","direct","","34"
"","image-slider-response","315","1494975","0.0-12.0-0.31","mk54186wco","many_one","0","indirect_first","0","ui03ng31","0","20","1","1","3","2","3919","","","","","neg","CS","CS","1","category1/CS5.png","targets/7.png","","direct","","-27"
"","image-slider-response","316","1497615","0.0-12.0-0.32","mk54186wco","many_one","0","indirect_first","0","ui03ng31","0","20","1","1","3","2","2639","","","","","neg","GS","GSnew","1","category1/GS3.png","targets/42.png","","direct","","-50"
"","image-slider-response","317","1500287","0.0-12.0-0.33","mk54186wco","many_one","0","indirect_first","0","ui03ng31","0","20","1","1","3","2","2671","","","","","neg","GS","GSnew","3","category3/GS3.png","targets/20.png","","direct","","37"
"","image-slider-response","318","1502847","0.0-12.0-0.34","mk54186wco","many_one","0","indirect_first","0","ui03ng31","0","20","1","1","3","2","2559","","","","","neg","GS","GSnew","1","category1/GS2.png","targets/15.png","","direct","","-53"
"","image-slider-response","319","1505432","0.0-12.0-0.35","mk54186wco","many_one","0","indirect_first","0","ui03ng31","0","20","1","1","3","2","2582","","","","","neg","GS","GSnew","3","category3/GS1.png","targets/12.png","","direct","","-51"
"","image-slider-response","320","1509424","0.0-12.0-0.36","mk54186wco","many_one","0","indirect_first","0","ui03ng31","0","20","1","1","3","2","3991","","","","","neg","GS","GSold","1","category1/CS3.png","targets/13.png","","direct","","44"
"","image-slider-response","321","1512023","0.0-12.0-0.37","mk54186wco","many_one","0","indirect_first","0","ui03ng31","0","20","1","1","3","2","2599","","","","","neg","CS","CS","1","category1/CS7.png","targets/23.png","","direct","","-84"
"","image-slider-response","322","1514936","0.0-12.0-0.38","mk54186wco","many_one","0","indirect_first","0","ui03ng31","0","20","1","1","3","2","2910","","","","","pos","GS","GSnew","4","category4/GS2.png","targets/44.png","","direct","","-37"
"","image-slider-response","323","1517744","0.0-12.0-0.39","mk54186wco","many_one","0","indirect_first","0","ui03ng31","0","20","1","1","3","2","2807","","","","","pos","CS","CS","2","category2/CS7.png","targets/47.png","","direct","","39"
"","image-slider-response","324","1520975","0.0-12.0-0.40","mk54186wco","many_one","0","indirect_first","0","ui03ng31","0","20","1","1","3","2","3231","","","","","neg","GS","GSold","1","category1/CS1.png","targets/35.png","","direct","","49"
"","image-slider-response","325","1523583","0.0-12.0-0.41","mk54186wco","many_one","0","indirect_first","0","ui03ng31","0","20","1","1","3","2","2607","","","","","pos","GS","GSold","2","category2/CS10.png","targets/9.png","","direct","","63"
"","image-slider-response","326","1526663","0.0-12.0-0.42","mk54186wco","many_one","0","indirect_first","0","ui03ng31","0","20","1","1","3","2","3078","","","","","pos","GS","GSnew","4","category4/GS3.png","targets/14.png","","direct","","80"
"","image-slider-response","327","1529511","0.0-12.0-0.43","mk54186wco","many_one","0","indirect_first","0","ui03ng31","0","20","1","1","3","2","2847","","","","","neg","CS","CS","1","category1/CS6.png","targets/19.png","","direct","","39"
"","image-slider-response","328","1531751","0.0-12.0-0.44","mk54186wco","many_one","0","indirect_first","0","ui03ng31","0","20","1","1","3","2","2238","","","","","pos","GS","abstract","4","category4/lin.png","targets/37.png","","direct","","46"
"","image-slider-response","329","1535120","0.0-12.0-0.45","mk54186wco","many_one","0","indirect_first","0","ui03ng31","0","20","1","1","3","2","3366","","","","","neg","GS","GSold","3","category3/CS2.png","targets/28.png","","direct","","59"
"","image-slider-response","330","1539208","0.0-12.0-0.46","mk54186wco","many_one","0","indirect_first","0","ui03ng31","0","20","1","1","3","2","4086","","","","","pos","GS","GSold","4","category4/CS8.png","targets/43.png","","direct","","-50"
"","image-slider-response","331","1541664","0.0-12.0-0.47","mk54186wco","many_one","0","indirect_first","0","ui03ng31","0","20","1","1","3","2","2454","","","","","pos","GS","abstract","2","category2/men.png","targets/6.png","","direct","","75"
"","survey-html-form","332","1546616","0.0-13.0","mk54186wco","many_one","0","indirect_first","0","ui03ng31","0","20","1","1","3","2","4952","","{}","","","","","","","","","","","",""
"","image-slider-response","333","1551624","0.0-14.0-0.0","mk54186wco","many_one","0","indirect_first","0","ui03ng31","0","20","1","1","3","2","3987","","","","","neg","All","all","1","category1/ma_all.png","","","all","","-60"
"","image-slider-response","334","1554239","0.0-14.0-0.1","mk54186wco","many_one","0","indirect_first","0","ui03ng31","0","20","1","1","3","2","2613","","","","","neg","All","all","3","category3/wang_all.png","","","all","","-52"
"","image-slider-response","335","1558040","0.0-14.0-0.2","mk54186wco","many_one","0","indirect_first","0","ui03ng31","0","20","1","1","3","2","3800","","","","","pos","All","all","4","category4/lin_all.png","","","all","","30"
"","image-slider-response","336","1561000","0.0-14.0-0.3","mk54186wco","many_one","0","indirect_first","0","ui03ng31","0","20","1","1","3","2","2958","","","","","pos","All","all","2","category2/men_all.png","","","all","","-45"
"","survey-text","337","1709137","0.0-15.0","mk54186wco","many_one","0","indirect_first","0","ui03ng31","0","20","1","1","3","2","148131","","{""Q0"":""""}","","","","","","","","","","","",""
