"success","trial_type","trial_index","time_elapsed","internal_node_id","subject","condition","condition_code","measure","measure_code","codeword","gender","age","education","chinese","fach","handedness","comment","hinschauen","ablenkung","gewissenhaft","rt","url","responses","stimulus","key_press","val","type","type_specific","category","cs_selected","response","target","task","indirect","nr_pres"
"true","fullscreen","0","3400","0.0-0.0","r88wjnjll7","many_one","0","direct_first","1","er08er18","0","34","2","1","3","1","","0","1","0","","","","","","","","","","","","","","",""
"","external-html","1","32047","0.0-1.0","r88wjnjll7","many_one","0","direct_first","1","er08er18","0","34","2","1","3","1","","0","1","0","28600","text/information.html","","","","","","","","","","","","",""
"","external-html","2","45455","0.0-2.0","r88wjnjll7","many_one","0","direct_first","1","er08er18","0","34","2","1","3","1","","0","1","0","13349","text/consent.html","","","","","","","","","","","","",""
"","survey-html-form","3","80439","0.0-3.0","r88wjnjll7","many_one","0","direct_first","1","er08er18","0","34","2","1","3","1","","0","1","0","34981","","{""codeword_enter"":""er08er18""}","","","","","","","","","","","",""
"","survey-html-form","4","95046","0.0-4.0","r88wjnjll7","many_one","0","direct_first","1","er08er18","0","34","2","1","3","1","","0","1","0","14604","","{""age"":""34"",""education"":""2"",""subject"":""3"",""gender"":""0"",""handedness"":""1"",""chinese"":""1""}","","","","","","","","","","","",""
"","survey-html-form","5","96573","0.0-5.0","r88wjnjll7","many_one","0","direct_first","1","er08er18","0","34","2","1","3","1","","0","1","0","1526","","{}","","","","","","","","","","","",""
"","html-keyboard-response","6","100582","0.0-6.0-0.0-0.0","r88wjnjll7","many_one","0","direct_first","1","er08er18","0","34","2","1","3","1","","0","1","0","null","","","<div class = 'row'><div class = 'column'><img src = 'usneg/9220.bmp' width = '100%;'></div><div class = 'column'><img src = 'category1/CS10.png' width = '70%;'></div></div>","null","neg","CS","CS","1","category1/CS10.png","","","","",""
"","html-keyboard-response","7","103084","0.0-6.0-0.0-0.1","r88wjnjll7","many_one","0","direct_first","1","er08er18","0","34","2","1","3","1","","0","1","0","null","","","<div class = 'row'><div class = 'column'><img src = 'category1/CS5.png' width = '70%;'></div><div class = 'column'><img src = 'usneg/9181.bmp' width = '100%;'></div></div>","null","neg","CS","CS","1","category1/CS5.png","","","","",""
"","html-keyboard-response","8","105593","0.0-6.0-0.0-0.2","r88wjnjll7","many_one","0","direct_first","1","er08er18","0","34","2","1","3","1","","0","1","0","null","","","<div class = 'row'><div class = 'column'><img src = 'usneg/9280.bmp' width = '100%;'></div><div class = 'column'><img src = 'category1/CS2.png' width = '70%;'></div></div>","null","neg","CS","CS","1","category1/CS2.png","","","","",""
"","html-keyboard-response","9","108097","0.0-6.0-0.0-0.3","r88wjnjll7","many_one","0","direct_first","1","er08er18","0","34","2","1","3","1","","0","1","0","null","","","<div class = 'row'><div class = 'column'><img src = 'uspos/2058.bmp' width = '100%;'></div><div class = 'column'><img src = 'category2/CS2.png' width = '70%;'></div></div>","null","pos","CS","CS","2","category2/CS2.png","","","","",""
"","html-keyboard-response","10","110604","0.0-6.0-0.0-0.4","r88wjnjll7","many_one","0","direct_first","1","er08er18","0","34","2","1","3","1","","0","1","0","null","","","<div class = 'row'><div class = 'column'><img src = 'category3/CS10.png' width = '70%;'></div><div class = 'column'><img src = 'uspos/8540.bmp' width = '100%;'></div></div>","null","pos","CS","CS","3","category3/CS10.png","","","","",""
"","html-keyboard-response","11","113106","0.0-6.0-0.0-0.5","r88wjnjll7","many_one","0","direct_first","1","er08er18","0","34","2","1","3","1","","0","1","0","null","","","<div class = 'row'><div class = 'column'><img src = 'usneg/9415.bmp' width = '100%;'></div><div class = 'column'><img src = 'category4/CS7.png' width = '70%;'></div></div>","null","neg","CS","CS","4","category4/CS7.png","","","","",""
"","html-keyboard-response","12","115614","0.0-6.0-0.0-0.6","r88wjnjll7","many_one","0","direct_first","1","er08er18","0","34","2","1","3","1","","0","1","0","null","","","<div class = 'row'><div class = 'column'><img src = 'category4/CS3.png' width = '70%;'></div><div class = 'column'><img src = 'usneg/9435.bmp' width = '100%;'></div></div>","null","neg","CS","CS","4","category4/CS3.png","","","","",""
"","html-keyboard-response","13","118117","0.0-6.0-0.0-0.7","r88wjnjll7","many_one","0","direct_first","1","er08er18","0","34","2","1","3","1","","0","1","0","null","","","<div class = 'row'><div class = 'column'><img src = 'uspos/5629.bmp' width = '100%;'></div><div class = 'column'><img src = 'category3/CS9.png' width = '70%;'></div></div>","null","pos","CS","CS","3","category3/CS9.png","","","","",""
"","html-keyboard-response","14","120623","0.0-6.0-0.0-0.8","r88wjnjll7","many_one","0","direct_first","1","er08er18","0","34","2","1","3","1","","0","1","0","null","","","<div class = 'row'><div class = 'column'><img src = 'category2/CS5.png' width = '70%;'></div><div class = 'column'><img src = 'uspos/1460.bmp' width = '100%;'></div></div>","null","pos","CS","CS","2","category2/CS5.png","","","","",""
"","html-keyboard-response","15","123129","0.0-6.0-0.0-0.9","r88wjnjll7","many_one","0","direct_first","1","er08er18","0","34","2","1","3","1","","0","1","0","null","","","<div class = 'row'><div class = 'column'><img src = 'uspos/8461.bmp' width = '100%;'></div><div class = 'column'><img src = 'category2/CS10.png' width = '70%;'></div></div>","null","pos","CS","CS","2","category2/CS10.png","","","","",""
"","html-keyboard-response","16","125631","0.0-6.0-0.0-0.10","r88wjnjll7","many_one","0","direct_first","1","er08er18","0","34","2","1","3","1","","0","1","0","null","","","<div class = 'row'><div class = 'column'><img src = 'category3/CS5.png' width = '70%;'></div><div class = 'column'><img src = 'uspos/8190.bmp' width = '100%;'></div></div>","null","pos","CS","CS","3","category3/CS5.png","","","","",""
"","html-keyboard-response","17","128134","0.0-6.0-0.0-0.11","r88wjnjll7","many_one","0","direct_first","1","er08er18","0","34","2","1","3","1","","0","1","0","null","","","<div class = 'row'><div class = 'column'><img src = 'usneg/2141.bmp' width = '100%;'></div><div class = 'column'><img src = 'category4/CS9.png' width = '70%;'></div></div>","null","neg","CS","CS","4","category4/CS9.png","","","","",""
"","html-keyboard-response","18","130636","0.0-6.0-0.0-0.12","r88wjnjll7","many_one","0","direct_first","1","er08er18","0","34","2","1","3","1","","0","1","0","null","","","<div class = 'row'><div class = 'column'><img src = 'usneg/9635.2.bmp' width = '100%;'></div><div class = 'column'><img src = 'category4/CS2.png' width = '70%;'></div></div>","null","neg","CS","CS","4","category4/CS2.png","","","","",""
"","html-keyboard-response","19","133139","0.0-6.0-0.0-0.13","r88wjnjll7","many_one","0","direct_first","1","er08er18","0","34","2","1","3","1","","0","1","0","null","","","<div class = 'row'><div class = 'column'><img src = 'usneg/9584.bmp' width = '100%;'></div><div class = 'column'><img src = 'category4/CS8.png' width = '70%;'></div></div>","null","neg","CS","CS","4","category4/CS8.png","","","","",""
"","html-keyboard-response","20","135645","0.0-6.0-0.0-0.14","r88wjnjll7","many_one","0","direct_first","1","er08er18","0","34","2","1","3","1","","0","1","0","null","","","<div class = 'row'><div class = 'column'><img src = 'uspos/2900.2.bmp' width = '100%;'></div><div class = 'column'><img src = 'category2/CS3.png' width = '70%;'></div></div>","null","pos","CS","CS","2","category2/CS3.png","","","","",""
"","html-keyboard-response","21","138148","0.0-6.0-0.0-0.15","r88wjnjll7","many_one","0","direct_first","1","er08er18","0","34","2","1","3","1","","0","1","0","null","","","<div class = 'row'><div class = 'column'><img src = 'usneg/3160.bmp' width = '100%;'></div><div class = 'column'><img src = 'category1/CS4.png' width = '70%;'></div></div>","null","neg","CS","CS","1","category1/CS4.png","","","","",""
"","html-keyboard-response","22","140651","0.0-6.0-0.0-0.16","r88wjnjll7","many_one","0","direct_first","1","er08er18","0","34","2","1","3","1","","0","1","0","null","","","<div class = 'row'><div class = 'column'><img src = 'uspos/1440.bmp' width = '100%;'></div><div class = 'column'><img src = 'category2/CS7.png' width = '70%;'></div></div>","null","pos","CS","CS","2","category2/CS7.png","","","","",""
"","html-keyboard-response","23","143159","0.0-6.0-0.0-0.17","r88wjnjll7","many_one","0","direct_first","1","er08er18","0","34","2","1","3","1","","0","1","0","null","","","<div class = 'row'><div class = 'column'><img src = 'uspos/2165.bmp' width = '100%;'></div><div class = 'column'><img src = 'category3/CS8.png' width = '70%;'></div></div>","null","pos","CS","CS","3","category3/CS8.png","","","","",""
"","html-keyboard-response","24","145660","0.0-6.0-0.0-0.18","r88wjnjll7","many_one","0","direct_first","1","er08er18","0","34","2","1","3","1","","0","1","0","null","","","<div class = 'row'><div class = 'column'><img src = 'category3/CS4.png' width = '70%;'></div><div class = 'column'><img src = 'uspos/2341.bmp' width = '100%;'></div></div>","null","pos","CS","CS","3","category3/CS4.png","","","","",""
"","html-keyboard-response","25","148165","0.0-6.0-0.0-0.19","r88wjnjll7","many_one","0","direct_first","1","er08er18","0","34","2","1","3","1","","0","1","0","null","","","<div class = 'row'><div class = 'column'><img src = 'category1/CS3.png' width = '70%;'></div><div class = 'column'><img src = 'usneg/9560.bmp' width = '100%;'></div></div>","null","neg","CS","CS","1","category1/CS3.png","","","","",""
"","survey-html-form","26","151156","0.0-6.0-1.0","r88wjnjll7","many_one","0","direct_first","1","er08er18","0","34","2","1","3","1","","0","1","0","2488","","{}","","","","","","","","","","","",""
"","html-keyboard-response","27","155163","0.0-6.0-2.0-0.0","r88wjnjll7","many_one","0","direct_first","1","er08er18","0","34","2","1","3","1","","0","1","0","null","","","<div class = 'row'><div class = 'column'><img src = 'category3/CS5.png' width = '70%;'></div><div class = 'column'><img src = 'uspos/8190.bmp' width = '100%;'></div></div>","null","pos","CS","CS","3","category3/CS5.png","","","","",""
"","html-keyboard-response","28","157666","0.0-6.0-2.0-0.1","r88wjnjll7","many_one","0","direct_first","1","er08er18","0","34","2","1","3","1","","0","1","0","null","","","<div class = 'row'><div class = 'column'><img src = 'uspos/1440.bmp' width = '100%;'></div><div class = 'column'><img src = 'category2/CS7.png' width = '70%;'></div></div>","null","pos","CS","CS","2","category2/CS7.png","","","","",""
"","html-keyboard-response","29","160170","0.0-6.0-2.0-0.2","r88wjnjll7","many_one","0","direct_first","1","er08er18","0","34","2","1","3","1","","0","1","0","null","","","<div class = 'row'><div class = 'column'><img src = 'category4/CS3.png' width = '70%;'></div><div class = 'column'><img src = 'usneg/9435.bmp' width = '100%;'></div></div>","null","neg","CS","CS","4","category4/CS3.png","","","","",""
"","html-keyboard-response","30","162675","0.0-6.0-2.0-0.3","r88wjnjll7","many_one","0","direct_first","1","er08er18","0","34","2","1","3","1","","0","1","0","null","","","<div class = 'row'><div class = 'column'><img src = 'category4/CS8.png' width = '70%;'></div><div class = 'column'><img src = 'usneg/9584.bmp' width = '100%;'></div></div>","null","neg","CS","CS","4","category4/CS8.png","","","","",""
"","html-keyboard-response","31","165182","0.0-6.0-2.0-0.4","r88wjnjll7","many_one","0","direct_first","1","er08er18","0","34","2","1","3","1","","0","1","0","null","","","<div class = 'row'><div class = 'column'><img src = 'usneg/9181.bmp' width = '100%;'></div><div class = 'column'><img src = 'category1/CS5.png' width = '70%;'></div></div>","null","neg","CS","CS","1","category1/CS5.png","","","","",""
"","html-keyboard-response","32","167685","0.0-6.0-2.0-0.5","r88wjnjll7","many_one","0","direct_first","1","er08er18","0","34","2","1","3","1","","0","1","0","null","","","<div class = 'row'><div class = 'column'><img src = 'category2/CS2.png' width = '70%;'></div><div class = 'column'><img src = 'uspos/2058.bmp' width = '100%;'></div></div>","null","pos","CS","CS","2","category2/CS2.png","","","","",""
"","html-keyboard-response","33","170189","0.0-6.0-2.0-0.6","r88wjnjll7","many_one","0","direct_first","1","er08er18","0","34","2","1","3","1","","0","1","0","null","","","<div class = 'row'><div class = 'column'><img src = 'usneg/9635.2.bmp' width = '100%;'></div><div class = 'column'><img src = 'category4/CS2.png' width = '70%;'></div></div>","null","neg","CS","CS","4","category4/CS2.png","","","","",""
"","html-keyboard-response","34","172695","0.0-6.0-2.0-0.7","r88wjnjll7","many_one","0","direct_first","1","er08er18","0","34","2","1","3","1","","0","1","0","null","","","<div class = 'row'><div class = 'column'><img src = 'usneg/9220.bmp' width = '100%;'></div><div class = 'column'><img src = 'category1/CS10.png' width = '70%;'></div></div>","null","neg","CS","CS","1","category1/CS10.png","","","","",""
"","html-keyboard-response","35","175197","0.0-6.0-2.0-0.8","r88wjnjll7","many_one","0","direct_first","1","er08er18","0","34","2","1","3","1","","0","1","0","null","","","<div class = 'row'><div class = 'column'><img src = 'usneg/9280.bmp' width = '100%;'></div><div class = 'column'><img src = 'category1/CS2.png' width = '70%;'></div></div>","null","neg","CS","CS","1","category1/CS2.png","","","","",""
"","html-keyboard-response","36","177701","0.0-6.0-2.0-0.9","r88wjnjll7","many_one","0","direct_first","1","er08er18","0","34","2","1","3","1","","0","1","0","null","","","<div class = 'row'><div class = 'column'><img src = 'usneg/9560.bmp' width = '100%;'></div><div class = 'column'><img src = 'category1/CS3.png' width = '70%;'></div></div>","null","neg","CS","CS","1","category1/CS3.png","","","","",""
"","html-keyboard-response","37","180204","0.0-6.0-2.0-0.10","r88wjnjll7","many_one","0","direct_first","1","er08er18","0","34","2","1","3","1","","0","1","0","null","","","<div class = 'row'><div class = 'column'><img src = 'uspos/2165.bmp' width = '100%;'></div><div class = 'column'><img src = 'category3/CS8.png' width = '70%;'></div></div>","null","pos","CS","CS","3","category3/CS8.png","","","","",""
"","html-keyboard-response","38","182711","0.0-6.0-2.0-0.11","r88wjnjll7","many_one","0","direct_first","1","er08er18","0","34","2","1","3","1","","0","1","0","null","","","<div class = 'row'><div class = 'column'><img src = 'usneg/2141.bmp' width = '100%;'></div><div class = 'column'><img src = 'category4/CS9.png' width = '70%;'></div></div>","null","neg","CS","CS","4","category4/CS9.png","","","","",""
"","html-keyboard-response","39","185220","0.0-6.0-2.0-0.12","r88wjnjll7","many_one","0","direct_first","1","er08er18","0","34","2","1","3","1","","0","1","0","null","","","<div class = 'row'><div class = 'column'><img src = 'category2/CS3.png' width = '70%;'></div><div class = 'column'><img src = 'uspos/2900.2.bmp' width = '100%;'></div></div>","null","pos","CS","CS","2","category2/CS3.png","","","","",""
"","html-keyboard-response","40","187721","0.0-6.0-2.0-0.13","r88wjnjll7","many_one","0","direct_first","1","er08er18","0","34","2","1","3","1","","0","1","0","null","","","<div class = 'row'><div class = 'column'><img src = 'category1/CS4.png' width = '70%;'></div><div class = 'column'><img src = 'usneg/3160.bmp' width = '100%;'></div></div>","null","neg","CS","CS","1","category1/CS4.png","","","","",""
"","html-keyboard-response","41","190224","0.0-6.0-2.0-0.14","r88wjnjll7","many_one","0","direct_first","1","er08er18","0","34","2","1","3","1","","0","1","0","null","","","<div class = 'row'><div class = 'column'><img src = 'category2/CS10.png' width = '70%;'></div><div class = 'column'><img src = 'uspos/8461.bmp' width = '100%;'></div></div>","null","pos","CS","CS","2","category2/CS10.png","","","","",""
"","html-keyboard-response","42","192726","0.0-6.0-2.0-0.15","r88wjnjll7","many_one","0","direct_first","1","er08er18","0","34","2","1","3","1","","0","1","0","null","","","<div class = 'row'><div class = 'column'><img src = 'category3/CS10.png' width = '70%;'></div><div class = 'column'><img src = 'uspos/8540.bmp' width = '100%;'></div></div>","null","pos","CS","CS","3","category3/CS10.png","","","","",""
"","html-keyboard-response","43","195228","0.0-6.0-2.0-0.16","r88wjnjll7","many_one","0","direct_first","1","er08er18","0","34","2","1","3","1","","0","1","0","null","","","<div class = 'row'><div class = 'column'><img src = 'usneg/9415.bmp' width = '100%;'></div><div class = 'column'><img src = 'category4/CS7.png' width = '70%;'></div></div>","null","neg","CS","CS","4","category4/CS7.png","","","","",""
"","html-keyboard-response","44","197731","0.0-6.0-2.0-0.17","r88wjnjll7","many_one","0","direct_first","1","er08er18","0","34","2","1","3","1","","0","1","0","null","","","<div class = 'row'><div class = 'column'><img src = 'category3/CS9.png' width = '70%;'></div><div class = 'column'><img src = 'uspos/5629.bmp' width = '100%;'></div></div>","null","pos","CS","CS","3","category3/CS9.png","","","","",""
"","html-keyboard-response","45","200233","0.0-6.0-2.0-0.18","r88wjnjll7","many_one","0","direct_first","1","er08er18","0","34","2","1","3","1","","0","1","0","null","","","<div class = 'row'><div class = 'column'><img src = 'category3/CS4.png' width = '70%;'></div><div class = 'column'><img src = 'uspos/2341.bmp' width = '100%;'></div></div>","null","pos","CS","CS","3","category3/CS4.png","","","","",""
"","html-keyboard-response","46","202735","0.0-6.0-2.0-0.19","r88wjnjll7","many_one","0","direct_first","1","er08er18","0","34","2","1","3","1","","0","1","0","null","","","<div class = 'row'><div class = 'column'><img src = 'category2/CS5.png' width = '70%;'></div><div class = 'column'><img src = 'uspos/1460.bmp' width = '100%;'></div></div>","null","pos","CS","CS","2","category2/CS5.png","","","","",""
"","survey-html-form","47","204844","0.0-6.0-3.0","r88wjnjll7","many_one","0","direct_first","1","er08er18","0","34","2","1","3","1","","0","1","0","1609","","{}","","","","","","","","","","","",""
"","html-keyboard-response","48","208848","0.0-6.0-4.0-0.0","r88wjnjll7","many_one","0","direct_first","1","er08er18","0","34","2","1","3","1","","0","1","0","null","","","<div class = 'row'><div class = 'column'><img src = 'category3/CS10.png' width = '70%;'></div><div class = 'column'><img src = 'uspos/8540.bmp' width = '100%;'></div></div>","null","pos","CS","CS","3","category3/CS10.png","","","","",""
"","html-keyboard-response","49","211352","0.0-6.0-4.0-0.1","r88wjnjll7","many_one","0","direct_first","1","er08er18","0","34","2","1","3","1","","0","1","0","null","","","<div class = 'row'><div class = 'column'><img src = 'usneg/2141.bmp' width = '100%;'></div><div class = 'column'><img src = 'category4/CS9.png' width = '70%;'></div></div>","null","neg","CS","CS","4","category4/CS9.png","","","","",""
"","html-keyboard-response","50","213854","0.0-6.0-4.0-0.2","r88wjnjll7","many_one","0","direct_first","1","er08er18","0","34","2","1","3","1","","0","1","0","null","","","<div class = 'row'><div class = 'column'><img src = 'category2/CS7.png' width = '70%;'></div><div class = 'column'><img src = 'uspos/1440.bmp' width = '100%;'></div></div>","null","pos","CS","CS","2","category2/CS7.png","","","","",""
"","html-keyboard-response","51","216356","0.0-6.0-4.0-0.3","r88wjnjll7","many_one","0","direct_first","1","er08er18","0","34","2","1","3","1","","0","1","0","null","","","<div class = 'row'><div class = 'column'><img src = 'uspos/8190.bmp' width = '100%;'></div><div class = 'column'><img src = 'category3/CS5.png' width = '70%;'></div></div>","null","pos","CS","CS","3","category3/CS5.png","","","","",""
"","html-keyboard-response","52","218859","0.0-6.0-4.0-0.4","r88wjnjll7","many_one","0","direct_first","1","er08er18","0","34","2","1","3","1","","0","1","0","null","","","<div class = 'row'><div class = 'column'><img src = 'usneg/9435.bmp' width = '100%;'></div><div class = 'column'><img src = 'category4/CS3.png' width = '70%;'></div></div>","null","neg","CS","CS","4","category4/CS3.png","","","","",""
"","html-keyboard-response","53","221365","0.0-6.0-4.0-0.5","r88wjnjll7","many_one","0","direct_first","1","er08er18","0","34","2","1","3","1","","0","1","0","null","","","<div class = 'row'><div class = 'column'><img src = 'uspos/2058.bmp' width = '100%;'></div><div class = 'column'><img src = 'category2/CS2.png' width = '70%;'></div></div>","null","pos","CS","CS","2","category2/CS2.png","","","","",""
"","html-keyboard-response","54","223869","0.0-6.0-4.0-0.6","r88wjnjll7","many_one","0","direct_first","1","er08er18","0","34","2","1","3","1","","0","1","0","null","","","<div class = 'row'><div class = 'column'><img src = 'category1/CS2.png' width = '70%;'></div><div class = 'column'><img src = 'usneg/9280.bmp' width = '100%;'></div></div>","null","neg","CS","CS","1","category1/CS2.png","","","","",""
"","html-keyboard-response","55","226377","0.0-6.0-4.0-0.7","r88wjnjll7","many_one","0","direct_first","1","er08er18","0","34","2","1","3","1","","0","1","0","null","","","<div class = 'row'><div class = 'column'><img src = 'usneg/9584.bmp' width = '100%;'></div><div class = 'column'><img src = 'category4/CS8.png' width = '70%;'></div></div>","null","neg","CS","CS","4","category4/CS8.png","","","","",""
"","html-keyboard-response","56","228878","0.0-6.0-4.0-0.8","r88wjnjll7","many_one","0","direct_first","1","er08er18","0","34","2","1","3","1","","0","1","0","null","","","<div class = 'row'><div class = 'column'><img src = 'uspos/8461.bmp' width = '100%;'></div><div class = 'column'><img src = 'category2/CS10.png' width = '70%;'></div></div>","null","pos","CS","CS","2","category2/CS10.png","","","","",""
"","html-keyboard-response","57","231384","0.0-6.0-4.0-0.9","r88wjnjll7","many_one","0","direct_first","1","er08er18","0","34","2","1","3","1","","0","1","0","null","","","<div class = 'row'><div class = 'column'><img src = 'uspos/2165.bmp' width = '100%;'></div><div class = 'column'><img src = 'category3/CS8.png' width = '70%;'></div></div>","null","pos","CS","CS","3","category3/CS8.png","","","","",""
"","html-keyboard-response","58","233887","0.0-6.0-4.0-0.10","r88wjnjll7","many_one","0","direct_first","1","er08er18","0","34","2","1","3","1","","0","1","0","null","","","<div class = 'row'><div class = 'column'><img src = 'category1/CS5.png' width = '70%;'></div><div class = 'column'><img src = 'usneg/9181.bmp' width = '100%;'></div></div>","null","neg","CS","CS","1","category1/CS5.png","","","","",""
"","html-keyboard-response","59","236392","0.0-6.0-4.0-0.11","r88wjnjll7","many_one","0","direct_first","1","er08er18","0","34","2","1","3","1","","0","1","0","null","","","<div class = 'row'><div class = 'column'><img src = 'category2/CS5.png' width = '70%;'></div><div class = 'column'><img src = 'uspos/1460.bmp' width = '100%;'></div></div>","null","pos","CS","CS","2","category2/CS5.png","","","","",""
"","html-keyboard-response","60","238897","0.0-6.0-4.0-0.12","r88wjnjll7","many_one","0","direct_first","1","er08er18","0","34","2","1","3","1","","0","1","0","null","","","<div class = 'row'><div class = 'column'><img src = 'category4/CS2.png' width = '70%;'></div><div class = 'column'><img src = 'usneg/9635.2.bmp' width = '100%;'></div></div>","null","neg","CS","CS","4","category4/CS2.png","","","","",""
"","html-keyboard-response","61","241405","0.0-6.0-4.0-0.13","r88wjnjll7","many_one","0","direct_first","1","er08er18","0","34","2","1","3","1","","0","1","0","null","","","<div class = 'row'><div class = 'column'><img src = 'usneg/9220.bmp' width = '100%;'></div><div class = 'column'><img src = 'category1/CS10.png' width = '70%;'></div></div>","null","neg","CS","CS","1","category1/CS10.png","","","","",""
"","html-keyboard-response","62","243910","0.0-6.0-4.0-0.14","r88wjnjll7","many_one","0","direct_first","1","er08er18","0","34","2","1","3","1","","0","1","0","null","","","<div class = 'row'><div class = 'column'><img src = 'category1/CS3.png' width = '70%;'></div><div class = 'column'><img src = 'usneg/9560.bmp' width = '100%;'></div></div>","null","neg","CS","CS","1","category1/CS3.png","","","","",""
"","html-keyboard-response","63","246411","0.0-6.0-4.0-0.15","r88wjnjll7","many_one","0","direct_first","1","er08er18","0","34","2","1","3","1","","0","1","0","null","","","<div class = 'row'><div class = 'column'><img src = 'category4/CS7.png' width = '70%;'></div><div class = 'column'><img src = 'usneg/9415.bmp' width = '100%;'></div></div>","null","neg","CS","CS","4","category4/CS7.png","","","","",""
"","html-keyboard-response","64","248916","0.0-6.0-4.0-0.16","r88wjnjll7","many_one","0","direct_first","1","er08er18","0","34","2","1","3","1","","0","1","0","null","","","<div class = 'row'><div class = 'column'><img src = 'uspos/2900.2.bmp' width = '100%;'></div><div class = 'column'><img src = 'category2/CS3.png' width = '70%;'></div></div>","null","pos","CS","CS","2","category2/CS3.png","","","","",""
"","html-keyboard-response","65","251421","0.0-6.0-4.0-0.17","r88wjnjll7","many_one","0","direct_first","1","er08er18","0","34","2","1","3","1","","0","1","0","null","","","<div class = 'row'><div class = 'column'><img src = 'usneg/3160.bmp' width = '100%;'></div><div class = 'column'><img src = 'category1/CS4.png' width = '70%;'></div></div>","null","neg","CS","CS","1","category1/CS4.png","","","","",""
"","html-keyboard-response","66","253930","0.0-6.0-4.0-0.18","r88wjnjll7","many_one","0","direct_first","1","er08er18","0","34","2","1","3","1","","0","1","0","null","","","<div class = 'row'><div class = 'column'><img src = 'category3/CS4.png' width = '70%;'></div><div class = 'column'><img src = 'uspos/2341.bmp' width = '100%;'></div></div>","null","pos","CS","CS","3","category3/CS4.png","","","","",""
"","html-keyboard-response","67","256437","0.0-6.0-4.0-0.19","r88wjnjll7","many_one","0","direct_first","1","er08er18","0","34","2","1","3","1","","0","1","0","null","","","<div class = 'row'><div class = 'column'><img src = 'category3/CS9.png' width = '70%;'></div><div class = 'column'><img src = 'uspos/5629.bmp' width = '100%;'></div></div>","null","pos","CS","CS","3","category3/CS9.png","","","","",""
"","survey-html-form","68","258482","0.0-6.0-5.0","r88wjnjll7","many_one","0","direct_first","1","er08er18","0","34","2","1","3","1","","0","1","0","1544","","{}","","","","","","","","","","","",""
"","html-keyboard-response","69","262484","0.0-6.0-6.0-0.0","r88wjnjll7","many_one","0","direct_first","1","er08er18","0","34","2","1","3","1","","0","1","0","null","","","<div class = 'row'><div class = 'column'><img src = 'category1/CS3.png' width = '70%;'></div><div class = 'column'><img src = 'usneg/9560.bmp' width = '100%;'></div></div>","null","neg","CS","CS","1","category1/CS3.png","","","","",""
"","html-keyboard-response","70","264990","0.0-6.0-6.0-0.1","r88wjnjll7","many_one","0","direct_first","1","er08er18","0","34","2","1","3","1","","0","1","0","null","","","<div class = 'row'><div class = 'column'><img src = 'uspos/2058.bmp' width = '100%;'></div><div class = 'column'><img src = 'category2/CS2.png' width = '70%;'></div></div>","null","pos","CS","CS","2","category2/CS2.png","","","","",""
"","html-keyboard-response","71","267493","0.0-6.0-6.0-0.2","r88wjnjll7","many_one","0","direct_first","1","er08er18","0","34","2","1","3","1","","0","1","0","null","","","<div class = 'row'><div class = 'column'><img src = 'category4/CS2.png' width = '70%;'></div><div class = 'column'><img src = 'usneg/9635.2.bmp' width = '100%;'></div></div>","null","neg","CS","CS","4","category4/CS2.png","","","","",""
"","html-keyboard-response","72","269998","0.0-6.0-6.0-0.3","r88wjnjll7","many_one","0","direct_first","1","er08er18","0","34","2","1","3","1","","0","1","0","null","","","<div class = 'row'><div class = 'column'><img src = 'usneg/9220.bmp' width = '100%;'></div><div class = 'column'><img src = 'category1/CS10.png' width = '70%;'></div></div>","null","neg","CS","CS","1","category1/CS10.png","","","","",""
"","html-keyboard-response","73","272506","0.0-6.0-6.0-0.4","r88wjnjll7","many_one","0","direct_first","1","er08er18","0","34","2","1","3","1","","0","1","0","null","","","<div class = 'row'><div class = 'column'><img src = 'uspos/1440.bmp' width = '100%;'></div><div class = 'column'><img src = 'category2/CS7.png' width = '70%;'></div></div>","null","pos","CS","CS","2","category2/CS7.png","","","","",""
"","html-keyboard-response","74","275007","0.0-6.0-6.0-0.5","r88wjnjll7","many_one","0","direct_first","1","er08er18","0","34","2","1","3","1","","0","1","0","null","","","<div class = 'row'><div class = 'column'><img src = 'uspos/8190.bmp' width = '100%;'></div><div class = 'column'><img src = 'category3/CS5.png' width = '70%;'></div></div>","null","pos","CS","CS","3","category3/CS5.png","","","","",""
"","html-keyboard-response","75","277512","0.0-6.0-6.0-0.6","r88wjnjll7","many_one","0","direct_first","1","er08er18","0","34","2","1","3","1","","0","1","0","null","","","<div class = 'row'><div class = 'column'><img src = 'uspos/1460.bmp' width = '100%;'></div><div class = 'column'><img src = 'category2/CS5.png' width = '70%;'></div></div>","null","pos","CS","CS","2","category2/CS5.png","","","","",""
"","html-keyboard-response","76","280015","0.0-6.0-6.0-0.7","r88wjnjll7","many_one","0","direct_first","1","er08er18","0","34","2","1","3","1","","0","1","0","null","","","<div class = 'row'><div class = 'column'><img src = 'category1/CS5.png' width = '70%;'></div><div class = 'column'><img src = 'usneg/9181.bmp' width = '100%;'></div></div>","null","neg","CS","CS","1","category1/CS5.png","","","","",""
"","html-keyboard-response","77","282523","0.0-6.0-6.0-0.8","r88wjnjll7","many_one","0","direct_first","1","er08er18","0","34","2","1","3","1","","0","1","0","null","","","<div class = 'row'><div class = 'column'><img src = 'usneg/9280.bmp' width = '100%;'></div><div class = 'column'><img src = 'category1/CS2.png' width = '70%;'></div></div>","null","neg","CS","CS","1","category1/CS2.png","","","","",""
"","html-keyboard-response","78","285028","0.0-6.0-6.0-0.9","r88wjnjll7","many_one","0","direct_first","1","er08er18","0","34","2","1","3","1","","0","1","0","null","","","<div class = 'row'><div class = 'column'><img src = 'uspos/2900.2.bmp' width = '100%;'></div><div class = 'column'><img src = 'category2/CS3.png' width = '70%;'></div></div>","null","pos","CS","CS","2","category2/CS3.png","","","","",""
"","html-keyboard-response","79","287529","0.0-6.0-6.0-0.10","r88wjnjll7","many_one","0","direct_first","1","er08er18","0","34","2","1","3","1","","0","1","0","null","","","<div class = 'row'><div class = 'column'><img src = 'usneg/2141.bmp' width = '100%;'></div><div class = 'column'><img src = 'category4/CS9.png' width = '70%;'></div></div>","null","neg","CS","CS","4","category4/CS9.png","","","","",""
"","html-keyboard-response","80","290034","0.0-6.0-6.0-0.11","r88wjnjll7","many_one","0","direct_first","1","er08er18","0","34","2","1","3","1","","0","1","0","null","","","<div class = 'row'><div class = 'column'><img src = 'usneg/9435.bmp' width = '100%;'></div><div class = 'column'><img src = 'category4/CS3.png' width = '70%;'></div></div>","null","neg","CS","CS","4","category4/CS3.png","","","","",""
"","html-keyboard-response","81","292537","0.0-6.0-6.0-0.12","r88wjnjll7","many_one","0","direct_first","1","er08er18","0","34","2","1","3","1","","0","1","0","null","","","<div class = 'row'><div class = 'column'><img src = 'usneg/3160.bmp' width = '100%;'></div><div class = 'column'><img src = 'category1/CS4.png' width = '70%;'></div></div>","null","neg","CS","CS","1","category1/CS4.png","","","","",""
"","html-keyboard-response","82","295038","0.0-6.0-6.0-0.13","r88wjnjll7","many_one","0","direct_first","1","er08er18","0","34","2","1","3","1","","0","1","0","null","","","<div class = 'row'><div class = 'column'><img src = 'category3/CS10.png' width = '70%;'></div><div class = 'column'><img src = 'uspos/8540.bmp' width = '100%;'></div></div>","null","pos","CS","CS","3","category3/CS10.png","","","","",""
"","html-keyboard-response","83","297546","0.0-6.0-6.0-0.14","r88wjnjll7","many_one","0","direct_first","1","er08er18","0","34","2","1","3","1","","0","1","0","null","","","<div class = 'row'><div class = 'column'><img src = 'uspos/8461.bmp' width = '100%;'></div><div class = 'column'><img src = 'category2/CS10.png' width = '70%;'></div></div>","null","pos","CS","CS","2","category2/CS10.png","","","","",""
"","html-keyboard-response","84","300053","0.0-6.0-6.0-0.15","r88wjnjll7","many_one","0","direct_first","1","er08er18","0","34","2","1","3","1","","0","1","0","null","","","<div class = 'row'><div class = 'column'><img src = 'uspos/2165.bmp' width = '100%;'></div><div class = 'column'><img src = 'category3/CS8.png' width = '70%;'></div></div>","null","pos","CS","CS","3","category3/CS8.png","","","","",""
"","html-keyboard-response","85","302558","0.0-6.0-6.0-0.16","r88wjnjll7","many_one","0","direct_first","1","er08er18","0","34","2","1","3","1","","0","1","0","null","","","<div class = 'row'><div class = 'column'><img src = 'uspos/5629.bmp' width = '100%;'></div><div class = 'column'><img src = 'category3/CS9.png' width = '70%;'></div></div>","null","pos","CS","CS","3","category3/CS9.png","","","","",""
"","html-keyboard-response","86","305061","0.0-6.0-6.0-0.17","r88wjnjll7","many_one","0","direct_first","1","er08er18","0","34","2","1","3","1","","0","1","0","null","","","<div class = 'row'><div class = 'column'><img src = 'category3/CS4.png' width = '70%;'></div><div class = 'column'><img src = 'uspos/2341.bmp' width = '100%;'></div></div>","null","pos","CS","CS","3","category3/CS4.png","","","","",""
"","html-keyboard-response","87","307567","0.0-6.0-6.0-0.18","r88wjnjll7","many_one","0","direct_first","1","er08er18","0","34","2","1","3","1","","0","1","0","null","","","<div class = 'row'><div class = 'column'><img src = 'category4/CS8.png' width = '70%;'></div><div class = 'column'><img src = 'usneg/9584.bmp' width = '100%;'></div></div>","null","neg","CS","CS","4","category4/CS8.png","","","","",""
"","html-keyboard-response","88","310074","0.0-6.0-6.0-0.19","r88wjnjll7","many_one","0","direct_first","1","er08er18","0","34","2","1","3","1","","0","1","0","null","","","<div class = 'row'><div class = 'column'><img src = 'category4/CS7.png' width = '70%;'></div><div class = 'column'><img src = 'usneg/9415.bmp' width = '100%;'></div></div>","null","neg","CS","CS","4","category4/CS7.png","","","","",""
"","survey-html-form","89","317293","0.0-7.0","r88wjnjll7","many_one","0","direct_first","1","er08er18","0","34","2","1","3","1","","0","1","0","6718","","{}","","","","","","","","","","","",""
"","image-slider-response","90","333560","0.0-8.0-0.0","r88wjnjll7","many_one","0","direct_first","1","er08er18","0","34","2","1","3","1","","0","1","0","14257","","","","","pos","CS","CS","3","category3/CS9.png","-4","targets/42.png","direct","",""
"","image-slider-response","91","337549","0.0-8.0-0.1","r88wjnjll7","many_one","0","direct_first","1","er08er18","0","34","2","1","3","1","","0","1","0","3988","","","","","pos","GS","abstract","2","category2/men.png","-5","targets/30.png","direct","",""
"","image-slider-response","92","343813","0.0-8.0-0.2","r88wjnjll7","many_one","0","direct_first","1","er08er18","0","34","2","1","3","1","","0","1","0","6262","","","","","pos","GS","GSold","2","category2/CS9.png","-8","targets/7.png","direct","",""
"","image-slider-response","93","350010","0.0-8.0-0.3","r88wjnjll7","many_one","0","direct_first","1","er08er18","0","34","2","1","3","1","","0","1","0","6195","","","","","pos","GS","GSold","3","category3/CS7.png","10","targets/29.png","direct","",""
"","image-slider-response","94","353856","0.0-8.0-0.4","r88wjnjll7","many_one","0","direct_first","1","er08er18","0","34","2","1","3","1","","0","1","0","3845","","","","","pos","GS","GSnew","3","category3/GS3.png","-27","targets/31.png","direct","",""
"","image-slider-response","95","357346","0.0-8.0-0.5","r88wjnjll7","many_one","0","direct_first","1","er08er18","0","34","2","1","3","1","","0","1","0","3488","","","","","pos","GS","GSnew","2","category2/GS2.png","-38","targets/15.png","direct","",""
"","image-slider-response","96","360645","0.0-8.0-0.6","r88wjnjll7","many_one","0","direct_first","1","er08er18","0","34","2","1","3","1","","0","1","0","3298","","","","","pos","CS","CS","2","category2/CS5.png","-52","targets/39.png","direct","",""
"","image-slider-response","97","364159","0.0-8.0-0.7","r88wjnjll7","many_one","0","direct_first","1","er08er18","0","34","2","1","3","1","","0","1","0","3511","","","","","neg","CS","CS","1","category1/CS10.png","17","targets/38.png","direct","",""
"","image-slider-response","98","367657","0.0-8.0-0.8","r88wjnjll7","many_one","0","direct_first","1","er08er18","0","34","2","1","3","1","","0","1","0","3496","","","","","neg","GS","abstract","1","category1/ma.png","2","targets/37.png","direct","",""
"","image-slider-response","99","370243","0.0-8.0-0.9","r88wjnjll7","many_one","0","direct_first","1","er08er18","0","34","2","1","3","1","","0","1","0","2583","","","","","neg","CS","CS","1","category1/CS4.png","14","targets/17.png","direct","",""
"","image-slider-response","100","372657","0.0-8.0-0.10","r88wjnjll7","many_one","0","direct_first","1","er08er18","0","34","2","1","3","1","","0","1","0","2412","","","","","neg","GS","GSnew","4","category4/GS1.png","15","targets/44.png","direct","",""
"","image-slider-response","101","375144","0.0-8.0-0.11","r88wjnjll7","many_one","0","direct_first","1","er08er18","0","34","2","1","3","1","","0","1","0","2487","","","","","neg","CS","CS","1","category1/CS3.png","13","targets/20.png","direct","",""
"","image-slider-response","102","377336","0.0-8.0-0.12","r88wjnjll7","many_one","0","direct_first","1","er08er18","0","34","2","1","3","1","","0","1","0","2190","","","","","neg","CS","CS","1","category1/CS5.png","20","targets/28.png","direct","",""
"","image-slider-response","103","380026","0.0-8.0-0.13","r88wjnjll7","many_one","0","direct_first","1","er08er18","0","34","2","1","3","1","","0","1","0","2687","","","","","pos","GS","GSold","2","category2/CS6.png","-26","targets/18.png","direct","",""
"","image-slider-response","104","382725","0.0-8.0-0.14","r88wjnjll7","many_one","0","direct_first","1","er08er18","0","34","2","1","3","1","","0","1","0","2698","","","","","pos","GS","GSold","2","category2/CS1.png","-17","targets/3.png","direct","",""
"","image-slider-response","105","385035","0.0-8.0-0.15","r88wjnjll7","many_one","0","direct_first","1","er08er18","0","34","2","1","3","1","","0","1","0","2307","","","","","pos","GS","GSold","3","category3/CS1.png","-27","targets/48.png","direct","",""
"","image-slider-response","106","387313","0.0-8.0-0.16","r88wjnjll7","many_one","0","direct_first","1","er08er18","0","34","2","1","3","1","","0","1","0","2276","","","","","neg","GS","GSold","1","category1/CS9.png","30","targets/8.png","direct","",""
"","image-slider-response","107","390147","0.0-8.0-0.17","r88wjnjll7","many_one","0","direct_first","1","er08er18","0","34","2","1","3","1","","0","1","0","2833","","","","","pos","CS","CS","3","category3/CS4.png","22","targets/34.png","direct","",""
"","image-slider-response","108","392266","0.0-8.0-0.18","r88wjnjll7","many_one","0","direct_first","1","er08er18","0","34","2","1","3","1","","0","1","0","2116","","","","","neg","CS","CS","4","category4/CS3.png","22","targets/41.png","direct","",""
"","image-slider-response","109","394333","0.0-8.0-0.19","r88wjnjll7","many_one","0","direct_first","1","er08er18","0","34","2","1","3","1","","0","1","0","2065","","","","","pos","CS","CS","2","category2/CS3.png","-26","targets/46.png","direct","",""
"","image-slider-response","110","397048","0.0-8.0-0.20","r88wjnjll7","many_one","0","direct_first","1","er08er18","0","34","2","1","3","1","","0","1","0","2713","","","","","neg","GS","GSold","4","category4/CS6.png","16","targets/5.png","direct","",""
"","image-slider-response","111","399295","0.0-8.0-0.21","r88wjnjll7","many_one","0","direct_first","1","er08er18","0","34","2","1","3","1","","0","1","0","2246","","","","","pos","CS","CS","3","category3/CS5.png","-18","targets/21.png","direct","",""
"","image-slider-response","112","401765","0.0-8.0-0.22","r88wjnjll7","many_one","0","direct_first","1","er08er18","0","34","2","1","3","1","","0","1","0","2468","","","","","neg","GS","GSnew","1","category1/GS2.png","12","targets/47.png","direct","",""
"","image-slider-response","113","407016","0.0-8.0-0.23","r88wjnjll7","many_one","0","direct_first","1","er08er18","0","34","2","1","3","1","","0","1","0","5251","","","","","pos","CS","CS","2","category2/CS2.png","-8","targets/11.png","direct","",""
"","image-slider-response","114","411048","0.0-8.0-0.24","r88wjnjll7","many_one","0","direct_first","1","er08er18","0","34","2","1","3","1","","0","1","0","4030","","","","","neg","GS","GSold","1","category1/CS1.png","-3","targets/2.png","direct","",""
"","image-slider-response","115","413732","0.0-8.0-0.25","r88wjnjll7","many_one","0","direct_first","1","er08er18","0","34","2","1","3","1","","0","1","0","2681","","","","","neg","GS","GSnew","4","category4/GS2.png","10","targets/26.png","direct","",""
"","image-slider-response","116","417235","0.0-8.0-0.26","r88wjnjll7","many_one","0","direct_first","1","er08er18","0","34","2","1","3","1","","0","1","0","3502","","","","","neg","GS","GSold","4","category4/CS1.png","10","targets/35.png","direct","",""
"","image-slider-response","117","420049","0.0-8.0-0.27","r88wjnjll7","many_one","0","direct_first","1","er08er18","0","34","2","1","3","1","","0","1","0","2812","","","","","pos","GS","GSnew","2","category2/GS1.png","6","targets/40.png","direct","",""
"","image-slider-response","118","422051","0.0-8.0-0.28","r88wjnjll7","many_one","0","direct_first","1","er08er18","0","34","2","1","3","1","","0","1","0","2000","","","","","pos","GS","GSnew","2","category2/GS3.png","-12","targets/4.png","direct","",""
"","image-slider-response","119","425275","0.0-8.0-0.29","r88wjnjll7","many_one","0","direct_first","1","er08er18","0","34","2","1","3","1","","0","1","0","3222","","","","","neg","GS","GSnew","4","category4/GS3.png","8","targets/36.png","direct","",""
"","image-slider-response","120","427512","0.0-8.0-0.30","r88wjnjll7","many_one","0","direct_first","1","er08er18","0","34","2","1","3","1","","0","1","0","2234","","","","","neg","CS","CS","4","category4/CS7.png","3","targets/25.png","direct","",""
"","image-slider-response","121","431825","0.0-8.0-0.31","r88wjnjll7","many_one","0","direct_first","1","er08er18","0","34","2","1","3","1","","0","1","0","4311","","","","","pos","GS","GSnew","3","category3/GS1.png","-14","targets/1.png","direct","",""
"","image-slider-response","122","434356","0.0-8.0-0.32","r88wjnjll7","many_one","0","direct_first","1","er08er18","0","34","2","1","3","1","","0","1","0","2529","","","","","neg","GS","GSnew","1","category1/GS1.png","-18","targets/16.png","direct","",""
"","image-slider-response","123","436673","0.0-8.0-0.33","r88wjnjll7","many_one","0","direct_first","1","er08er18","0","34","2","1","3","1","","0","1","0","2315","","","","","neg","GS","GSold","4","category4/CS10.png","-8","targets/13.png","direct","",""
"","image-slider-response","124","439153","0.0-8.0-0.34","r88wjnjll7","many_one","0","direct_first","1","er08er18","0","34","2","1","3","1","","0","1","0","2479","","","","","pos","GS","GSnew","3","category3/GS2.png","-15","targets/19.png","direct","",""
"","image-slider-response","125","442094","0.0-8.0-0.35","r88wjnjll7","many_one","0","direct_first","1","er08er18","0","34","2","1","3","1","","0","1","0","2940","","","","","pos","CS","CS","3","category3/CS10.png","-20","targets/27.png","direct","",""
"","image-slider-response","126","446852","0.0-8.0-0.36","r88wjnjll7","many_one","0","direct_first","1","er08er18","0","34","2","1","3","1","","0","1","0","4757","","","","","neg","CS","CS","4","category4/CS2.png","-10","targets/32.png","direct","",""
"","image-slider-response","127","450754","0.0-8.0-0.37","r88wjnjll7","many_one","0","direct_first","1","er08er18","0","34","2","1","3","1","","0","1","0","3901","","","","","pos","CS","CS","2","category2/CS7.png","15","targets/23.png","direct","",""
"","image-slider-response","128","452990","0.0-8.0-0.38","r88wjnjll7","many_one","0","direct_first","1","er08er18","0","34","2","1","3","1","","0","1","0","2234","","","","","neg","GS","GSold","1","category1/CS8.png","-6","targets/22.png","direct","",""
"","image-slider-response","129","455359","0.0-8.0-0.39","r88wjnjll7","many_one","0","direct_first","1","er08er18","0","34","2","1","3","1","","0","1","0","2366","","","","","neg","GS","abstract","4","category4/lin.png","-6","targets/6.png","direct","",""
"","image-slider-response","130","457580","0.0-8.0-0.40","r88wjnjll7","many_one","0","direct_first","1","er08er18","0","34","2","1","3","1","","0","1","0","2218","","","","","neg","GS","GSnew","1","category1/GS3.png","-12","targets/12.png","direct","",""
"","image-slider-response","131","460044","0.0-8.0-0.41","r88wjnjll7","many_one","0","direct_first","1","er08er18","0","34","2","1","3","1","","0","1","0","2462","","","","","pos","GS","abstract","3","category3/wang.png","-16","targets/33.png","direct","",""
"","image-slider-response","132","462232","0.0-8.0-0.42","r88wjnjll7","many_one","0","direct_first","1","er08er18","0","34","2","1","3","1","","0","1","0","2187","","","","","neg","CS","CS","4","category4/CS9.png","-15","targets/9.png","direct","",""
"","image-slider-response","133","464461","0.0-8.0-0.43","r88wjnjll7","many_one","0","direct_first","1","er08er18","0","34","2","1","3","1","","0","1","0","2227","","","","","neg","CS","CS","1","category1/CS2.png","-16","targets/24.png","direct","",""
"","image-slider-response","134","466657","0.0-8.0-0.44","r88wjnjll7","many_one","0","direct_first","1","er08er18","0","34","2","1","3","1","","0","1","0","2195","","","","","pos","CS","CS","3","category3/CS8.png","-20","targets/43.png","direct","",""
"","image-slider-response","135","469253","0.0-8.0-0.45","r88wjnjll7","many_one","0","direct_first","1","er08er18","0","34","2","1","3","1","","0","1","0","2594","","","","","pos","CS","CS","2","category2/CS10.png","-22","targets/14.png","direct","",""
"","image-slider-response","136","471085","0.0-8.0-0.46","r88wjnjll7","many_one","0","direct_first","1","er08er18","0","34","2","1","3","1","","0","1","0","1830","","","","","neg","CS","CS","4","category4/CS8.png","-27","targets/45.png","direct","",""
"","image-slider-response","137","473298","0.0-8.0-0.47","r88wjnjll7","many_one","0","direct_first","1","er08er18","0","34","2","1","3","1","","0","1","0","2210","","","","","pos","GS","GSold","3","category3/CS2.png","-22","targets/10.png","direct","",""
"","html-keyboard-response","138","487462","0.0-9.0","r88wjnjll7","many_one","0","direct_first","1","er08er18","0","34","2","1","3","1","","0","1","0","14162","","","<p>Sie sehen nun die chinesischen Zeichen nur ganz kurz. Danach sehen Sie die jeweilige Aussprache der Zeichen als Silbe auf dem Bildschrim. Ihre Aufgabe ist es, für jede Silbe anzugeben, ob diese etwas angenehmes, oder unangenehmes bedeuten könnte. Verlassen Sie sich hier vor allem auf Ihre Intuition.<br><br>Die Zeichen werden nur zur Orientierung dargestellt, beachten Sie sie deshalb nicht. Konzentrieren Sie sich vor allem auf die Silben. <br>Reagieren Sie mit folgenden zwei Tasten: <br><br><b>'D' </b> wenn die Silbe etwas <b>unangenehmes</b> bedeuten könnte. <br><b>'K'</b> wenn die Silbe etwas <b>angenehmes</b> bedeuten könnte. <br><br>Bitte legen Sie nun den Zeigefinger der linken Hand auf die Taste 'D' und den Zeigefinger der rechten Hand auf die Taste 'K'. <br>Reagieren Sie auf jede Silbe so schnell wie möglich. Uns interessiert Ihre spontane Reaktion. <br> <br> <br>Drücken Sie 'D' oder 'K', um die nächste Aufgabe zu starten. </p>","68","","","","","","","","","",""
"","html-keyboard-response","139","490468","0.0-10.0-0.0","r88wjnjll7","many_one","0","direct_first","1","er08er18","0","34","2","1","3","1","","0","1","0","null","","","<div style=""font-size:60px;"">+</div>","null","","","","","","","","","",""
"","html-keyboard-response","140","490561","0.0-10.0-1.0","r88wjnjll7","many_one","0","direct_first","1","er08er18","0","34","2","1","3","1","","0","1","0","null","","","<img src = 'category3/CS9.png' width = '100%;'>","null","","","","","","","","","",""
"","html-keyboard-response","141","490814","0.0-10.0-2.0","r88wjnjll7","many_one","0","direct_first","1","er08er18","0","34","2","1","3","1","","0","1","0","null","","","<img src = 'targets/42.png' width = '100%;'>","null","","","","","","","","","",""
"","html-keyboard-response","142","495579","0.0-10.0-3.0","r88wjnjll7","many_one","0","direct_first","1","er08er18","0","34","2","1","3","1","","0","1","0","4764","","","<img src = 'targets/mask.png' width = '100%;'>","68","pos","CS","CS","3","category3/CS9.png","","targets/42.png","indirect","0","0"
"","html-keyboard-response","143","497080","0.0-10.0-0.1","r88wjnjll7","many_one","0","direct_first","1","er08er18","0","34","2","1","3","1","","0","1","0","null","","","<div style=""font-size:60px;"">+</div>","null","","","","","","","","","",""
"","html-keyboard-response","144","497174","0.0-10.0-1.1","r88wjnjll7","many_one","0","direct_first","1","er08er18","0","34","2","1","3","1","","0","1","0","null","","","<img src = 'category3/CS5.png' width = '100%;'>","null","","","","","","","","","",""
"","html-keyboard-response","145","497433","0.0-10.0-2.1","r88wjnjll7","many_one","0","direct_first","1","er08er18","0","34","2","1","3","1","","0","1","0","null","","","<img src = 'targets/21.png' width = '100%;'>","null","","","","","","","","","",""
"","html-keyboard-response","146","498983","0.0-10.0-3.1","r88wjnjll7","many_one","0","direct_first","1","er08er18","0","34","2","1","3","1","","0","1","0","1549","","","<img src = 'targets/mask.png' width = '100%;'>","75","pos","CS","CS","3","category3/CS5.png","","targets/21.png","indirect","1","1"
"","html-keyboard-response","147","500485","0.0-10.0-0.2","r88wjnjll7","many_one","0","direct_first","1","er08er18","0","34","2","1","3","1","","0","1","0","null","","","<div style=""font-size:60px;"">+</div>","null","","","","","","","","","",""
"","html-keyboard-response","148","500577","0.0-10.0-1.2","r88wjnjll7","many_one","0","direct_first","1","er08er18","0","34","2","1","3","1","","0","1","0","null","","","<img src = 'category4/CS10.png' width = '100%;'>","null","","","","","","","","","",""
"","html-keyboard-response","149","500833","0.0-10.0-2.2","r88wjnjll7","many_one","0","direct_first","1","er08er18","0","34","2","1","3","1","","0","1","0","null","","","<img src = 'targets/13.png' width = '100%;'>","null","","","","","","","","","",""
"","html-keyboard-response","150","505401","0.0-10.0-3.2","r88wjnjll7","many_one","0","direct_first","1","er08er18","0","34","2","1","3","1","","0","1","0","4567","","","<img src = 'targets/mask.png' width = '100%;'>","68","neg","GS","GSold","4","category4/CS10.png","","targets/13.png","indirect","0","2"
"","html-keyboard-response","151","506904","0.0-10.0-0.3","r88wjnjll7","many_one","0","direct_first","1","er08er18","0","34","2","1","3","1","","0","1","0","null","","","<div style=""font-size:60px;"">+</div>","null","","","","","","","","","",""
"","html-keyboard-response","152","506996","0.0-10.0-1.3","r88wjnjll7","many_one","0","direct_first","1","er08er18","0","34","2","1","3","1","","0","1","0","null","","","<img src = 'category4/CS9.png' width = '100%;'>","null","","","","","","","","","",""
"","html-keyboard-response","153","507248","0.0-10.0-2.3","r88wjnjll7","many_one","0","direct_first","1","er08er18","0","34","2","1","3","1","","0","1","0","null","","","<img src = 'targets/9.png' width = '100%;'>","null","","","","","","","","","",""
"","html-keyboard-response","154","507788","0.0-10.0-3.3","r88wjnjll7","many_one","0","direct_first","1","er08er18","0","34","2","1","3","1","","0","1","0","540","","","<img src = 'targets/mask.png' width = '100%;'>","68","neg","CS","CS","4","category4/CS9.png","","targets/9.png","indirect","0","3"
"","html-keyboard-response","155","509291","0.0-10.0-0.4","r88wjnjll7","many_one","0","direct_first","1","er08er18","0","34","2","1","3","1","","0","1","0","null","","","<div style=""font-size:60px;"">+</div>","null","","","","","","","","","",""
"","html-keyboard-response","156","509384","0.0-10.0-1.4","r88wjnjll7","many_one","0","direct_first","1","er08er18","0","34","2","1","3","1","","0","1","0","null","","","<img src = 'category4/CS8.png' width = '100%;'>","null","","","","","","","","","",""
"","html-keyboard-response","157","509644","0.0-10.0-2.4","r88wjnjll7","many_one","0","direct_first","1","er08er18","0","34","2","1","3","1","","0","1","0","null","","","<img src = 'targets/45.png' width = '100%;'>","null","","","","","","","","","",""
"","html-keyboard-response","158","510115","0.0-10.0-3.4","r88wjnjll7","many_one","0","direct_first","1","er08er18","0","34","2","1","3","1","","0","1","0","470","","","<img src = 'targets/mask.png' width = '100%;'>","68","neg","CS","CS","4","category4/CS8.png","","targets/45.png","indirect","0","4"
"","html-keyboard-response","159","511624","0.0-10.0-0.5","r88wjnjll7","many_one","0","direct_first","1","er08er18","0","34","2","1","3","1","","0","1","0","null","","","<div style=""font-size:60px;"">+</div>","null","","","","","","","","","",""
"","html-keyboard-response","160","511715","0.0-10.0-1.5","r88wjnjll7","many_one","0","direct_first","1","er08er18","0","34","2","1","3","1","","0","1","0","null","","","<img src = 'category2/CS5.png' width = '100%;'>","null","","","","","","","","","",""
"","html-keyboard-response","161","511968","0.0-10.0-2.5","r88wjnjll7","many_one","0","direct_first","1","er08er18","0","34","2","1","3","1","","0","1","0","null","","","<img src = 'targets/39.png' width = '100%;'>","null","","","","","","","","","",""
"","html-keyboard-response","162","512741","0.0-10.0-3.5","r88wjnjll7","many_one","0","direct_first","1","er08er18","0","34","2","1","3","1","","0","1","0","771","","","<img src = 'targets/mask.png' width = '100%;'>","75","pos","CS","CS","2","category2/CS5.png","","targets/39.png","indirect","1","5"
"","html-keyboard-response","163","514242","0.0-10.0-0.6","r88wjnjll7","many_one","0","direct_first","1","er08er18","0","34","2","1","3","1","","0","1","0","null","","","<div style=""font-size:60px;"">+</div>","null","","","","","","","","","",""
"","html-keyboard-response","164","514336","0.0-10.0-1.6","r88wjnjll7","many_one","0","direct_first","1","er08er18","0","34","2","1","3","1","","0","1","0","null","","","<img src = 'category3/CS4.png' width = '100%;'>","null","","","","","","","","","",""
"","html-keyboard-response","165","514589","0.0-10.0-2.6","r88wjnjll7","many_one","0","direct_first","1","er08er18","0","34","2","1","3","1","","0","1","0","null","","","<img src = 'targets/34.png' width = '100%;'>","null","","","","","","","","","",""
"","html-keyboard-response","166","515211","0.0-10.0-3.6","r88wjnjll7","many_one","0","direct_first","1","er08er18","0","34","2","1","3","1","","0","1","0","619","","","<img src = 'targets/mask.png' width = '100%;'>","75","pos","CS","CS","3","category3/CS4.png","","targets/34.png","indirect","1","6"
"","html-keyboard-response","167","516716","0.0-10.0-0.7","r88wjnjll7","many_one","0","direct_first","1","er08er18","0","34","2","1","3","1","","0","1","0","null","","","<div style=""font-size:60px;"">+</div>","null","","","","","","","","","",""
"","html-keyboard-response","168","516809","0.0-10.0-1.7","r88wjnjll7","many_one","0","direct_first","1","er08er18","0","34","2","1","3","1","","0","1","0","null","","","<img src = 'category1/CS3.png' width = '100%;'>","null","","","","","","","","","",""
"","html-keyboard-response","169","517060","0.0-10.0-2.7","r88wjnjll7","many_one","0","direct_first","1","er08er18","0","34","2","1","3","1","","0","1","0","null","","","<img src = 'targets/20.png' width = '100%;'>","null","","","","","","","","","",""
"","html-keyboard-response","170","517499","0.0-10.0-3.7","r88wjnjll7","many_one","0","direct_first","1","er08er18","0","34","2","1","3","1","","0","1","0","437","","","<img src = 'targets/mask.png' width = '100%;'>","68","neg","CS","CS","1","category1/CS3.png","","targets/20.png","indirect","0","7"
"","html-keyboard-response","171","519011","0.0-10.0-0.8","r88wjnjll7","many_one","0","direct_first","1","er08er18","0","34","2","1","3","1","","0","1","0","null","","","<div style=""font-size:60px;"">+</div>","null","","","","","","","","","",""
"","html-keyboard-response","172","519105","0.0-10.0-1.8","r88wjnjll7","many_one","0","direct_first","1","er08er18","0","34","2","1","3","1","","0","1","0","null","","","<img src = 'category4/CS1.png' width = '100%;'>","null","","","","","","","","","",""
"","html-keyboard-response","173","519359","0.0-10.0-2.8","r88wjnjll7","many_one","0","direct_first","1","er08er18","0","34","2","1","3","1","","0","1","0","null","","","<img src = 'targets/35.png' width = '100%;'>","null","","","","","","","","","",""
"","html-keyboard-response","174","521789","0.0-10.0-3.8","r88wjnjll7","many_one","0","direct_first","1","er08er18","0","34","2","1","3","1","","0","1","0","2430","","","<img src = 'targets/mask.png' width = '100%;'>","68","neg","GS","GSold","4","category4/CS1.png","","targets/35.png","indirect","0","8"
"","html-keyboard-response","175","523292","0.0-10.0-0.9","r88wjnjll7","many_one","0","direct_first","1","er08er18","0","34","2","1","3","1","","0","1","0","null","","","<div style=""font-size:60px;"">+</div>","null","","","","","","","","","",""
"","html-keyboard-response","176","523383","0.0-10.0-1.9","r88wjnjll7","many_one","0","direct_first","1","er08er18","0","34","2","1","3","1","","0","1","0","null","","","<img src = 'category4/CS2.png' width = '100%;'>","null","","","","","","","","","",""
"","html-keyboard-response","177","523635","0.0-10.0-2.9","r88wjnjll7","many_one","0","direct_first","1","er08er18","0","34","2","1","3","1","","0","1","0","null","","","<img src = 'targets/32.png' width = '100%;'>","null","","","","","","","","","",""
"","html-keyboard-response","178","524178","0.0-10.0-3.9","r88wjnjll7","many_one","0","direct_first","1","er08er18","0","34","2","1","3","1","","0","1","0","542","","","<img src = 'targets/mask.png' width = '100%;'>","68","neg","CS","CS","4","category4/CS2.png","","targets/32.png","indirect","0","9"
"","html-keyboard-response","179","525686","0.0-10.0-0.10","r88wjnjll7","many_one","0","direct_first","1","er08er18","0","34","2","1","3","1","","0","1","0","null","","","<div style=""font-size:60px;"">+</div>","null","","","","","","","","","",""
"","html-keyboard-response","180","525778","0.0-10.0-1.10","r88wjnjll7","many_one","0","direct_first","1","er08er18","0","34","2","1","3","1","","0","1","0","null","","","<img src = 'category4/CS3.png' width = '100%;'>","null","","","","","","","","","",""
"","html-keyboard-response","181","526033","0.0-10.0-2.10","r88wjnjll7","many_one","0","direct_first","1","er08er18","0","34","2","1","3","1","","0","1","0","null","","","<img src = 'targets/41.png' width = '100%;'>","null","","","","","","","","","",""
"","html-keyboard-response","182","526668","0.0-10.0-3.10","r88wjnjll7","many_one","0","direct_first","1","er08er18","0","34","2","1","3","1","","0","1","0","634","","","<img src = 'targets/mask.png' width = '100%;'>","68","neg","CS","CS","4","category4/CS3.png","","targets/41.png","indirect","0","10"
"","html-keyboard-response","183","528171","0.0-10.0-0.11","r88wjnjll7","many_one","0","direct_first","1","er08er18","0","34","2","1","3","1","","0","1","0","null","","","<div style=""font-size:60px;"">+</div>","null","","","","","","","","","",""
"","html-keyboard-response","184","528265","0.0-10.0-1.11","r88wjnjll7","many_one","0","direct_first","1","er08er18","0","34","2","1","3","1","","0","1","0","null","","","<img src = 'category1/CS4.png' width = '100%;'>","null","","","","","","","","","",""
"","html-keyboard-response","185","528522","0.0-10.0-2.11","r88wjnjll7","many_one","0","direct_first","1","er08er18","0","34","2","1","3","1","","0","1","0","null","","","<img src = 'targets/17.png' width = '100%;'>","null","","","","","","","","","",""
"","html-keyboard-response","186","529101","0.0-10.0-3.11","r88wjnjll7","many_one","0","direct_first","1","er08er18","0","34","2","1","3","1","","0","1","0","576","","","<img src = 'targets/mask.png' width = '100%;'>","75","neg","CS","CS","1","category1/CS4.png","","targets/17.png","indirect","1","11"
"","html-keyboard-response","187","530604","0.0-10.0-0.12","r88wjnjll7","many_one","0","direct_first","1","er08er18","0","34","2","1","3","1","","0","1","0","null","","","<div style=""font-size:60px;"">+</div>","null","","","","","","","","","",""
"","html-keyboard-response","188","530699","0.0-10.0-1.12","r88wjnjll7","many_one","0","direct_first","1","er08er18","0","34","2","1","3","1","","0","1","0","null","","","<img src = 'category2/CS2.png' width = '100%;'>","null","","","","","","","","","",""
"","html-keyboard-response","189","530950","0.0-10.0-2.12","r88wjnjll7","many_one","0","direct_first","1","er08er18","0","34","2","1","3","1","","0","1","0","null","","","<img src = 'targets/11.png' width = '100%;'>","null","","","","","","","","","",""
"","html-keyboard-response","190","531417","0.0-10.0-3.12","r88wjnjll7","many_one","0","direct_first","1","er08er18","0","34","2","1","3","1","","0","1","0","465","","","<img src = 'targets/mask.png' width = '100%;'>","75","pos","CS","CS","2","category2/CS2.png","","targets/11.png","indirect","1","12"
"","html-keyboard-response","191","532920","0.0-10.0-0.13","r88wjnjll7","many_one","0","direct_first","1","er08er18","0","34","2","1","3","1","","0","1","0","null","","","<div style=""font-size:60px;"">+</div>","null","","","","","","","","","",""
"","html-keyboard-response","192","533015","0.0-10.0-1.13","r88wjnjll7","many_one","0","direct_first","1","er08er18","0","34","2","1","3","1","","0","1","0","null","","","<img src = 'category4/CS7.png' width = '100%;'>","null","","","","","","","","","",""
"","html-keyboard-response","193","533268","0.0-10.0-2.13","r88wjnjll7","many_one","0","direct_first","1","er08er18","0","34","2","1","3","1","","0","1","0","null","","","<img src = 'targets/25.png' width = '100%;'>","null","","","","","","","","","",""
"","html-keyboard-response","194","533633","0.0-10.0-3.13","r88wjnjll7","many_one","0","direct_first","1","er08er18","0","34","2","1","3","1","","0","1","0","366","","","<img src = 'targets/mask.png' width = '100%;'>","68","neg","CS","CS","4","category4/CS7.png","","targets/25.png","indirect","0","13"
"","html-keyboard-response","195","535135","0.0-10.0-0.14","r88wjnjll7","many_one","0","direct_first","1","er08er18","0","34","2","1","3","1","","0","1","0","null","","","<div style=""font-size:60px;"">+</div>","null","","","","","","","","","",""
"","html-keyboard-response","196","535227","0.0-10.0-1.14","r88wjnjll7","many_one","0","direct_first","1","er08er18","0","34","2","1","3","1","","0","1","0","null","","","<img src = 'category3/CS10.png' width = '100%;'>","null","","","","","","","","","",""
"","html-keyboard-response","197","535479","0.0-10.0-2.14","r88wjnjll7","many_one","0","direct_first","1","er08er18","0","34","2","1","3","1","","0","1","0","null","","","<img src = 'targets/27.png' width = '100%;'>","null","","","","","","","","","",""
"","html-keyboard-response","198","536950","0.0-10.0-3.14","r88wjnjll7","many_one","0","direct_first","1","er08er18","0","34","2","1","3","1","","0","1","0","1468","","","<img src = 'targets/mask.png' width = '100%;'>","75","pos","CS","CS","3","category3/CS10.png","","targets/27.png","indirect","1","14"
"","html-keyboard-response","199","538452","0.0-10.0-0.15","r88wjnjll7","many_one","0","direct_first","1","er08er18","0","34","2","1","3","1","","0","1","0","null","","","<div style=""font-size:60px;"">+</div>","null","","","","","","","","","",""
"","html-keyboard-response","200","538545","0.0-10.0-1.15","r88wjnjll7","many_one","0","direct_first","1","er08er18","0","34","2","1","3","1","","0","1","0","null","","","<img src = 'category2/CS10.png' width = '100%;'>","null","","","","","","","","","",""
"","html-keyboard-response","201","538798","0.0-10.0-2.15","r88wjnjll7","many_one","0","direct_first","1","er08er18","0","34","2","1","3","1","","0","1","0","null","","","<img src = 'targets/14.png' width = '100%;'>","null","","","","","","","","","",""
"","html-keyboard-response","202","539515","0.0-10.0-3.15","r88wjnjll7","many_one","0","direct_first","1","er08er18","0","34","2","1","3","1","","0","1","0","715","","","<img src = 'targets/mask.png' width = '100%;'>","75","pos","CS","CS","2","category2/CS10.png","","targets/14.png","indirect","1","15"
"","html-keyboard-response","203","541022","0.0-10.0-0.16","r88wjnjll7","many_one","0","direct_first","1","er08er18","0","34","2","1","3","1","","0","1","0","null","","","<div style=""font-size:60px;"">+</div>","null","","","","","","","","","",""
"","html-keyboard-response","204","541114","0.0-10.0-1.16","r88wjnjll7","many_one","0","direct_first","1","er08er18","0","34","2","1","3","1","","0","1","0","null","","","<img src = 'category2/CS7.png' width = '100%;'>","null","","","","","","","","","",""
"","html-keyboard-response","205","541367","0.0-10.0-2.16","r88wjnjll7","many_one","0","direct_first","1","er08er18","0","34","2","1","3","1","","0","1","0","null","","","<img src = 'targets/23.png' width = '100%;'>","null","","","","","","","","","",""
"","html-keyboard-response","206","541783","0.0-10.0-3.16","r88wjnjll7","many_one","0","direct_first","1","er08er18","0","34","2","1","3","1","","0","1","0","415","","","<img src = 'targets/mask.png' width = '100%;'>","75","pos","CS","CS","2","category2/CS7.png","","targets/23.png","indirect","1","16"
"","html-keyboard-response","207","543287","0.0-10.0-0.17","r88wjnjll7","many_one","0","direct_first","1","er08er18","0","34","2","1","3","1","","0","1","0","null","","","<div style=""font-size:60px;"">+</div>","null","","","","","","","","","",""
"","html-keyboard-response","208","543382","0.0-10.0-1.17","r88wjnjll7","many_one","0","direct_first","1","er08er18","0","34","2","1","3","1","","0","1","0","null","","","<img src = 'category1/CS2.png' width = '100%;'>","null","","","","","","","","","",""
"","html-keyboard-response","209","543638","0.0-10.0-2.17","r88wjnjll7","many_one","0","direct_first","1","er08er18","0","34","2","1","3","1","","0","1","0","null","","","<img src = 'targets/24.png' width = '100%;'>","null","","","","","","","","","",""
"","html-keyboard-response","210","544048","0.0-10.0-3.17","r88wjnjll7","many_one","0","direct_first","1","er08er18","0","34","2","1","3","1","","0","1","0","411","","","<img src = 'targets/mask.png' width = '100%;'>","68","neg","CS","CS","1","category1/CS2.png","","targets/24.png","indirect","0","17"
"","html-keyboard-response","211","545550","0.0-10.0-0.18","r88wjnjll7","many_one","0","direct_first","1","er08er18","0","34","2","1","3","1","","0","1","0","null","","","<div style=""font-size:60px;"">+</div>","null","","","","","","","","","",""
"","html-keyboard-response","212","545642","0.0-10.0-1.18","r88wjnjll7","many_one","0","direct_first","1","er08er18","0","34","2","1","3","1","","0","1","0","null","","","<img src = 'category1/CS5.png' width = '100%;'>","null","","","","","","","","","",""
"","html-keyboard-response","213","545900","0.0-10.0-2.18","r88wjnjll7","many_one","0","direct_first","1","er08er18","0","34","2","1","3","1","","0","1","0","null","","","<img src = 'targets/28.png' width = '100%;'>","null","","","","","","","","","",""
"","html-keyboard-response","214","546254","0.0-10.0-3.18","r88wjnjll7","many_one","0","direct_first","1","er08er18","0","34","2","1","3","1","","0","1","0","353","","","<img src = 'targets/mask.png' width = '100%;'>","68","neg","CS","CS","1","category1/CS5.png","","targets/28.png","indirect","0","18"
"","html-keyboard-response","215","547755","0.0-10.0-0.19","r88wjnjll7","many_one","0","direct_first","1","er08er18","0","34","2","1","3","1","","0","1","0","null","","","<div style=""font-size:60px;"">+</div>","null","","","","","","","","","",""
"","html-keyboard-response","216","547852","0.0-10.0-1.19","r88wjnjll7","many_one","0","direct_first","1","er08er18","0","34","2","1","3","1","","0","1","0","null","","","<img src = 'category4/CS6.png' width = '100%;'>","null","","","","","","","","","",""
"","html-keyboard-response","217","548107","0.0-10.0-2.19","r88wjnjll7","many_one","0","direct_first","1","er08er18","0","34","2","1","3","1","","0","1","0","null","","","<img src = 'targets/5.png' width = '100%;'>","null","","","","","","","","","",""
"","html-keyboard-response","218","548483","0.0-10.0-3.19","r88wjnjll7","many_one","0","direct_first","1","er08er18","0","34","2","1","3","1","","0","1","0","375","","","<img src = 'targets/mask.png' width = '100%;'>","68","neg","GS","GSold","4","category4/CS6.png","","targets/5.png","indirect","0","19"
"","html-keyboard-response","219","549988","0.0-10.0-0.20","r88wjnjll7","many_one","0","direct_first","1","er08er18","0","34","2","1","3","1","","0","1","0","null","","","<div style=""font-size:60px;"">+</div>","null","","","","","","","","","",""
"","html-keyboard-response","220","550081","0.0-10.0-1.20","r88wjnjll7","many_one","0","direct_first","1","er08er18","0","34","2","1","3","1","","0","1","0","null","","","<img src = 'category2/CS3.png' width = '100%;'>","null","","","","","","","","","",""
"","html-keyboard-response","221","550334","0.0-10.0-2.20","r88wjnjll7","many_one","0","direct_first","1","er08er18","0","34","2","1","3","1","","0","1","0","null","","","<img src = 'targets/46.png' width = '100%;'>","null","","","","","","","","","",""
"","html-keyboard-response","222","550939","0.0-10.0-3.20","r88wjnjll7","many_one","0","direct_first","1","er08er18","0","34","2","1","3","1","","0","1","0","604","","","<img src = 'targets/mask.png' width = '100%;'>","75","pos","CS","CS","2","category2/CS3.png","","targets/46.png","indirect","1","20"
"","html-keyboard-response","223","552442","0.0-10.0-0.21","r88wjnjll7","many_one","0","direct_first","1","er08er18","0","34","2","1","3","1","","0","1","0","null","","","<div style=""font-size:60px;"">+</div>","null","","","","","","","","","",""
"","html-keyboard-response","224","552535","0.0-10.0-1.21","r88wjnjll7","many_one","0","direct_first","1","er08er18","0","34","2","1","3","1","","0","1","0","null","","","<img src = 'category1/CS10.png' width = '100%;'>","null","","","","","","","","","",""
"","html-keyboard-response","225","552786","0.0-10.0-2.21","r88wjnjll7","many_one","0","direct_first","1","er08er18","0","34","2","1","3","1","","0","1","0","null","","","<img src = 'targets/38.png' width = '100%;'>","null","","","","","","","","","",""
"","html-keyboard-response","226","553218","0.0-10.0-3.21","r88wjnjll7","many_one","0","direct_first","1","er08er18","0","34","2","1","3","1","","0","1","0","431","","","<img src = 'targets/mask.png' width = '100%;'>","68","neg","CS","CS","1","category1/CS10.png","","targets/38.png","indirect","0","21"
"","html-keyboard-response","227","554720","0.0-10.0-0.22","r88wjnjll7","many_one","0","direct_first","1","er08er18","0","34","2","1","3","1","","0","1","0","null","","","<div style=""font-size:60px;"">+</div>","null","","","","","","","","","",""
"","html-keyboard-response","228","554816","0.0-10.0-1.22","r88wjnjll7","many_one","0","direct_first","1","er08er18","0","34","2","1","3","1","","0","1","0","null","","","<img src = 'category3/CS1.png' width = '100%;'>","null","","","","","","","","","",""
"","html-keyboard-response","229","555068","0.0-10.0-2.22","r88wjnjll7","many_one","0","direct_first","1","er08er18","0","34","2","1","3","1","","0","1","0","null","","","<img src = 'targets/48.png' width = '100%;'>","null","","","","","","","","","",""
"","html-keyboard-response","230","555758","0.0-10.0-3.22","r88wjnjll7","many_one","0","direct_first","1","er08er18","0","34","2","1","3","1","","0","1","0","690","","","<img src = 'targets/mask.png' width = '100%;'>","75","pos","GS","GSold","3","category3/CS1.png","","targets/48.png","indirect","1","22"
"","html-keyboard-response","231","557261","0.0-10.0-0.23","r88wjnjll7","many_one","0","direct_first","1","er08er18","0","34","2","1","3","1","","0","1","0","null","","","<div style=""font-size:60px;"">+</div>","null","","","","","","","","","",""
"","html-keyboard-response","232","557356","0.0-10.0-1.23","r88wjnjll7","many_one","0","direct_first","1","er08er18","0","34","2","1","3","1","","0","1","0","null","","","<img src = 'category3/CS8.png' width = '100%;'>","null","","","","","","","","","",""
"","html-keyboard-response","233","557611","0.0-10.0-2.23","r88wjnjll7","many_one","0","direct_first","1","er08er18","0","34","2","1","3","1","","0","1","0","null","","","<img src = 'targets/43.png' width = '100%;'>","null","","","","","","","","","",""
"","html-keyboard-response","234","558330","0.0-10.0-3.23","r88wjnjll7","many_one","0","direct_first","1","er08er18","0","34","2","1","3","1","","0","1","0","718","","","<img src = 'targets/mask.png' width = '100%;'>","75","pos","CS","CS","3","category3/CS8.png","","targets/43.png","indirect","1","23"
"","survey-html-form","235","561197","0.0-11.0","r88wjnjll7","many_one","0","direct_first","1","er08er18","0","34","2","1","3","1","","0","1","0","2364","","{}","","","","","","","","","","","",""
"","html-keyboard-response","236","564200","0.0-12.0-0.0","r88wjnjll7","many_one","0","direct_first","1","er08er18","0","34","2","1","3","1","","0","1","0","null","","","<div style=""font-size:60px;"">+</div>","null","","","","","","","","","",""
"","html-keyboard-response","237","564293","0.0-12.0-1.0","r88wjnjll7","many_one","0","direct_first","1","er08er18","0","34","2","1","3","1","","0","1","0","null","","","<img src = 'category1/CS1.png' width = '100%;'>","null","","","","","","","","","",""
"","html-keyboard-response","238","564544","0.0-12.0-2.0","r88wjnjll7","many_one","0","direct_first","1","er08er18","0","34","2","1","3","1","","0","1","0","null","","","<img src = 'targets/2.png' width = '100%;'>","null","","","","","","","","","",""
"","html-keyboard-response","239","566864","0.0-12.0-3.0","r88wjnjll7","many_one","0","direct_first","1","er08er18","0","34","2","1","3","1","","0","1","0","2319","","","<img src = 'targets/mask.png' width = '100%;'>","75","neg","GS","GSold","1","category1/CS1.png","","targets/2.png","indirect","1","24"
"","html-keyboard-response","240","568371","0.0-12.0-0.1","r88wjnjll7","many_one","0","direct_first","1","er08er18","0","34","2","1","3","1","","0","1","0","null","","","<div style=""font-size:60px;"">+</div>","null","","","","","","","","","",""
"","html-keyboard-response","241","568463","0.0-12.0-1.1","r88wjnjll7","many_one","0","direct_first","1","er08er18","0","34","2","1","3","1","","0","1","0","null","","","<img src = 'category4/GS3.png' width = '100%;'>","null","","","","","","","","","",""
"","html-keyboard-response","242","568718","0.0-12.0-2.1","r88wjnjll7","many_one","0","direct_first","1","er08er18","0","34","2","1","3","1","","0","1","0","null","","","<img src = 'targets/36.png' width = '100%;'>","null","","","","","","","","","",""
"","html-keyboard-response","243","569286","0.0-12.0-3.1","r88wjnjll7","many_one","0","direct_first","1","er08er18","0","34","2","1","3","1","","0","1","0","567","","","<img src = 'targets/mask.png' width = '100%;'>","68","neg","GS","GSnew","4","category4/GS3.png","","targets/36.png","indirect","0","25"
"","html-keyboard-response","244","570795","0.0-12.0-0.2","r88wjnjll7","many_one","0","direct_first","1","er08er18","0","34","2","1","3","1","","0","1","0","null","","","<div style=""font-size:60px;"">+</div>","null","","","","","","","","","",""
"","html-keyboard-response","245","570886","0.0-12.0-1.2","r88wjnjll7","many_one","0","direct_first","1","er08er18","0","34","2","1","3","1","","0","1","0","null","","","<img src = 'category1/CS9.png' width = '100%;'>","null","","","","","","","","","",""
"","html-keyboard-response","246","571142","0.0-12.0-2.2","r88wjnjll7","many_one","0","direct_first","1","er08er18","0","34","2","1","3","1","","0","1","0","null","","","<img src = 'targets/8.png' width = '100%;'>","null","","","","","","","","","",""
"","html-keyboard-response","247","571583","0.0-12.0-3.2","r88wjnjll7","many_one","0","direct_first","1","er08er18","0","34","2","1","3","1","","0","1","0","440","","","<img src = 'targets/mask.png' width = '100%;'>","75","neg","GS","GSold","1","category1/CS9.png","","targets/8.png","indirect","1","26"
"","html-keyboard-response","248","573089","0.0-12.0-0.3","r88wjnjll7","many_one","0","direct_first","1","er08er18","0","34","2","1","3","1","","0","1","0","null","","","<div style=""font-size:60px;"">+</div>","null","","","","","","","","","",""
"","html-keyboard-response","249","573180","0.0-12.0-1.3","r88wjnjll7","many_one","0","direct_first","1","er08er18","0","34","2","1","3","1","","0","1","0","null","","","<img src = 'category3/GS1.png' width = '100%;'>","null","","","","","","","","","",""
"","html-keyboard-response","250","573434","0.0-12.0-2.3","r88wjnjll7","many_one","0","direct_first","1","er08er18","0","34","2","1","3","1","","0","1","0","null","","","<img src = 'targets/1.png' width = '100%;'>","null","","","","","","","","","",""
"","html-keyboard-response","251","574054","0.0-12.0-3.3","r88wjnjll7","many_one","0","direct_first","1","er08er18","0","34","2","1","3","1","","0","1","0","620","","","<img src = 'targets/mask.png' width = '100%;'>","75","pos","GS","GSnew","3","category3/GS1.png","","targets/1.png","indirect","1","27"
"","html-keyboard-response","252","575559","0.0-12.0-0.4","r88wjnjll7","many_one","0","direct_first","1","er08er18","0","34","2","1","3","1","","0","1","0","null","","","<div style=""font-size:60px;"">+</div>","null","","","","","","","","","",""
"","html-keyboard-response","253","575650","0.0-12.0-1.4","r88wjnjll7","many_one","0","direct_first","1","er08er18","0","34","2","1","3","1","","0","1","0","null","","","<img src = 'category2/GS2.png' width = '100%;'>","null","","","","","","","","","",""
"","html-keyboard-response","254","575904","0.0-12.0-2.4","r88wjnjll7","many_one","0","direct_first","1","er08er18","0","34","2","1","3","1","","0","1","0","null","","","<img src = 'targets/15.png' width = '100%;'>","null","","","","","","","","","",""
"","html-keyboard-response","255","576381","0.0-12.0-3.4","r88wjnjll7","many_one","0","direct_first","1","er08er18","0","34","2","1","3","1","","0","1","0","477","","","<img src = 'targets/mask.png' width = '100%;'>","68","pos","GS","GSnew","2","category2/GS2.png","","targets/15.png","indirect","0","28"
"","html-keyboard-response","256","577885","0.0-12.0-0.5","r88wjnjll7","many_one","0","direct_first","1","er08er18","0","34","2","1","3","1","","0","1","0","null","","","<div style=""font-size:60px;"">+</div>","null","","","","","","","","","",""
"","html-keyboard-response","257","577976","0.0-12.0-1.5","r88wjnjll7","many_one","0","direct_first","1","er08er18","0","34","2","1","3","1","","0","1","0","null","","","<img src = 'category1/CS8.png' width = '100%;'>","null","","","","","","","","","",""
"","html-keyboard-response","258","578228","0.0-12.0-2.5","r88wjnjll7","many_one","0","direct_first","1","er08er18","0","34","2","1","3","1","","0","1","0","null","","","<img src = 'targets/22.png' width = '100%;'>","null","","","","","","","","","",""
"","html-keyboard-response","259","578824","0.0-12.0-3.5","r88wjnjll7","many_one","0","direct_first","1","er08er18","0","34","2","1","3","1","","0","1","0","596","","","<img src = 'targets/mask.png' width = '100%;'>","75","neg","GS","GSold","1","category1/CS8.png","","targets/22.png","indirect","1","29"
"","html-keyboard-response","260","580330","0.0-12.0-0.6","r88wjnjll7","many_one","0","direct_first","1","er08er18","0","34","2","1","3","1","","0","1","0","null","","","<div style=""font-size:60px;"">+</div>","null","","","","","","","","","",""
"","html-keyboard-response","261","580422","0.0-12.0-1.6","r88wjnjll7","many_one","0","direct_first","1","er08er18","0","34","2","1","3","1","","0","1","0","null","","","<img src = 'category2/GS3.png' width = '100%;'>","null","","","","","","","","","",""
"","html-keyboard-response","262","580675","0.0-12.0-2.6","r88wjnjll7","many_one","0","direct_first","1","er08er18","0","34","2","1","3","1","","0","1","0","null","","","<img src = 'targets/4.png' width = '100%;'>","null","","","","","","","","","",""
"","html-keyboard-response","263","581292","0.0-12.0-3.6","r88wjnjll7","many_one","0","direct_first","1","er08er18","0","34","2","1","3","1","","0","1","0","616","","","<img src = 'targets/mask.png' width = '100%;'>","68","pos","GS","GSnew","2","category2/GS3.png","","targets/4.png","indirect","0","30"
"","html-keyboard-response","264","582797","0.0-12.0-0.7","r88wjnjll7","many_one","0","direct_first","1","er08er18","0","34","2","1","3","1","","0","1","0","null","","","<div style=""font-size:60px;"">+</div>","null","","","","","","","","","",""
"","html-keyboard-response","265","582889","0.0-12.0-1.7","r88wjnjll7","many_one","0","direct_first","1","er08er18","0","34","2","1","3","1","","0","1","0","null","","","<img src = 'category4/lin.png' width = '100%;'>","null","","","","","","","","","",""
"","html-keyboard-response","266","583144","0.0-12.0-2.7","r88wjnjll7","many_one","0","direct_first","1","er08er18","0","34","2","1","3","1","","0","1","0","null","","","<img src = 'targets/6.png' width = '100%;'>","null","","","","","","","","","",""
"","html-keyboard-response","267","584390","0.0-12.0-3.7","r88wjnjll7","many_one","0","direct_first","1","er08er18","0","34","2","1","3","1","","0","1","0","1245","","","<img src = 'targets/mask.png' width = '100%;'>","68","neg","GS","abstract","4","category4/lin.png","","targets/6.png","indirect","0","31"
"","html-keyboard-response","268","585896","0.0-12.0-0.8","r88wjnjll7","many_one","0","direct_first","1","er08er18","0","34","2","1","3","1","","0","1","0","null","","","<div style=""font-size:60px;"">+</div>","null","","","","","","","","","",""
"","html-keyboard-response","269","585987","0.0-12.0-1.8","r88wjnjll7","many_one","0","direct_first","1","er08er18","0","34","2","1","3","1","","0","1","0","null","","","<img src = 'category2/GS1.png' width = '100%;'>","null","","","","","","","","","",""
"","html-keyboard-response","270","586241","0.0-12.0-2.8","r88wjnjll7","many_one","0","direct_first","1","er08er18","0","34","2","1","3","1","","0","1","0","null","","","<img src = 'targets/40.png' width = '100%;'>","null","","","","","","","","","",""
"","html-keyboard-response","271","587005","0.0-12.0-3.8","r88wjnjll7","many_one","0","direct_first","1","er08er18","0","34","2","1","3","1","","0","1","0","763","","","<img src = 'targets/mask.png' width = '100%;'>","68","pos","GS","GSnew","2","category2/GS1.png","","targets/40.png","indirect","0","32"
"","html-keyboard-response","272","588510","0.0-12.0-0.9","r88wjnjll7","many_one","0","direct_first","1","er08er18","0","34","2","1","3","1","","0","1","0","null","","","<div style=""font-size:60px;"">+</div>","null","","","","","","","","","",""
"","html-keyboard-response","273","588602","0.0-12.0-1.9","r88wjnjll7","many_one","0","direct_first","1","er08er18","0","34","2","1","3","1","","0","1","0","null","","","<img src = 'category1/GS1.png' width = '100%;'>","null","","","","","","","","","",""
"","html-keyboard-response","274","588854","0.0-12.0-2.9","r88wjnjll7","many_one","0","direct_first","1","er08er18","0","34","2","1","3","1","","0","1","0","null","","","<img src = 'targets/16.png' width = '100%;'>","null","","","","","","","","","",""
"","html-keyboard-response","275","589183","0.0-12.0-3.9","r88wjnjll7","many_one","0","direct_first","1","er08er18","0","34","2","1","3","1","","0","1","0","327","","","<img src = 'targets/mask.png' width = '100%;'>","75","neg","GS","GSnew","1","category1/GS1.png","","targets/16.png","indirect","1","33"
"","html-keyboard-response","276","590684","0.0-12.0-0.10","r88wjnjll7","many_one","0","direct_first","1","er08er18","0","34","2","1","3","1","","0","1","0","null","","","<div style=""font-size:60px;"">+</div>","null","","","","","","","","","",""
"","html-keyboard-response","277","590780","0.0-12.0-1.10","r88wjnjll7","many_one","0","direct_first","1","er08er18","0","34","2","1","3","1","","0","1","0","null","","","<img src = 'category1/ma.png' width = '100%;'>","null","","","","","","","","","",""
"","html-keyboard-response","278","591031","0.0-12.0-2.10","r88wjnjll7","many_one","0","direct_first","1","er08er18","0","34","2","1","3","1","","0","1","0","null","","","<img src = 'targets/37.png' width = '100%;'>","null","","","","","","","","","",""
"","html-keyboard-response","279","592120","0.0-12.0-3.10","r88wjnjll7","many_one","0","direct_first","1","er08er18","0","34","2","1","3","1","","0","1","0","1087","","","<img src = 'targets/mask.png' width = '100%;'>","68","neg","GS","abstract","1","category1/ma.png","","targets/37.png","indirect","0","34"
"","html-keyboard-response","280","593621","0.0-12.0-0.11","r88wjnjll7","many_one","0","direct_first","1","er08er18","0","34","2","1","3","1","","0","1","0","null","","","<div style=""font-size:60px;"">+</div>","null","","","","","","","","","",""
"","html-keyboard-response","281","593712","0.0-12.0-1.11","r88wjnjll7","many_one","0","direct_first","1","er08er18","0","34","2","1","3","1","","0","1","0","null","","","<img src = 'category1/GS2.png' width = '100%;'>","null","","","","","","","","","",""
"","html-keyboard-response","282","593965","0.0-12.0-2.11","r88wjnjll7","many_one","0","direct_first","1","er08er18","0","34","2","1","3","1","","0","1","0","null","","","<img src = 'targets/47.png' width = '100%;'>","null","","","","","","","","","",""
"","html-keyboard-response","283","594357","0.0-12.0-3.11","r88wjnjll7","many_one","0","direct_first","1","er08er18","0","34","2","1","3","1","","0","1","0","390","","","<img src = 'targets/mask.png' width = '100%;'>","68","neg","GS","GSnew","1","category1/GS2.png","","targets/47.png","indirect","0","35"
"","html-keyboard-response","284","595861","0.0-12.0-0.12","r88wjnjll7","many_one","0","direct_first","1","er08er18","0","34","2","1","3","1","","0","1","0","null","","","<div style=""font-size:60px;"">+</div>","null","","","","","","","","","",""
"","html-keyboard-response","285","595952","0.0-12.0-1.12","r88wjnjll7","many_one","0","direct_first","1","er08er18","0","34","2","1","3","1","","0","1","0","null","","","<img src = 'category3/CS2.png' width = '100%;'>","null","","","","","","","","","",""
"","html-keyboard-response","286","596204","0.0-12.0-2.12","r88wjnjll7","many_one","0","direct_first","1","er08er18","0","34","2","1","3","1","","0","1","0","null","","","<img src = 'targets/10.png' width = '100%;'>","null","","","","","","","","","",""
"","html-keyboard-response","287","596479","0.0-12.0-3.12","r88wjnjll7","many_one","0","direct_first","1","er08er18","0","34","2","1","3","1","","0","1","0","272","","","<img src = 'targets/mask.png' width = '100%;'>","75","pos","GS","GSold","3","category3/CS2.png","","targets/10.png","indirect","1","36"
"","html-keyboard-response","288","597981","0.0-12.0-0.13","r88wjnjll7","many_one","0","direct_first","1","er08er18","0","34","2","1","3","1","","0","1","0","null","","","<div style=""font-size:60px;"">+</div>","null","","","","","","","","","",""
"","html-keyboard-response","289","598076","0.0-12.0-1.13","r88wjnjll7","many_one","0","direct_first","1","er08er18","0","34","2","1","3","1","","0","1","0","null","","","<img src = 'category4/GS1.png' width = '100%;'>","null","","","","","","","","","",""
"","html-keyboard-response","290","598329","0.0-12.0-2.13","r88wjnjll7","many_one","0","direct_first","1","er08er18","0","34","2","1","3","1","","0","1","0","null","","","<img src = 'targets/44.png' width = '100%;'>","null","","","","","","","","","",""
"","html-keyboard-response","291","598780","0.0-12.0-3.13","r88wjnjll7","many_one","0","direct_first","1","er08er18","0","34","2","1","3","1","","0","1","0","450","","","<img src = 'targets/mask.png' width = '100%;'>","68","neg","GS","GSnew","4","category4/GS1.png","","targets/44.png","indirect","0","37"
"","html-keyboard-response","292","600287","0.0-12.0-0.14","r88wjnjll7","many_one","0","direct_first","1","er08er18","0","34","2","1","3","1","","0","1","0","null","","","<div style=""font-size:60px;"">+</div>","null","","","","","","","","","",""
"","html-keyboard-response","293","600379","0.0-12.0-1.14","r88wjnjll7","many_one","0","direct_first","1","er08er18","0","34","2","1","3","1","","0","1","0","null","","","<img src = 'category4/GS2.png' width = '100%;'>","null","","","","","","","","","",""
"","html-keyboard-response","294","600631","0.0-12.0-2.14","r88wjnjll7","many_one","0","direct_first","1","er08er18","0","34","2","1","3","1","","0","1","0","null","","","<img src = 'targets/26.png' width = '100%;'>","null","","","","","","","","","",""
"","html-keyboard-response","295","601060","0.0-12.0-3.14","r88wjnjll7","many_one","0","direct_first","1","er08er18","0","34","2","1","3","1","","0","1","0","427","","","<img src = 'targets/mask.png' width = '100%;'>","75","neg","GS","GSnew","4","category4/GS2.png","","targets/26.png","indirect","1","38"
"","html-keyboard-response","296","602572","0.0-12.0-0.15","r88wjnjll7","many_one","0","direct_first","1","er08er18","0","34","2","1","3","1","","0","1","0","null","","","<div style=""font-size:60px;"">+</div>","null","","","","","","","","","",""
"","html-keyboard-response","297","602662","0.0-12.0-1.15","r88wjnjll7","many_one","0","direct_first","1","er08er18","0","34","2","1","3","1","","0","1","0","null","","","<img src = 'category3/CS7.png' width = '100%;'>","null","","","","","","","","","",""
"","html-keyboard-response","298","602918","0.0-12.0-2.15","r88wjnjll7","many_one","0","direct_first","1","er08er18","0","34","2","1","3","1","","0","1","0","null","","","<img src = 'targets/29.png' width = '100%;'>","null","","","","","","","","","",""
"","html-keyboard-response","299","603118","0.0-12.0-3.15","r88wjnjll7","many_one","0","direct_first","1","er08er18","0","34","2","1","3","1","","0","1","0","199","","","<img src = 'targets/mask.png' width = '100%;'>","75","pos","GS","GSold","3","category3/CS7.png","","targets/29.png","indirect","1","39"
"","html-keyboard-response","300","604622","0.0-12.0-0.16","r88wjnjll7","many_one","0","direct_first","1","er08er18","0","34","2","1","3","1","","0","1","0","null","","","<div style=""font-size:60px;"">+</div>","null","","","","","","","","","",""
"","html-keyboard-response","301","604714","0.0-12.0-1.16","r88wjnjll7","many_one","0","direct_first","1","er08er18","0","34","2","1","3","1","","0","1","0","null","","","<img src = 'category1/GS3.png' width = '100%;'>","null","","","","","","","","","",""
"","html-keyboard-response","302","604971","0.0-12.0-2.16","r88wjnjll7","many_one","0","direct_first","1","er08er18","0","34","2","1","3","1","","0","1","0","null","","","<img src = 'targets/12.png' width = '100%;'>","null","","","","","","","","","",""
"","html-keyboard-response","303","605101","0.0-12.0-3.16","r88wjnjll7","many_one","0","direct_first","1","er08er18","0","34","2","1","3","1","","0","1","0","130","","","<img src = 'targets/mask.png' width = '100%;'>","75","neg","GS","GSnew","1","category1/GS3.png","","targets/12.png","indirect","1","40"
"","html-keyboard-response","304","606603","0.0-12.0-0.17","r88wjnjll7","many_one","0","direct_first","1","er08er18","0","34","2","1","3","1","","0","1","0","null","","","<div style=""font-size:60px;"">+</div>","null","","","","","","","","","",""
"","html-keyboard-response","305","606694","0.0-12.0-1.17","r88wjnjll7","many_one","0","direct_first","1","er08er18","0","34","2","1","3","1","","0","1","0","null","","","<img src = 'category2/CS9.png' width = '100%;'>","null","","","","","","","","","",""
"","html-keyboard-response","306","606948","0.0-12.0-2.17","r88wjnjll7","many_one","0","direct_first","1","er08er18","0","34","2","1","3","1","","0","1","0","null","","","<img src = 'targets/7.png' width = '100%;'>","null","","","","","","","","","",""
"","html-keyboard-response","307","607031","0.0-12.0-3.17","r88wjnjll7","many_one","0","direct_first","1","er08er18","0","34","2","1","3","1","","0","1","0","82","","","<img src = 'targets/mask.png' width = '100%;'>","68","pos","GS","GSold","2","category2/CS9.png","","targets/7.png","indirect","0","41"
"","html-keyboard-response","308","608534","0.0-12.0-0.18","r88wjnjll7","many_one","0","direct_first","1","er08er18","0","34","2","1","3","1","","0","1","0","null","","","<div style=""font-size:60px;"">+</div>","null","","","","","","","","","",""
"","html-keyboard-response","309","608625","0.0-12.0-1.18","r88wjnjll7","many_one","0","direct_first","1","er08er18","0","34","2","1","3","1","","0","1","0","null","","","<img src = 'category3/wang.png' width = '100%;'>","null","","","","","","","","","",""
"","html-keyboard-response","310","608878","0.0-12.0-2.18","r88wjnjll7","many_one","0","direct_first","1","er08er18","0","34","2","1","3","1","","0","1","0","null","","","<img src = 'targets/33.png' width = '100%;'>","null","","","","","","","","","",""
"","html-keyboard-response","311","608963","0.0-12.0-3.18","r88wjnjll7","many_one","0","direct_first","1","er08er18","0","34","2","1","3","1","","0","1","0","85","","","<img src = 'targets/mask.png' width = '100%;'>","75","pos","GS","abstract","3","category3/wang.png","","targets/33.png","indirect","1","42"
"","html-keyboard-response","312","610471","0.0-12.0-0.19","r88wjnjll7","many_one","0","direct_first","1","er08er18","0","34","2","1","3","1","","0","1","0","null","","","<div style=""font-size:60px;"">+</div>","null","","","","","","","","","",""
"","html-keyboard-response","313","610566","0.0-12.0-1.19","r88wjnjll7","many_one","0","direct_first","1","er08er18","0","34","2","1","3","1","","0","1","0","null","","","<img src = 'category3/GS3.png' width = '100%;'>","null","","","","","","","","","",""
"","html-keyboard-response","314","610823","0.0-12.0-2.19","r88wjnjll7","many_one","0","direct_first","1","er08er18","0","34","2","1","3","1","","0","1","0","null","","","<img src = 'targets/31.png' width = '100%;'>","null","","","","","","","","","",""
"","html-keyboard-response","315","611007","0.0-12.0-3.19","r88wjnjll7","many_one","0","direct_first","1","er08er18","0","34","2","1","3","1","","0","1","0","183","","","<img src = 'targets/mask.png' width = '100%;'>","75","pos","GS","GSnew","3","category3/GS3.png","","targets/31.png","indirect","1","43"
"","html-keyboard-response","316","612511","0.0-12.0-0.20","r88wjnjll7","many_one","0","direct_first","1","er08er18","0","34","2","1","3","1","","0","1","0","null","","","<div style=""font-size:60px;"">+</div>","null","","","","","","","","","",""
"","html-keyboard-response","317","612607","0.0-12.0-1.20","r88wjnjll7","many_one","0","direct_first","1","er08er18","0","34","2","1","3","1","","0","1","0","null","","","<img src = 'category2/CS1.png' width = '100%;'>","null","","","","","","","","","",""
"","html-keyboard-response","318","612860","0.0-12.0-2.20","r88wjnjll7","many_one","0","direct_first","1","er08er18","0","34","2","1","3","1","","0","1","0","null","","","<img src = 'targets/3.png' width = '100%;'>","null","","","","","","","","","",""
"","html-keyboard-response","319","613312","0.0-12.0-3.20","r88wjnjll7","many_one","0","direct_first","1","er08er18","0","34","2","1","3","1","","0","1","0","451","","","<img src = 'targets/mask.png' width = '100%;'>","68","pos","GS","GSold","2","category2/CS1.png","","targets/3.png","indirect","0","44"
"","html-keyboard-response","320","614816","0.0-12.0-0.21","r88wjnjll7","many_one","0","direct_first","1","er08er18","0","34","2","1","3","1","","0","1","0","null","","","<div style=""font-size:60px;"">+</div>","null","","","","","","","","","",""
"","html-keyboard-response","321","614907","0.0-12.0-1.21","r88wjnjll7","many_one","0","direct_first","1","er08er18","0","34","2","1","3","1","","0","1","0","null","","","<img src = 'category2/CS6.png' width = '100%;'>","null","","","","","","","","","",""
"","html-keyboard-response","322","615162","0.0-12.0-2.21","r88wjnjll7","many_one","0","direct_first","1","er08er18","0","34","2","1","3","1","","0","1","0","null","","","<img src = 'targets/18.png' width = '100%;'>","null","","","","","","","","","",""
"","html-keyboard-response","323","615727","0.0-12.0-3.21","r88wjnjll7","many_one","0","direct_first","1","er08er18","0","34","2","1","3","1","","0","1","0","564","","","<img src = 'targets/mask.png' width = '100%;'>","68","pos","GS","GSold","2","category2/CS6.png","","targets/18.png","indirect","0","45"
"","html-keyboard-response","324","617232","0.0-12.0-0.22","r88wjnjll7","many_one","0","direct_first","1","er08er18","0","34","2","1","3","1","","0","1","0","null","","","<div style=""font-size:60px;"">+</div>","null","","","","","","","","","",""
"","html-keyboard-response","325","617325","0.0-12.0-1.22","r88wjnjll7","many_one","0","direct_first","1","er08er18","0","34","2","1","3","1","","0","1","0","null","","","<img src = 'category2/men.png' width = '100%;'>","null","","","","","","","","","",""
"","html-keyboard-response","326","617577","0.0-12.0-2.22","r88wjnjll7","many_one","0","direct_first","1","er08er18","0","34","2","1","3","1","","0","1","0","null","","","<img src = 'targets/30.png' width = '100%;'>","null","","","","","","","","","",""
"","html-keyboard-response","327","618152","0.0-12.0-3.22","r88wjnjll7","many_one","0","direct_first","1","er08er18","0","34","2","1","3","1","","0","1","0","574","","","<img src = 'targets/mask.png' width = '100%;'>","68","pos","GS","abstract","2","category2/men.png","","targets/30.png","indirect","0","46"
"","html-keyboard-response","328","619655","0.0-12.0-0.23","r88wjnjll7","many_one","0","direct_first","1","er08er18","0","34","2","1","3","1","","0","1","0","null","","","<div style=""font-size:60px;"">+</div>","null","","","","","","","","","",""
"","html-keyboard-response","329","619746","0.0-12.0-1.23","r88wjnjll7","many_one","0","direct_first","1","er08er18","0","34","2","1","3","1","","0","1","0","null","","","<img src = 'category3/GS2.png' width = '100%;'>","null","","","","","","","","","",""
"","html-keyboard-response","330","620000","0.0-12.0-2.23","r88wjnjll7","many_one","0","direct_first","1","er08er18","0","34","2","1","3","1","","0","1","0","null","","","<img src = 'targets/19.png' width = '100%;'>","null","","","","","","","","","",""
"","html-keyboard-response","331","620334","0.0-12.0-3.23","r88wjnjll7","many_one","0","direct_first","1","er08er18","0","34","2","1","3","1","","0","1","0","332","","","<img src = 'targets/mask.png' width = '100%;'>","75","pos","GS","GSnew","3","category3/GS2.png","","targets/19.png","indirect","1","47"
"","survey-html-form","332","624991","0.0-13.0","r88wjnjll7","many_one","0","direct_first","1","er08er18","0","34","2","1","3","1","","0","1","0","4155","","{}","","","","","","","","","","","",""
