"success","trial_type","trial_index","time_elapsed","internal_node_id","subject","condition","condition_code","measure","measure_code","codeword","gender","age","education","chinese","fach","handedness","rt","url","responses","stimulus","key_press","val","type","type_specific","category","cs_selected","target","indirect","task","nr_pres","response"
"true","fullscreen","0","2104","0.0-0.0","hem66jjbdg","one_one","1","indirect_first","0","er03tz18","0","24","1","1","1","1","","","","","","","","","","","","","","",""
"","external-html","1","33162","0.0-1.0","hem66jjbdg","one_one","1","indirect_first","0","er03tz18","0","24","1","1","1","1","31042","text/information.html","","","","","","","","","","","","",""
"","external-html","2","40594","0.0-2.0","hem66jjbdg","one_one","1","indirect_first","0","er03tz18","0","24","1","1","1","1","7425","text/consent.html","","","","","","","","","","","","",""
"","survey-html-form","3","58105","0.0-3.0","hem66jjbdg","one_one","1","indirect_first","0","er03tz18","0","24","1","1","1","1","17510","","{""codeword_enter"":""er03tz18""}","","","","","","","","","","","",""
"","survey-html-form","4","71595","0.0-4.0","hem66jjbdg","one_one","1","indirect_first","0","er03tz18","0","24","1","1","1","1","13489","","{""age"":""24"",""education"":""1"",""subject"":""1"",""gender"":""0"",""handedness"":""1"",""chinese"":""1""}","","","","","","","","","","","",""
"","survey-html-form","5","83523","0.0-5.0","hem66jjbdg","one_one","1","indirect_first","0","er03tz18","0","24","1","1","1","1","11926","","{}","","","","","","","","","","","",""
"","html-keyboard-response","6","87540","0.0-6.0-0.0-0.0","hem66jjbdg","one_one","1","indirect_first","0","er03tz18","0","24","1","1","1","1","null","","","<div class = 'row'><div class = 'column'><img src = 'category1/CS3.png' width = '70%;'></div><div class = 'column'><img src = 'uspos/5700.bmp' width = '100%;'></div></div>","null","pos","CS","CS","1","category1/CS3.png","","","","",""
"","html-keyboard-response","7","90055","0.0-6.0-0.0-0.1","hem66jjbdg","one_one","1","indirect_first","0","er03tz18","0","24","1","1","1","1","null","","","<div class = 'row'><div class = 'column'><img src = 'category2/CS7.png' width = '70%;'></div><div class = 'column'><img src = 'uspos/5470.bmp' width = '100%;'></div></div>","null","pos","CS","CS","2","category2/CS7.png","","","","",""
"","html-keyboard-response","8","92594","0.0-6.0-0.0-0.2","hem66jjbdg","one_one","1","indirect_first","0","er03tz18","0","24","1","1","1","1","null","","","<div class = 'row'><div class = 'column'><img src = 'category4/CS10.png' width = '70%;'></div><div class = 'column'><img src = 'usneg/7380.bmp' width = '100%;'></div></div>","null","neg","CS","CS","4","category4/CS10.png","","","","",""
"","html-keyboard-response","9","95134","0.0-6.0-0.0-0.3","hem66jjbdg","one_one","1","indirect_first","0","er03tz18","0","24","1","1","1","1","null","","","<div class = 'row'><div class = 'column'><img src = 'category3/CS3.png' width = '70%;'></div><div class = 'column'><img src = 'usneg/2750.bmp' width = '100%;'></div></div>","null","neg","CS","CS","3","category3/CS3.png","","","","",""
"","html-keyboard-response","10","97674","0.0-6.0-0.0-0.4","hem66jjbdg","one_one","1","indirect_first","0","er03tz18","0","24","1","1","1","1","null","","","<div class = 'row'><div class = 'column'><img src = 'category1/CS3.png' width = '70%;'></div><div class = 'column'><img src = 'uspos/5700.bmp' width = '100%;'></div></div>","null","pos","CS","CS","1","category1/CS3.png","","","","",""
"","html-keyboard-response","11","100214","0.0-6.0-0.0-0.5","hem66jjbdg","one_one","1","indirect_first","0","er03tz18","0","24","1","1","1","1","null","","","<div class = 'row'><div class = 'column'><img src = 'usneg/2750.bmp' width = '100%;'></div><div class = 'column'><img src = 'category3/CS3.png' width = '70%;'></div></div>","null","neg","CS","CS","3","category3/CS3.png","","","","",""
"","html-keyboard-response","12","102754","0.0-6.0-0.0-0.6","hem66jjbdg","one_one","1","indirect_first","0","er03tz18","0","24","1","1","1","1","null","","","<div class = 'row'><div class = 'column'><img src = 'category2/CS7.png' width = '70%;'></div><div class = 'column'><img src = 'uspos/5470.bmp' width = '100%;'></div></div>","null","pos","CS","CS","2","category2/CS7.png","","","","",""
"","html-keyboard-response","13","105274","0.0-6.0-0.0-0.7","hem66jjbdg","one_one","1","indirect_first","0","er03tz18","0","24","1","1","1","1","null","","","<div class = 'row'><div class = 'column'><img src = 'category1/CS3.png' width = '70%;'></div><div class = 'column'><img src = 'uspos/5700.bmp' width = '100%;'></div></div>","null","pos","CS","CS","1","category1/CS3.png","","","","",""
"","html-keyboard-response","14","107814","0.0-6.0-0.0-0.8","hem66jjbdg","one_one","1","indirect_first","0","er03tz18","0","24","1","1","1","1","null","","","<div class = 'row'><div class = 'column'><img src = 'usneg/7380.bmp' width = '100%;'></div><div class = 'column'><img src = 'category4/CS10.png' width = '70%;'></div></div>","null","neg","CS","CS","4","category4/CS10.png","","","","",""
"","html-keyboard-response","15","110354","0.0-6.0-0.0-0.9","hem66jjbdg","one_one","1","indirect_first","0","er03tz18","0","24","1","1","1","1","null","","","<div class = 'row'><div class = 'column'><img src = 'usneg/2750.bmp' width = '100%;'></div><div class = 'column'><img src = 'category3/CS3.png' width = '70%;'></div></div>","null","neg","CS","CS","3","category3/CS3.png","","","","",""
"","html-keyboard-response","16","112894","0.0-6.0-0.0-0.10","hem66jjbdg","one_one","1","indirect_first","0","er03tz18","0","24","1","1","1","1","null","","","<div class = 'row'><div class = 'column'><img src = 'category1/CS3.png' width = '70%;'></div><div class = 'column'><img src = 'uspos/5700.bmp' width = '100%;'></div></div>","null","pos","CS","CS","1","category1/CS3.png","","","","",""
"","html-keyboard-response","17","115429","0.0-6.0-0.0-0.11","hem66jjbdg","one_one","1","indirect_first","0","er03tz18","0","24","1","1","1","1","null","","","<div class = 'row'><div class = 'column'><img src = 'usneg/7380.bmp' width = '100%;'></div><div class = 'column'><img src = 'category4/CS10.png' width = '70%;'></div></div>","null","neg","CS","CS","4","category4/CS10.png","","","","",""
"","html-keyboard-response","18","117964","0.0-6.0-0.0-0.12","hem66jjbdg","one_one","1","indirect_first","0","er03tz18","0","24","1","1","1","1","null","","","<div class = 'row'><div class = 'column'><img src = 'usneg/2750.bmp' width = '100%;'></div><div class = 'column'><img src = 'category3/CS3.png' width = '70%;'></div></div>","null","neg","CS","CS","3","category3/CS3.png","","","","",""
"","html-keyboard-response","19","120493","0.0-6.0-0.0-0.13","hem66jjbdg","one_one","1","indirect_first","0","er03tz18","0","24","1","1","1","1","null","","","<div class = 'row'><div class = 'column'><img src = 'uspos/5470.bmp' width = '100%;'></div><div class = 'column'><img src = 'category2/CS7.png' width = '70%;'></div></div>","null","pos","CS","CS","2","category2/CS7.png","","","","",""
"","html-keyboard-response","20","123004","0.0-6.0-0.0-0.14","hem66jjbdg","one_one","1","indirect_first","0","er03tz18","0","24","1","1","1","1","null","","","<div class = 'row'><div class = 'column'><img src = 'category4/CS10.png' width = '70%;'></div><div class = 'column'><img src = 'usneg/7380.bmp' width = '100%;'></div></div>","null","neg","CS","CS","4","category4/CS10.png","","","","",""
"","html-keyboard-response","21","125523","0.0-6.0-0.0-0.15","hem66jjbdg","one_one","1","indirect_first","0","er03tz18","0","24","1","1","1","1","null","","","<div class = 'row'><div class = 'column'><img src = 'uspos/5700.bmp' width = '100%;'></div><div class = 'column'><img src = 'category1/CS3.png' width = '70%;'></div></div>","null","pos","CS","CS","1","category1/CS3.png","","","","",""
"","html-keyboard-response","22","128063","0.0-6.0-0.0-0.16","hem66jjbdg","one_one","1","indirect_first","0","er03tz18","0","24","1","1","1","1","null","","","<div class = 'row'><div class = 'column'><img src = 'category4/CS10.png' width = '70%;'></div><div class = 'column'><img src = 'usneg/7380.bmp' width = '100%;'></div></div>","null","neg","CS","CS","4","category4/CS10.png","","","","",""
"","html-keyboard-response","23","130603","0.0-6.0-0.0-0.17","hem66jjbdg","one_one","1","indirect_first","0","er03tz18","0","24","1","1","1","1","null","","","<div class = 'row'><div class = 'column'><img src = 'uspos/5470.bmp' width = '100%;'></div><div class = 'column'><img src = 'category2/CS7.png' width = '70%;'></div></div>","null","pos","CS","CS","2","category2/CS7.png","","","","",""
"","html-keyboard-response","24","133144","0.0-6.0-0.0-0.18","hem66jjbdg","one_one","1","indirect_first","0","er03tz18","0","24","1","1","1","1","null","","","<div class = 'row'><div class = 'column'><img src = 'usneg/2750.bmp' width = '100%;'></div><div class = 'column'><img src = 'category3/CS3.png' width = '70%;'></div></div>","null","neg","CS","CS","3","category3/CS3.png","","","","",""
"","html-keyboard-response","25","135673","0.0-6.0-0.0-0.19","hem66jjbdg","one_one","1","indirect_first","0","er03tz18","0","24","1","1","1","1","null","","","<div class = 'row'><div class = 'column'><img src = 'category2/CS7.png' width = '70%;'></div><div class = 'column'><img src = 'uspos/5470.bmp' width = '100%;'></div></div>","null","pos","CS","CS","2","category2/CS7.png","","","","",""
"","survey-html-form","26","138530","0.0-6.0-1.0","hem66jjbdg","one_one","1","indirect_first","0","er03tz18","0","24","1","1","1","1","2355","","{}","","","","","","","","","","","",""
"","html-keyboard-response","27","142533","0.0-6.0-2.0-0.0","hem66jjbdg","one_one","1","indirect_first","0","er03tz18","0","24","1","1","1","1","null","","","<div class = 'row'><div class = 'column'><img src = 'uspos/5700.bmp' width = '100%;'></div><div class = 'column'><img src = 'category1/CS3.png' width = '70%;'></div></div>","null","pos","CS","CS","1","category1/CS3.png","","","","",""
"","html-keyboard-response","28","145073","0.0-6.0-2.0-0.1","hem66jjbdg","one_one","1","indirect_first","0","er03tz18","0","24","1","1","1","1","null","","","<div class = 'row'><div class = 'column'><img src = 'uspos/5470.bmp' width = '100%;'></div><div class = 'column'><img src = 'category2/CS7.png' width = '70%;'></div></div>","null","pos","CS","CS","2","category2/CS7.png","","","","",""
"","html-keyboard-response","29","147614","0.0-6.0-2.0-0.2","hem66jjbdg","one_one","1","indirect_first","0","er03tz18","0","24","1","1","1","1","null","","","<div class = 'row'><div class = 'column'><img src = 'category1/CS3.png' width = '70%;'></div><div class = 'column'><img src = 'uspos/5700.bmp' width = '100%;'></div></div>","null","pos","CS","CS","1","category1/CS3.png","","","","",""
"","html-keyboard-response","30","150133","0.0-6.0-2.0-0.3","hem66jjbdg","one_one","1","indirect_first","0","er03tz18","0","24","1","1","1","1","null","","","<div class = 'row'><div class = 'column'><img src = 'category2/CS7.png' width = '70%;'></div><div class = 'column'><img src = 'uspos/5470.bmp' width = '100%;'></div></div>","null","pos","CS","CS","2","category2/CS7.png","","","","",""
"","html-keyboard-response","31","152674","0.0-6.0-2.0-0.4","hem66jjbdg","one_one","1","indirect_first","0","er03tz18","0","24","1","1","1","1","null","","","<div class = 'row'><div class = 'column'><img src = 'category4/CS10.png' width = '70%;'></div><div class = 'column'><img src = 'usneg/7380.bmp' width = '100%;'></div></div>","null","neg","CS","CS","4","category4/CS10.png","","","","",""
"","html-keyboard-response","32","155213","0.0-6.0-2.0-0.5","hem66jjbdg","one_one","1","indirect_first","0","er03tz18","0","24","1","1","1","1","null","","","<div class = 'row'><div class = 'column'><img src = 'category3/CS3.png' width = '70%;'></div><div class = 'column'><img src = 'usneg/2750.bmp' width = '100%;'></div></div>","null","neg","CS","CS","3","category3/CS3.png","","","","",""
"","html-keyboard-response","33","157753","0.0-6.0-2.0-0.6","hem66jjbdg","one_one","1","indirect_first","0","er03tz18","0","24","1","1","1","1","null","","","<div class = 'row'><div class = 'column'><img src = 'usneg/7380.bmp' width = '100%;'></div><div class = 'column'><img src = 'category4/CS10.png' width = '70%;'></div></div>","null","neg","CS","CS","4","category4/CS10.png","","","","",""
"","html-keyboard-response","34","160273","0.0-6.0-2.0-0.7","hem66jjbdg","one_one","1","indirect_first","0","er03tz18","0","24","1","1","1","1","null","","","<div class = 'row'><div class = 'column'><img src = 'usneg/2750.bmp' width = '100%;'></div><div class = 'column'><img src = 'category3/CS3.png' width = '70%;'></div></div>","null","neg","CS","CS","3","category3/CS3.png","","","","",""
"","html-keyboard-response","35","162814","0.0-6.0-2.0-0.8","hem66jjbdg","one_one","1","indirect_first","0","er03tz18","0","24","1","1","1","1","null","","","<div class = 'row'><div class = 'column'><img src = 'category1/CS3.png' width = '70%;'></div><div class = 'column'><img src = 'uspos/5700.bmp' width = '100%;'></div></div>","null","pos","CS","CS","1","category1/CS3.png","","","","",""
"","html-keyboard-response","36","165353","0.0-6.0-2.0-0.9","hem66jjbdg","one_one","1","indirect_first","0","er03tz18","0","24","1","1","1","1","null","","","<div class = 'row'><div class = 'column'><img src = 'category4/CS10.png' width = '70%;'></div><div class = 'column'><img src = 'usneg/7380.bmp' width = '100%;'></div></div>","null","neg","CS","CS","4","category4/CS10.png","","","","",""
"","html-keyboard-response","37","167894","0.0-6.0-2.0-0.10","hem66jjbdg","one_one","1","indirect_first","0","er03tz18","0","24","1","1","1","1","null","","","<div class = 'row'><div class = 'column'><img src = 'uspos/5700.bmp' width = '100%;'></div><div class = 'column'><img src = 'category1/CS3.png' width = '70%;'></div></div>","null","pos","CS","CS","1","category1/CS3.png","","","","",""
"","html-keyboard-response","38","170434","0.0-6.0-2.0-0.11","hem66jjbdg","one_one","1","indirect_first","0","er03tz18","0","24","1","1","1","1","null","","","<div class = 'row'><div class = 'column'><img src = 'usneg/2750.bmp' width = '100%;'></div><div class = 'column'><img src = 'category3/CS3.png' width = '70%;'></div></div>","null","neg","CS","CS","3","category3/CS3.png","","","","",""
"","html-keyboard-response","39","172953","0.0-6.0-2.0-0.12","hem66jjbdg","one_one","1","indirect_first","0","er03tz18","0","24","1","1","1","1","null","","","<div class = 'row'><div class = 'column'><img src = 'uspos/5470.bmp' width = '100%;'></div><div class = 'column'><img src = 'category2/CS7.png' width = '70%;'></div></div>","null","pos","CS","CS","2","category2/CS7.png","","","","",""
"","html-keyboard-response","40","175493","0.0-6.0-2.0-0.13","hem66jjbdg","one_one","1","indirect_first","0","er03tz18","0","24","1","1","1","1","null","","","<div class = 'row'><div class = 'column'><img src = 'category4/CS10.png' width = '70%;'></div><div class = 'column'><img src = 'usneg/7380.bmp' width = '100%;'></div></div>","null","neg","CS","CS","4","category4/CS10.png","","","","",""
"","html-keyboard-response","41","178033","0.0-6.0-2.0-0.14","hem66jjbdg","one_one","1","indirect_first","0","er03tz18","0","24","1","1","1","1","null","","","<div class = 'row'><div class = 'column'><img src = 'usneg/2750.bmp' width = '100%;'></div><div class = 'column'><img src = 'category3/CS3.png' width = '70%;'></div></div>","null","neg","CS","CS","3","category3/CS3.png","","","","",""
"","html-keyboard-response","42","180554","0.0-6.0-2.0-0.15","hem66jjbdg","one_one","1","indirect_first","0","er03tz18","0","24","1","1","1","1","null","","","<div class = 'row'><div class = 'column'><img src = 'uspos/5700.bmp' width = '100%;'></div><div class = 'column'><img src = 'category1/CS3.png' width = '70%;'></div></div>","null","pos","CS","CS","1","category1/CS3.png","","","","",""
"","html-keyboard-response","43","183093","0.0-6.0-2.0-0.16","hem66jjbdg","one_one","1","indirect_first","0","er03tz18","0","24","1","1","1","1","null","","","<div class = 'row'><div class = 'column'><img src = 'uspos/5470.bmp' width = '100%;'></div><div class = 'column'><img src = 'category2/CS7.png' width = '70%;'></div></div>","null","pos","CS","CS","2","category2/CS7.png","","","","",""
"","html-keyboard-response","44","185633","0.0-6.0-2.0-0.17","hem66jjbdg","one_one","1","indirect_first","0","er03tz18","0","24","1","1","1","1","null","","","<div class = 'row'><div class = 'column'><img src = 'category3/CS3.png' width = '70%;'></div><div class = 'column'><img src = 'usneg/2750.bmp' width = '100%;'></div></div>","null","neg","CS","CS","3","category3/CS3.png","","","","",""
"","html-keyboard-response","45","188154","0.0-6.0-2.0-0.18","hem66jjbdg","one_one","1","indirect_first","0","er03tz18","0","24","1","1","1","1","null","","","<div class = 'row'><div class = 'column'><img src = 'uspos/5470.bmp' width = '100%;'></div><div class = 'column'><img src = 'category2/CS7.png' width = '70%;'></div></div>","null","pos","CS","CS","2","category2/CS7.png","","","","",""
"","html-keyboard-response","46","190693","0.0-6.0-2.0-0.19","hem66jjbdg","one_one","1","indirect_first","0","er03tz18","0","24","1","1","1","1","null","","","<div class = 'row'><div class = 'column'><img src = 'usneg/7380.bmp' width = '100%;'></div><div class = 'column'><img src = 'category4/CS10.png' width = '70%;'></div></div>","null","neg","CS","CS","4","category4/CS10.png","","","","",""
"","survey-html-form","47","195145","0.0-6.0-3.0","hem66jjbdg","one_one","1","indirect_first","0","er03tz18","0","24","1","1","1","1","3932","","{}","","","","","","","","","","","",""
"","html-keyboard-response","48","199178","0.0-6.0-4.0-0.0","hem66jjbdg","one_one","1","indirect_first","0","er03tz18","0","24","1","1","1","1","null","","","<div class = 'row'><div class = 'column'><img src = 'uspos/5700.bmp' width = '100%;'></div><div class = 'column'><img src = 'category1/CS3.png' width = '70%;'></div></div>","null","pos","CS","CS","1","category1/CS3.png","","","","",""
"","html-keyboard-response","49","201683","0.0-6.0-4.0-0.1","hem66jjbdg","one_one","1","indirect_first","0","er03tz18","0","24","1","1","1","1","null","","","<div class = 'row'><div class = 'column'><img src = 'category2/CS7.png' width = '70%;'></div><div class = 'column'><img src = 'uspos/5470.bmp' width = '100%;'></div></div>","null","pos","CS","CS","2","category2/CS7.png","","","","",""
"","html-keyboard-response","50","204223","0.0-6.0-4.0-0.2","hem66jjbdg","one_one","1","indirect_first","0","er03tz18","0","24","1","1","1","1","null","","","<div class = 'row'><div class = 'column'><img src = 'usneg/7380.bmp' width = '100%;'></div><div class = 'column'><img src = 'category4/CS10.png' width = '70%;'></div></div>","null","neg","CS","CS","4","category4/CS10.png","","","","",""
"","html-keyboard-response","51","206763","0.0-6.0-4.0-0.3","hem66jjbdg","one_one","1","indirect_first","0","er03tz18","0","24","1","1","1","1","null","","","<div class = 'row'><div class = 'column'><img src = 'category2/CS7.png' width = '70%;'></div><div class = 'column'><img src = 'uspos/5470.bmp' width = '100%;'></div></div>","null","pos","CS","CS","2","category2/CS7.png","","","","",""
"","html-keyboard-response","52","209293","0.0-6.0-4.0-0.4","hem66jjbdg","one_one","1","indirect_first","0","er03tz18","0","24","1","1","1","1","null","","","<div class = 'row'><div class = 'column'><img src = 'category3/CS3.png' width = '70%;'></div><div class = 'column'><img src = 'usneg/2750.bmp' width = '100%;'></div></div>","null","neg","CS","CS","3","category3/CS3.png","","","","",""
"","html-keyboard-response","53","211834","0.0-6.0-4.0-0.5","hem66jjbdg","one_one","1","indirect_first","0","er03tz18","0","24","1","1","1","1","null","","","<div class = 'row'><div class = 'column'><img src = 'category1/CS3.png' width = '70%;'></div><div class = 'column'><img src = 'uspos/5700.bmp' width = '100%;'></div></div>","null","pos","CS","CS","1","category1/CS3.png","","","","",""
"","html-keyboard-response","54","214353","0.0-6.0-4.0-0.6","hem66jjbdg","one_one","1","indirect_first","0","er03tz18","0","24","1","1","1","1","null","","","<div class = 'row'><div class = 'column'><img src = 'usneg/2750.bmp' width = '100%;'></div><div class = 'column'><img src = 'category3/CS3.png' width = '70%;'></div></div>","null","neg","CS","CS","3","category3/CS3.png","","","","",""
"","html-keyboard-response","55","216893","0.0-6.0-4.0-0.7","hem66jjbdg","one_one","1","indirect_first","0","er03tz18","0","24","1","1","1","1","null","","","<div class = 'row'><div class = 'column'><img src = 'uspos/5700.bmp' width = '100%;'></div><div class = 'column'><img src = 'category1/CS3.png' width = '70%;'></div></div>","null","pos","CS","CS","1","category1/CS3.png","","","","",""
"","html-keyboard-response","56","219433","0.0-6.0-4.0-0.8","hem66jjbdg","one_one","1","indirect_first","0","er03tz18","0","24","1","1","1","1","null","","","<div class = 'row'><div class = 'column'><img src = 'usneg/7380.bmp' width = '100%;'></div><div class = 'column'><img src = 'category4/CS10.png' width = '70%;'></div></div>","null","neg","CS","CS","4","category4/CS10.png","","","","",""
"","html-keyboard-response","57","221973","0.0-6.0-4.0-0.9","hem66jjbdg","one_one","1","indirect_first","0","er03tz18","0","24","1","1","1","1","null","","","<div class = 'row'><div class = 'column'><img src = 'uspos/5700.bmp' width = '100%;'></div><div class = 'column'><img src = 'category1/CS3.png' width = '70%;'></div></div>","null","pos","CS","CS","1","category1/CS3.png","","","","",""
"","html-keyboard-response","58","224503","0.0-6.0-4.0-0.10","hem66jjbdg","one_one","1","indirect_first","0","er03tz18","0","24","1","1","1","1","null","","","<div class = 'row'><div class = 'column'><img src = 'category3/CS3.png' width = '70%;'></div><div class = 'column'><img src = 'usneg/2750.bmp' width = '100%;'></div></div>","null","neg","CS","CS","3","category3/CS3.png","","","","",""
"","html-keyboard-response","59","227023","0.0-6.0-4.0-0.11","hem66jjbdg","one_one","1","indirect_first","0","er03tz18","0","24","1","1","1","1","null","","","<div class = 'row'><div class = 'column'><img src = 'usneg/7380.bmp' width = '100%;'></div><div class = 'column'><img src = 'category4/CS10.png' width = '70%;'></div></div>","null","neg","CS","CS","4","category4/CS10.png","","","","",""
"","html-keyboard-response","60","229543","0.0-6.0-4.0-0.12","hem66jjbdg","one_one","1","indirect_first","0","er03tz18","0","24","1","1","1","1","null","","","<div class = 'row'><div class = 'column'><img src = 'uspos/5470.bmp' width = '100%;'></div><div class = 'column'><img src = 'category2/CS7.png' width = '70%;'></div></div>","null","pos","CS","CS","2","category2/CS7.png","","","","",""
"","html-keyboard-response","61","232083","0.0-6.0-4.0-0.13","hem66jjbdg","one_one","1","indirect_first","0","er03tz18","0","24","1","1","1","1","null","","","<div class = 'row'><div class = 'column'><img src = 'category4/CS10.png' width = '70%;'></div><div class = 'column'><img src = 'usneg/7380.bmp' width = '100%;'></div></div>","null","neg","CS","CS","4","category4/CS10.png","","","","",""
"","html-keyboard-response","62","234623","0.0-6.0-4.0-0.14","hem66jjbdg","one_one","1","indirect_first","0","er03tz18","0","24","1","1","1","1","null","","","<div class = 'row'><div class = 'column'><img src = 'usneg/2750.bmp' width = '100%;'></div><div class = 'column'><img src = 'category3/CS3.png' width = '70%;'></div></div>","null","neg","CS","CS","3","category3/CS3.png","","","","",""
"","html-keyboard-response","63","237153","0.0-6.0-4.0-0.15","hem66jjbdg","one_one","1","indirect_first","0","er03tz18","0","24","1","1","1","1","null","","","<div class = 'row'><div class = 'column'><img src = 'usneg/7380.bmp' width = '100%;'></div><div class = 'column'><img src = 'category4/CS10.png' width = '70%;'></div></div>","null","neg","CS","CS","4","category4/CS10.png","","","","",""
"","html-keyboard-response","64","239693","0.0-6.0-4.0-0.16","hem66jjbdg","one_one","1","indirect_first","0","er03tz18","0","24","1","1","1","1","null","","","<div class = 'row'><div class = 'column'><img src = 'uspos/5470.bmp' width = '100%;'></div><div class = 'column'><img src = 'category2/CS7.png' width = '70%;'></div></div>","null","pos","CS","CS","2","category2/CS7.png","","","","",""
"","html-keyboard-response","65","242223","0.0-6.0-4.0-0.17","hem66jjbdg","one_one","1","indirect_first","0","er03tz18","0","24","1","1","1","1","null","","","<div class = 'row'><div class = 'column'><img src = 'category1/CS3.png' width = '70%;'></div><div class = 'column'><img src = 'uspos/5700.bmp' width = '100%;'></div></div>","null","pos","CS","CS","1","category1/CS3.png","","","","",""
"","html-keyboard-response","66","244763","0.0-6.0-4.0-0.18","hem66jjbdg","one_one","1","indirect_first","0","er03tz18","0","24","1","1","1","1","null","","","<div class = 'row'><div class = 'column'><img src = 'usneg/2750.bmp' width = '100%;'></div><div class = 'column'><img src = 'category3/CS3.png' width = '70%;'></div></div>","null","neg","CS","CS","3","category3/CS3.png","","","","",""
"","html-keyboard-response","67","247293","0.0-6.0-4.0-0.19","hem66jjbdg","one_one","1","indirect_first","0","er03tz18","0","24","1","1","1","1","null","","","<div class = 'row'><div class = 'column'><img src = 'uspos/5470.bmp' width = '100%;'></div><div class = 'column'><img src = 'category2/CS7.png' width = '70%;'></div></div>","null","pos","CS","CS","2","category2/CS7.png","","","","",""
"","survey-html-form","68","249098","0.0-6.0-5.0","hem66jjbdg","one_one","1","indirect_first","0","er03tz18","0","24","1","1","1","1","1284","","{}","","","","","","","","","","","",""
"","html-keyboard-response","69","253133","0.0-6.0-6.0-0.0","hem66jjbdg","one_one","1","indirect_first","0","er03tz18","0","24","1","1","1","1","null","","","<div class = 'row'><div class = 'column'><img src = 'category1/CS3.png' width = '70%;'></div><div class = 'column'><img src = 'uspos/5700.bmp' width = '100%;'></div></div>","null","pos","CS","CS","1","category1/CS3.png","","","","",""
"","html-keyboard-response","70","255664","0.0-6.0-6.0-0.1","hem66jjbdg","one_one","1","indirect_first","0","er03tz18","0","24","1","1","1","1","null","","","<div class = 'row'><div class = 'column'><img src = 'category3/CS3.png' width = '70%;'></div><div class = 'column'><img src = 'usneg/2750.bmp' width = '100%;'></div></div>","null","neg","CS","CS","3","category3/CS3.png","","","","",""
"","html-keyboard-response","71","258203","0.0-6.0-6.0-0.2","hem66jjbdg","one_one","1","indirect_first","0","er03tz18","0","24","1","1","1","1","null","","","<div class = 'row'><div class = 'column'><img src = 'category1/CS3.png' width = '70%;'></div><div class = 'column'><img src = 'uspos/5700.bmp' width = '100%;'></div></div>","null","pos","CS","CS","1","category1/CS3.png","","","","",""
"","html-keyboard-response","72","260743","0.0-6.0-6.0-0.3","hem66jjbdg","one_one","1","indirect_first","0","er03tz18","0","24","1","1","1","1","null","","","<div class = 'row'><div class = 'column'><img src = 'usneg/7380.bmp' width = '100%;'></div><div class = 'column'><img src = 'category4/CS10.png' width = '70%;'></div></div>","null","neg","CS","CS","4","category4/CS10.png","","","","",""
"","html-keyboard-response","73","263283","0.0-6.0-6.0-0.4","hem66jjbdg","one_one","1","indirect_first","0","er03tz18","0","24","1","1","1","1","null","","","<div class = 'row'><div class = 'column'><img src = 'uspos/5700.bmp' width = '100%;'></div><div class = 'column'><img src = 'category1/CS3.png' width = '70%;'></div></div>","null","pos","CS","CS","1","category1/CS3.png","","","","",""
"","html-keyboard-response","74","265823","0.0-6.0-6.0-0.5","hem66jjbdg","one_one","1","indirect_first","0","er03tz18","0","24","1","1","1","1","null","","","<div class = 'row'><div class = 'column'><img src = 'uspos/5470.bmp' width = '100%;'></div><div class = 'column'><img src = 'category2/CS7.png' width = '70%;'></div></div>","null","pos","CS","CS","2","category2/CS7.png","","","","",""
"","html-keyboard-response","75","268343","0.0-6.0-6.0-0.6","hem66jjbdg","one_one","1","indirect_first","0","er03tz18","0","24","1","1","1","1","null","","","<div class = 'row'><div class = 'column'><img src = 'usneg/7380.bmp' width = '100%;'></div><div class = 'column'><img src = 'category4/CS10.png' width = '70%;'></div></div>","null","neg","CS","CS","4","category4/CS10.png","","","","",""
"","html-keyboard-response","76","270883","0.0-6.0-6.0-0.7","hem66jjbdg","one_one","1","indirect_first","0","er03tz18","0","24","1","1","1","1","null","","","<div class = 'row'><div class = 'column'><img src = 'category3/CS3.png' width = '70%;'></div><div class = 'column'><img src = 'usneg/2750.bmp' width = '100%;'></div></div>","null","neg","CS","CS","3","category3/CS3.png","","","","",""
"","html-keyboard-response","77","273423","0.0-6.0-6.0-0.8","hem66jjbdg","one_one","1","indirect_first","0","er03tz18","0","24","1","1","1","1","null","","","<div class = 'row'><div class = 'column'><img src = 'uspos/5470.bmp' width = '100%;'></div><div class = 'column'><img src = 'category2/CS7.png' width = '70%;'></div></div>","null","pos","CS","CS","2","category2/CS7.png","","","","",""
"","html-keyboard-response","78","275963","0.0-6.0-6.0-0.9","hem66jjbdg","one_one","1","indirect_first","0","er03tz18","0","24","1","1","1","1","null","","","<div class = 'row'><div class = 'column'><img src = 'usneg/2750.bmp' width = '100%;'></div><div class = 'column'><img src = 'category3/CS3.png' width = '70%;'></div></div>","null","neg","CS","CS","3","category3/CS3.png","","","","",""
"","html-keyboard-response","79","278492","0.0-6.0-6.0-0.10","hem66jjbdg","one_one","1","indirect_first","0","er03tz18","0","24","1","1","1","1","null","","","<div class = 'row'><div class = 'column'><img src = 'category4/CS10.png' width = '70%;'></div><div class = 'column'><img src = 'usneg/7380.bmp' width = '100%;'></div></div>","null","neg","CS","CS","4","category4/CS10.png","","","","",""
"","html-keyboard-response","80","281033","0.0-6.0-6.0-0.11","hem66jjbdg","one_one","1","indirect_first","0","er03tz18","0","24","1","1","1","1","null","","","<div class = 'row'><div class = 'column'><img src = 'usneg/2750.bmp' width = '100%;'></div><div class = 'column'><img src = 'category3/CS3.png' width = '70%;'></div></div>","null","neg","CS","CS","3","category3/CS3.png","","","","",""
"","html-keyboard-response","81","283573","0.0-6.0-6.0-0.12","hem66jjbdg","one_one","1","indirect_first","0","er03tz18","0","24","1","1","1","1","null","","","<div class = 'row'><div class = 'column'><img src = 'category1/CS3.png' width = '70%;'></div><div class = 'column'><img src = 'uspos/5700.bmp' width = '100%;'></div></div>","null","pos","CS","CS","1","category1/CS3.png","","","","",""
"","html-keyboard-response","82","286113","0.0-6.0-6.0-0.13","hem66jjbdg","one_one","1","indirect_first","0","er03tz18","0","24","1","1","1","1","null","","","<div class = 'row'><div class = 'column'><img src = 'usneg/7380.bmp' width = '100%;'></div><div class = 'column'><img src = 'category4/CS10.png' width = '70%;'></div></div>","null","neg","CS","CS","4","category4/CS10.png","","","","",""
"","html-keyboard-response","83","288651","0.0-6.0-6.0-0.14","hem66jjbdg","one_one","1","indirect_first","0","er03tz18","0","24","1","1","1","1","null","","","<div class = 'row'><div class = 'column'><img src = 'uspos/5700.bmp' width = '100%;'></div><div class = 'column'><img src = 'category1/CS3.png' width = '70%;'></div></div>","null","pos","CS","CS","1","category1/CS3.png","","","","",""
"","html-keyboard-response","84","291172","0.0-6.0-6.0-0.15","hem66jjbdg","one_one","1","indirect_first","0","er03tz18","0","24","1","1","1","1","null","","","<div class = 'row'><div class = 'column'><img src = 'uspos/5470.bmp' width = '100%;'></div><div class = 'column'><img src = 'category2/CS7.png' width = '70%;'></div></div>","null","pos","CS","CS","2","category2/CS7.png","","","","",""
"","html-keyboard-response","85","293713","0.0-6.0-6.0-0.16","hem66jjbdg","one_one","1","indirect_first","0","er03tz18","0","24","1","1","1","1","null","","","<div class = 'row'><div class = 'column'><img src = 'usneg/7380.bmp' width = '100%;'></div><div class = 'column'><img src = 'category4/CS10.png' width = '70%;'></div></div>","null","neg","CS","CS","4","category4/CS10.png","","","","",""
"","html-keyboard-response","86","296243","0.0-6.0-6.0-0.17","hem66jjbdg","one_one","1","indirect_first","0","er03tz18","0","24","1","1","1","1","null","","","<div class = 'row'><div class = 'column'><img src = 'uspos/5470.bmp' width = '100%;'></div><div class = 'column'><img src = 'category2/CS7.png' width = '70%;'></div></div>","null","pos","CS","CS","2","category2/CS7.png","","","","",""
"","html-keyboard-response","87","298783","0.0-6.0-6.0-0.18","hem66jjbdg","one_one","1","indirect_first","0","er03tz18","0","24","1","1","1","1","null","","","<div class = 'row'><div class = 'column'><img src = 'usneg/2750.bmp' width = '100%;'></div><div class = 'column'><img src = 'category3/CS3.png' width = '70%;'></div></div>","null","neg","CS","CS","3","category3/CS3.png","","","","",""
"","html-keyboard-response","88","301323","0.0-6.0-6.0-0.19","hem66jjbdg","one_one","1","indirect_first","0","er03tz18","0","24","1","1","1","1","null","","","<div class = 'row'><div class = 'column'><img src = 'category2/CS7.png' width = '70%;'></div><div class = 'column'><img src = 'uspos/5470.bmp' width = '100%;'></div></div>","null","pos","CS","CS","2","category2/CS7.png","","","","",""
"","html-keyboard-response","89","327555","0.0-7.0","hem66jjbdg","one_one","1","indirect_first","0","er03tz18","0","24","1","1","1","1","25710","","","<p>Sie sehen nun die chinesischen Zeichen nur ganz kurz, und danach die jeweilige Aussprache der Zeichen. Ihre Aufgabe ist es, für jede Silbe anzugeben, ob diese etwas angenehmes, oder unangenehmes bedeuten könnte. Verlassen Sie sich hier vor allem auf Ihre Intuition.<br><br>Die Zeichen werden nur zur Orientierung dargestellt, beachten Sie sie deshalb nicht. Konzentrieren Sie sich vor allem auf die Silben. <br>Reagieren Sie mit folgenden zwei Tasten: <br><br><b>'D' </b> wenn die Silbe etwas <b>unangenehmes</b> bedeuten könnte. <br><b>'K'</b> wenn die Silbe etwas <b>angenehmes</b> bedeuten könnte. <br><br>Bitte legen Sie nun den Zeigefinger der linken Hand auf die Taste 'D' und den Zeigefinger der rechten Hand auf die Taste 'K'. <br>Reagieren Sie auf jede Silbe so schnell wie möglich. Uns interessiert Ihre spontane Reaktion. <br> <br> <br>Drücken Sie 'D' oder 'K', um die nächste Aufgabe zu starten. </p>","68","","","","","","","","","",""
"","html-keyboard-response","90","330572","0.0-8.0-0.0","hem66jjbdg","one_one","1","indirect_first","0","er03tz18","0","24","1","1","1","1","null","","","<div style=""font-size:60px;"">+</div>","null","","","","","","","","","",""
"","html-keyboard-response","91","330672","0.0-8.0-1.0","hem66jjbdg","one_one","1","indirect_first","0","er03tz18","0","24","1","1","1","1","null","","","<img src = 'category4/CS9.png' width = '100%;'>","null","","","","","","","","","",""
"","html-keyboard-response","92","330952","0.0-8.0-2.0","hem66jjbdg","one_one","1","indirect_first","0","er03tz18","0","24","1","1","1","1","null","","","<img src = 'targets/8.png' width = '100%;'>","null","","","","","","","","","",""
"","html-keyboard-response","93","333850","0.0-8.0-3.0","hem66jjbdg","one_one","1","indirect_first","0","er03tz18","0","24","1","1","1","1","2893","","","<img src = 'targets/mask.png' width = '100%;'>","75","neg","GS","GSold","4","category4/CS9.png","targets/8.png","1","indirect","0",""
"","html-keyboard-response","94","335373","0.0-8.0-0.1","hem66jjbdg","one_one","1","indirect_first","0","er03tz18","0","24","1","1","1","1","null","","","<div style=""font-size:60px;"">+</div>","null","","","","","","","","","",""
"","html-keyboard-response","95","335472","0.0-8.0-1.1","hem66jjbdg","one_one","1","indirect_first","0","er03tz18","0","24","1","1","1","1","null","","","<img src = 'category1/CS5.png' width = '100%;'>","null","","","","","","","","","",""
"","html-keyboard-response","96","335753","0.0-8.0-2.1","hem66jjbdg","one_one","1","indirect_first","0","er03tz18","0","24","1","1","1","1","null","","","<img src = 'targets/41.png' width = '100%;'>","null","","","","","","","","","",""
"","html-keyboard-response","97","338176","0.0-8.0-3.1","hem66jjbdg","one_one","1","indirect_first","0","er03tz18","0","24","1","1","1","1","2422","","","<img src = 'targets/mask.png' width = '100%;'>","75","pos","GS","GSold","1","category1/CS5.png","targets/41.png","1","indirect","1",""
"","html-keyboard-response","98","339683","0.0-8.0-0.2","hem66jjbdg","one_one","1","indirect_first","0","er03tz18","0","24","1","1","1","1","null","","","<div style=""font-size:60px;"">+</div>","null","","","","","","","","","",""
"","html-keyboard-response","99","339783","0.0-8.0-1.2","hem66jjbdg","one_one","1","indirect_first","0","er03tz18","0","24","1","1","1","1","null","","","<img src = 'category3/CS9.png' width = '100%;'>","null","","","","","","","","","",""
"","html-keyboard-response","100","340063","0.0-8.0-2.2","hem66jjbdg","one_one","1","indirect_first","0","er03tz18","0","24","1","1","1","1","null","","","<img src = 'targets/24.png' width = '100%;'>","null","","","","","","","","","",""
"","html-keyboard-response","101","342305","0.0-8.0-3.2","hem66jjbdg","one_one","1","indirect_first","0","er03tz18","0","24","1","1","1","1","2242","","","<img src = 'targets/mask.png' width = '100%;'>","75","neg","GS","GSold","3","category3/CS9.png","targets/24.png","1","indirect","2",""
"","html-keyboard-response","102","343820","0.0-8.0-0.3","hem66jjbdg","one_one","1","indirect_first","0","er03tz18","0","24","1","1","1","1","null","","","<div style=""font-size:60px;"">+</div>","null","","","","","","","","","",""
"","html-keyboard-response","103","343913","0.0-8.0-1.3","hem66jjbdg","one_one","1","indirect_first","0","er03tz18","0","24","1","1","1","1","null","","","<img src = 'category3/CS4.png' width = '100%;'>","null","","","","","","","","","",""
"","html-keyboard-response","104","344183","0.0-8.0-2.3","hem66jjbdg","one_one","1","indirect_first","0","er03tz18","0","24","1","1","1","1","null","","","<img src = 'targets/10.png' width = '100%;'>","null","","","","","","","","","",""
"","html-keyboard-response","105","345489","0.0-8.0-3.3","hem66jjbdg","one_one","1","indirect_first","0","er03tz18","0","24","1","1","1","1","1306","","","<img src = 'targets/mask.png' width = '100%;'>","75","neg","GS","GSold","3","category3/CS4.png","targets/10.png","1","indirect","3",""
"","html-keyboard-response","106","347022","0.0-8.0-0.4","hem66jjbdg","one_one","1","indirect_first","0","er03tz18","0","24","1","1","1","1","null","","","<div style=""font-size:60px;"">+</div>","null","","","","","","","","","",""
"","html-keyboard-response","107","347123","0.0-8.0-1.4","hem66jjbdg","one_one","1","indirect_first","0","er03tz18","0","24","1","1","1","1","null","","","<img src = 'category3/CS7.png' width = '100%;'>","null","","","","","","","","","",""
"","html-keyboard-response","108","347403","0.0-8.0-2.4","hem66jjbdg","one_one","1","indirect_first","0","er03tz18","0","24","1","1","1","1","null","","","<img src = 'targets/13.png' width = '100%;'>","null","","","","","","","","","",""
"","html-keyboard-response","109","348346","0.0-8.0-3.4","hem66jjbdg","one_one","1","indirect_first","0","er03tz18","0","24","1","1","1","1","941","","","<img src = 'targets/mask.png' width = '100%;'>","75","neg","GS","GSold","3","category3/CS7.png","targets/13.png","1","indirect","4",""
"","html-keyboard-response","110","349882","0.0-8.0-0.5","hem66jjbdg","one_one","1","indirect_first","0","er03tz18","0","24","1","1","1","1","null","","","<div style=""font-size:60px;"">+</div>","null","","","","","","","","","",""
"","html-keyboard-response","111","349983","0.0-8.0-1.5","hem66jjbdg","one_one","1","indirect_first","0","er03tz18","0","24","1","1","1","1","null","","","<img src = 'category2/CS10.png' width = '100%;'>","null","","","","","","","","","",""
"","html-keyboard-response","112","350262","0.0-8.0-2.5","hem66jjbdg","one_one","1","indirect_first","0","er03tz18","0","24","1","1","1","1","null","","","<img src = 'targets/32.png' width = '100%;'>","null","","","","","","","","","",""
"","html-keyboard-response","113","350930","0.0-8.0-3.5","hem66jjbdg","one_one","1","indirect_first","0","er03tz18","0","24","1","1","1","1","667","","","<img src = 'targets/mask.png' width = '100%;'>","68","pos","GS","GSold","2","category2/CS10.png","targets/32.png","0","indirect","5",""
"","html-keyboard-response","114","352440","0.0-8.0-0.6","hem66jjbdg","one_one","1","indirect_first","0","er03tz18","0","24","1","1","1","1","null","","","<div style=""font-size:60px;"">+</div>","null","","","","","","","","","",""
"","html-keyboard-response","115","352541","0.0-8.0-1.6","hem66jjbdg","one_one","1","indirect_first","0","er03tz18","0","24","1","1","1","1","null","","","<img src = 'category1/CS3.png' width = '100%;'>","null","","","","","","","","","",""
"","html-keyboard-response","116","352823","0.0-8.0-2.6","hem66jjbdg","one_one","1","indirect_first","0","er03tz18","0","24","1","1","1","1","null","","","<img src = 'targets/34.png' width = '100%;'>","null","","","","","","","","","",""
"","html-keyboard-response","117","355353","0.0-8.0-3.6","hem66jjbdg","one_one","1","indirect_first","0","er03tz18","0","24","1","1","1","1","2529","","","<img src = 'targets/mask.png' width = '100%;'>","68","pos","CS","CS","1","category1/CS3.png","targets/34.png","0","indirect","6",""
"","html-keyboard-response","118","356883","0.0-8.0-0.7","hem66jjbdg","one_one","1","indirect_first","0","er03tz18","0","24","1","1","1","1","null","","","<div style=""font-size:60px;"">+</div>","null","","","","","","","","","",""
"","html-keyboard-response","119","356983","0.0-8.0-1.7","hem66jjbdg","one_one","1","indirect_first","0","er03tz18","0","24","1","1","1","1","null","","","<img src = 'category4/CS10.png' width = '100%;'>","null","","","","","","","","","",""
"","html-keyboard-response","120","357260","0.0-8.0-2.7","hem66jjbdg","one_one","1","indirect_first","0","er03tz18","0","24","1","1","1","1","null","","","<img src = 'targets/45.png' width = '100%;'>","null","","","","","","","","","",""
"","html-keyboard-response","121","358121","0.0-8.0-3.7","hem66jjbdg","one_one","1","indirect_first","0","er03tz18","0","24","1","1","1","1","860","","","<img src = 'targets/mask.png' width = '100%;'>","75","neg","CS","CS","4","category4/CS10.png","targets/45.png","1","indirect","7",""
"","html-keyboard-response","122","359623","0.0-8.0-0.8","hem66jjbdg","one_one","1","indirect_first","0","er03tz18","0","24","1","1","1","1","null","","","<div style=""font-size:60px;"">+</div>","null","","","","","","","","","",""
"","html-keyboard-response","123","359723","0.0-8.0-1.8","hem66jjbdg","one_one","1","indirect_first","0","er03tz18","0","24","1","1","1","1","null","","","<img src = 'category3/CS3.png' width = '100%;'>","null","","","","","","","","","",""
"","html-keyboard-response","124","360003","0.0-8.0-2.8","hem66jjbdg","one_one","1","indirect_first","0","er03tz18","0","24","1","1","1","1","null","","","<img src = 'targets/14.png' width = '100%;'>","null","","","","","","","","","",""
"","html-keyboard-response","125","362529","0.0-8.0-3.8","hem66jjbdg","one_one","1","indirect_first","0","er03tz18","0","24","1","1","1","1","2526","","","<img src = 'targets/mask.png' width = '100%;'>","75","neg","CS","CS","3","category3/CS3.png","targets/14.png","1","indirect","8",""
"","html-keyboard-response","126","364062","0.0-8.0-0.9","hem66jjbdg","one_one","1","indirect_first","0","er03tz18","0","24","1","1","1","1","null","","","<div style=""font-size:60px;"">+</div>","null","","","","","","","","","",""
"","html-keyboard-response","127","364162","0.0-8.0-1.9","hem66jjbdg","one_one","1","indirect_first","0","er03tz18","0","24","1","1","1","1","null","","","<img src = 'category4/CS1.png' width = '100%;'>","null","","","","","","","","","",""
"","html-keyboard-response","128","364443","0.0-8.0-2.9","hem66jjbdg","one_one","1","indirect_first","0","er03tz18","0","24","1","1","1","1","null","","","<img src = 'targets/17.png' width = '100%;'>","null","","","","","","","","","",""
"","html-keyboard-response","129","365905","0.0-8.0-3.9","hem66jjbdg","one_one","1","indirect_first","0","er03tz18","0","24","1","1","1","1","1461","","","<img src = 'targets/mask.png' width = '100%;'>","75","neg","GS","GSold","4","category4/CS1.png","targets/17.png","1","indirect","9",""
"","html-keyboard-response","130","367443","0.0-8.0-0.10","hem66jjbdg","one_one","1","indirect_first","0","er03tz18","0","24","1","1","1","1","null","","","<div style=""font-size:60px;"">+</div>","null","","","","","","","","","",""
"","html-keyboard-response","131","367543","0.0-8.0-1.10","hem66jjbdg","one_one","1","indirect_first","0","er03tz18","0","24","1","1","1","1","null","","","<img src = 'category2/CS4.png' width = '100%;'>","null","","","","","","","","","",""
"","html-keyboard-response","132","367823","0.0-8.0-2.10","hem66jjbdg","one_one","1","indirect_first","0","er03tz18","0","24","1","1","1","1","null","","","<img src = 'targets/16.png' width = '100%;'>","null","","","","","","","","","",""
"","html-keyboard-response","133","371890","0.0-8.0-3.10","hem66jjbdg","one_one","1","indirect_first","0","er03tz18","0","24","1","1","1","1","4066","","","<img src = 'targets/mask.png' width = '100%;'>","68","pos","GS","GSold","2","category2/CS4.png","targets/16.png","0","indirect","10",""
"","html-keyboard-response","134","373423","0.0-8.0-0.11","hem66jjbdg","one_one","1","indirect_first","0","er03tz18","0","24","1","1","1","1","null","","","<div style=""font-size:60px;"">+</div>","null","","","","","","","","","",""
"","html-keyboard-response","135","373523","0.0-8.0-1.11","hem66jjbdg","one_one","1","indirect_first","0","er03tz18","0","24","1","1","1","1","null","","","<img src = 'category4/CS6.png' width = '100%;'>","null","","","","","","","","","",""
"","html-keyboard-response","136","373800","0.0-8.0-2.11","hem66jjbdg","one_one","1","indirect_first","0","er03tz18","0","24","1","1","1","1","null","","","<img src = 'targets/19.png' width = '100%;'>","null","","","","","","","","","",""
"","html-keyboard-response","137","374553","0.0-8.0-3.11","hem66jjbdg","one_one","1","indirect_first","0","er03tz18","0","24","1","1","1","1","751","","","<img src = 'targets/mask.png' width = '100%;'>","68","neg","GS","GSold","4","category4/CS6.png","targets/19.png","0","indirect","11",""
"","html-keyboard-response","138","376082","0.0-8.0-0.12","hem66jjbdg","one_one","1","indirect_first","0","er03tz18","0","24","1","1","1","1","null","","","<div style=""font-size:60px;"">+</div>","null","","","","","","","","","",""
"","html-keyboard-response","139","376182","0.0-8.0-1.12","hem66jjbdg","one_one","1","indirect_first","0","er03tz18","0","24","1","1","1","1","null","","","<img src = 'category1/CS10.png' width = '100%;'>","null","","","","","","","","","",""
"","html-keyboard-response","140","376463","0.0-8.0-2.12","hem66jjbdg","one_one","1","indirect_first","0","er03tz18","0","24","1","1","1","1","null","","","<img src = 'targets/38.png' width = '100%;'>","null","","","","","","","","","",""
"","html-keyboard-response","141","377937","0.0-8.0-3.12","hem66jjbdg","one_one","1","indirect_first","0","er03tz18","0","24","1","1","1","1","1473","","","<img src = 'targets/mask.png' width = '100%;'>","68","pos","GS","GSold","1","category1/CS10.png","targets/38.png","0","indirect","12",""
"","html-keyboard-response","142","379462","0.0-8.0-0.13","hem66jjbdg","one_one","1","indirect_first","0","er03tz18","0","24","1","1","1","1","null","","","<div style=""font-size:60px;"">+</div>","null","","","","","","","","","",""
"","html-keyboard-response","143","379563","0.0-8.0-1.13","hem66jjbdg","one_one","1","indirect_first","0","er03tz18","0","24","1","1","1","1","null","","","<img src = 'category2/CS5.png' width = '100%;'>","null","","","","","","","","","",""
"","html-keyboard-response","144","379843","0.0-8.0-2.13","hem66jjbdg","one_one","1","indirect_first","0","er03tz18","0","24","1","1","1","1","null","","","<img src = 'targets/43.png' width = '100%;'>","null","","","","","","","","","",""
"","html-keyboard-response","145","382441","0.0-8.0-3.13","hem66jjbdg","one_one","1","indirect_first","0","er03tz18","0","24","1","1","1","1","2597","","","<img src = 'targets/mask.png' width = '100%;'>","75","pos","GS","GSold","2","category2/CS5.png","targets/43.png","1","indirect","13",""
"","html-keyboard-response","146","383962","0.0-8.0-0.14","hem66jjbdg","one_one","1","indirect_first","0","er03tz18","0","24","1","1","1","1","null","","","<div style=""font-size:60px;"">+</div>","null","","","","","","","","","",""
"","html-keyboard-response","147","384063","0.0-8.0-1.14","hem66jjbdg","one_one","1","indirect_first","0","er03tz18","0","24","1","1","1","1","null","","","<img src = 'category1/CS7.png' width = '100%;'>","null","","","","","","","","","",""
"","html-keyboard-response","148","384343","0.0-8.0-2.14","hem66jjbdg","one_one","1","indirect_first","0","er03tz18","0","24","1","1","1","1","null","","","<img src = 'targets/23.png' width = '100%;'>","null","","","","","","","","","",""
"","html-keyboard-response","149","386705","0.0-8.0-3.14","hem66jjbdg","one_one","1","indirect_first","0","er03tz18","0","24","1","1","1","1","2361","","","<img src = 'targets/mask.png' width = '100%;'>","68","pos","GS","GSold","1","category1/CS7.png","targets/23.png","0","indirect","14",""
"","html-keyboard-response","150","388241","0.0-8.0-0.15","hem66jjbdg","one_one","1","indirect_first","0","er03tz18","0","24","1","1","1","1","null","","","<div style=""font-size:60px;"">+</div>","null","","","","","","","","","",""
"","html-keyboard-response","151","388341","0.0-8.0-1.15","hem66jjbdg","one_one","1","indirect_first","0","er03tz18","0","24","1","1","1","1","null","","","<img src = 'category2/CS7.png' width = '100%;'>","null","","","","","","","","","",""
"","html-keyboard-response","152","388623","0.0-8.0-2.15","hem66jjbdg","one_one","1","indirect_first","0","er03tz18","0","24","1","1","1","1","null","","","<img src = 'targets/26.png' width = '100%;'>","null","","","","","","","","","",""
"","html-keyboard-response","153","389633","0.0-8.0-3.15","hem66jjbdg","one_one","1","indirect_first","0","er03tz18","0","24","1","1","1","1","1010","","","<img src = 'targets/mask.png' width = '100%;'>","75","pos","CS","CS","2","category2/CS7.png","targets/26.png","1","indirect","15",""
"","survey-html-form","154","394369","0.0-9.0","hem66jjbdg","one_one","1","indirect_first","0","er03tz18","0","24","1","1","1","1","4226","","{}","","","","","","","","","","","",""
"","html-keyboard-response","155","397402","0.0-10.0-0.0","hem66jjbdg","one_one","1","indirect_first","0","er03tz18","0","24","1","1","1","1","null","","","<div style=""font-size:60px;"">+</div>","null","","","","","","","","","",""
"","html-keyboard-response","156","397502","0.0-10.0-1.0","hem66jjbdg","one_one","1","indirect_first","0","er03tz18","0","24","1","1","1","1","null","","","<img src = 'category1/ma.png' width = '100%;'>","null","","","","","","","","","",""
"","html-keyboard-response","157","397783","0.0-10.0-2.0","hem66jjbdg","one_one","1","indirect_first","0","er03tz18","0","24","1","1","1","1","null","","","<img src = 'targets/46.png' width = '100%;'>","null","","","","","","","","","",""
"","html-keyboard-response","158","398873","0.0-10.0-3.0","hem66jjbdg","one_one","1","indirect_first","0","er03tz18","0","24","1","1","1","1","1089","","","<img src = 'targets/mask.png' width = '100%;'>","68","pos","GS","abstract","1","category1/ma.png","targets/46.png","0","indirect","16",""
"","html-keyboard-response","159","400382","0.0-10.0-0.1","hem66jjbdg","one_one","1","indirect_first","0","er03tz18","0","24","1","1","1","1","null","","","<div style=""font-size:60px;"">+</div>","null","","","","","","","","","",""
"","html-keyboard-response","160","400482","0.0-10.0-1.1","hem66jjbdg","one_one","1","indirect_first","0","er03tz18","0","24","1","1","1","1","null","","","<img src = 'category2/GS1.png' width = '100%;'>","null","","","","","","","","","",""
"","html-keyboard-response","161","400762","0.0-10.0-2.1","hem66jjbdg","one_one","1","indirect_first","0","er03tz18","0","24","1","1","1","1","null","","","<img src = 'targets/33.png' width = '100%;'>","null","","","","","","","","","",""
"","html-keyboard-response","162","402064","0.0-10.0-3.1","hem66jjbdg","one_one","1","indirect_first","0","er03tz18","0","24","1","1","1","1","1300","","","<img src = 'targets/mask.png' width = '100%;'>","75","pos","GS","GSnew","2","category2/GS1.png","targets/33.png","1","indirect","17",""
"","html-keyboard-response","163","403603","0.0-10.0-0.2","hem66jjbdg","one_one","1","indirect_first","0","er03tz18","0","24","1","1","1","1","null","","","<div style=""font-size:60px;"">+</div>","null","","","","","","","","","",""
"","html-keyboard-response","164","403703","0.0-10.0-1.2","hem66jjbdg","one_one","1","indirect_first","0","er03tz18","0","24","1","1","1","1","null","","","<img src = 'category4/lin.png' width = '100%;'>","null","","","","","","","","","",""
"","html-keyboard-response","165","403983","0.0-10.0-2.2","hem66jjbdg","one_one","1","indirect_first","0","er03tz18","0","24","1","1","1","1","null","","","<img src = 'targets/39.png' width = '100%;'>","null","","","","","","","","","",""
"","html-keyboard-response","166","405361","0.0-10.0-3.2","hem66jjbdg","one_one","1","indirect_first","0","er03tz18","0","24","1","1","1","1","1377","","","<img src = 'targets/mask.png' width = '100%;'>","75","neg","GS","abstract","4","category4/lin.png","targets/39.png","1","indirect","18",""
"","html-keyboard-response","167","406883","0.0-10.0-0.3","hem66jjbdg","one_one","1","indirect_first","0","er03tz18","0","24","1","1","1","1","null","","","<div style=""font-size:60px;"">+</div>","null","","","","","","","","","",""
"","html-keyboard-response","168","406983","0.0-10.0-1.3","hem66jjbdg","one_one","1","indirect_first","0","er03tz18","0","24","1","1","1","1","null","","","<img src = 'category4/GS1.png' width = '100%;'>","null","","","","","","","","","",""
"","html-keyboard-response","169","407262","0.0-10.0-2.3","hem66jjbdg","one_one","1","indirect_first","0","er03tz18","0","24","1","1","1","1","null","","","<img src = 'targets/44.png' width = '100%;'>","null","","","","","","","","","",""
"","html-keyboard-response","170","408057","0.0-10.0-3.3","hem66jjbdg","one_one","1","indirect_first","0","er03tz18","0","24","1","1","1","1","793","","","<img src = 'targets/mask.png' width = '100%;'>","75","neg","GS","GSnew","4","category4/GS1.png","targets/44.png","1","indirect","19",""
"","html-keyboard-response","171","409583","0.0-10.0-0.4","hem66jjbdg","one_one","1","indirect_first","0","er03tz18","0","24","1","1","1","1","null","","","<div style=""font-size:60px;"">+</div>","null","","","","","","","","","",""
"","html-keyboard-response","172","409682","0.0-10.0-1.4","hem66jjbdg","one_one","1","indirect_first","0","er03tz18","0","24","1","1","1","1","null","","","<img src = 'category2/men.png' width = '100%;'>","null","","","","","","","","","",""
"","html-keyboard-response","173","409963","0.0-10.0-2.4","hem66jjbdg","one_one","1","indirect_first","0","er03tz18","0","24","1","1","1","1","null","","","<img src = 'targets/21.png' width = '100%;'>","null","","","","","","","","","",""
"","html-keyboard-response","174","411657","0.0-10.0-3.4","hem66jjbdg","one_one","1","indirect_first","0","er03tz18","0","24","1","1","1","1","1693","","","<img src = 'targets/mask.png' width = '100%;'>","75","pos","GS","abstract","2","category2/men.png","targets/21.png","1","indirect","20",""
"","html-keyboard-response","175","413163","0.0-10.0-0.5","hem66jjbdg","one_one","1","indirect_first","0","er03tz18","0","24","1","1","1","1","null","","","<div style=""font-size:60px;"">+</div>","null","","","","","","","","","",""
"","html-keyboard-response","176","413262","0.0-10.0-1.5","hem66jjbdg","one_one","1","indirect_first","0","er03tz18","0","24","1","1","1","1","null","","","<img src = 'category2/GS2.png' width = '100%;'>","null","","","","","","","","","",""
"","html-keyboard-response","177","413543","0.0-10.0-2.5","hem66jjbdg","one_one","1","indirect_first","0","er03tz18","0","24","1","1","1","1","null","","","<img src = 'targets/36.png' width = '100%;'>","null","","","","","","","","","",""
"","html-keyboard-response","178","414713","0.0-10.0-3.5","hem66jjbdg","one_one","1","indirect_first","0","er03tz18","0","24","1","1","1","1","1169","","","<img src = 'targets/mask.png' width = '100%;'>","75","pos","GS","GSnew","2","category2/GS2.png","targets/36.png","1","indirect","21",""
"","html-keyboard-response","179","416243","0.0-10.0-0.6","hem66jjbdg","one_one","1","indirect_first","0","er03tz18","0","24","1","1","1","1","null","","","<div style=""font-size:60px;"">+</div>","null","","","","","","","","","",""
"","html-keyboard-response","180","416343","0.0-10.0-1.6","hem66jjbdg","one_one","1","indirect_first","0","er03tz18","0","24","1","1","1","1","null","","","<img src = 'category1/GS3.png' width = '100%;'>","null","","","","","","","","","",""
"","html-keyboard-response","181","416613","0.0-10.0-2.6","hem66jjbdg","one_one","1","indirect_first","0","er03tz18","0","24","1","1","1","1","null","","","<img src = 'targets/11.png' width = '100%;'>","null","","","","","","","","","",""
"","html-keyboard-response","182","418057","0.0-10.0-3.6","hem66jjbdg","one_one","1","indirect_first","0","er03tz18","0","24","1","1","1","1","1444","","","<img src = 'targets/mask.png' width = '100%;'>","75","pos","GS","GSnew","1","category1/GS3.png","targets/11.png","1","indirect","22",""
"","html-keyboard-response","183","419592","0.0-10.0-0.7","hem66jjbdg","one_one","1","indirect_first","0","er03tz18","0","24","1","1","1","1","null","","","<div style=""font-size:60px;"">+</div>","null","","","","","","","","","",""
"","html-keyboard-response","184","419693","0.0-10.0-1.7","hem66jjbdg","one_one","1","indirect_first","0","er03tz18","0","24","1","1","1","1","null","","","<img src = 'category3/wang.png' width = '100%;'>","null","","","","","","","","","",""
"","html-keyboard-response","185","419972","0.0-10.0-2.7","hem66jjbdg","one_one","1","indirect_first","0","er03tz18","0","24","1","1","1","1","null","","","<img src = 'targets/48.png' width = '100%;'>","null","","","","","","","","","",""
"","html-keyboard-response","186","420953","0.0-10.0-3.7","hem66jjbdg","one_one","1","indirect_first","0","er03tz18","0","24","1","1","1","1","980","","","<img src = 'targets/mask.png' width = '100%;'>","68","neg","GS","abstract","3","category3/wang.png","targets/48.png","0","indirect","23",""
"","html-keyboard-response","187","422472","0.0-10.0-0.8","hem66jjbdg","one_one","1","indirect_first","0","er03tz18","0","24","1","1","1","1","null","","","<div style=""font-size:60px;"">+</div>","null","","","","","","","","","",""
"","html-keyboard-response","188","422573","0.0-10.0-1.8","hem66jjbdg","one_one","1","indirect_first","0","er03tz18","0","24","1","1","1","1","null","","","<img src = 'category2/GS3.png' width = '100%;'>","null","","","","","","","","","",""
"","html-keyboard-response","189","422843","0.0-10.0-2.8","hem66jjbdg","one_one","1","indirect_first","0","er03tz18","0","24","1","1","1","1","null","","","<img src = 'targets/3.png' width = '100%;'>","null","","","","","","","","","",""
"","html-keyboard-response","190","423465","0.0-10.0-3.8","hem66jjbdg","one_one","1","indirect_first","0","er03tz18","0","24","1","1","1","1","620","","","<img src = 'targets/mask.png' width = '100%;'>","68","pos","GS","GSnew","2","category2/GS3.png","targets/3.png","0","indirect","24",""
"","html-keyboard-response","191","424993","0.0-10.0-0.9","hem66jjbdg","one_one","1","indirect_first","0","er03tz18","0","24","1","1","1","1","null","","","<div style=""font-size:60px;"">+</div>","null","","","","","","","","","",""
"","html-keyboard-response","192","425093","0.0-10.0-1.9","hem66jjbdg","one_one","1","indirect_first","0","er03tz18","0","24","1","1","1","1","null","","","<img src = 'category3/GS2.png' width = '100%;'>","null","","","","","","","","","",""
"","html-keyboard-response","193","425373","0.0-10.0-2.9","hem66jjbdg","one_one","1","indirect_first","0","er03tz18","0","24","1","1","1","1","null","","","<img src = 'targets/22.png' width = '100%;'>","null","","","","","","","","","",""
"","html-keyboard-response","194","426201","0.0-10.0-3.9","hem66jjbdg","one_one","1","indirect_first","0","er03tz18","0","24","1","1","1","1","827","","","<img src = 'targets/mask.png' width = '100%;'>","68","neg","GS","GSnew","3","category3/GS2.png","targets/22.png","0","indirect","25",""
"","html-keyboard-response","195","427712","0.0-10.0-0.10","hem66jjbdg","one_one","1","indirect_first","0","er03tz18","0","24","1","1","1","1","null","","","<div style=""font-size:60px;"">+</div>","null","","","","","","","","","",""
"","html-keyboard-response","196","427813","0.0-10.0-1.10","hem66jjbdg","one_one","1","indirect_first","0","er03tz18","0","24","1","1","1","1","null","","","<img src = 'category1/GS1.png' width = '100%;'>","null","","","","","","","","","",""
"","html-keyboard-response","197","428093","0.0-10.0-2.10","hem66jjbdg","one_one","1","indirect_first","0","er03tz18","0","24","1","1","1","1","null","","","<img src = 'targets/2.png' width = '100%;'>","null","","","","","","","","","",""
"","html-keyboard-response","198","428665","0.0-10.0-3.10","hem66jjbdg","one_one","1","indirect_first","0","er03tz18","0","24","1","1","1","1","572","","","<img src = 'targets/mask.png' width = '100%;'>","68","pos","GS","GSnew","1","category1/GS1.png","targets/2.png","0","indirect","26",""
"","html-keyboard-response","199","430183","0.0-10.0-0.11","hem66jjbdg","one_one","1","indirect_first","0","er03tz18","0","24","1","1","1","1","null","","","<div style=""font-size:60px;"">+</div>","null","","","","","","","","","",""
"","html-keyboard-response","200","430283","0.0-10.0-1.11","hem66jjbdg","one_one","1","indirect_first","0","er03tz18","0","24","1","1","1","1","null","","","<img src = 'category4/GS2.png' width = '100%;'>","null","","","","","","","","","",""
"","html-keyboard-response","201","430563","0.0-10.0-2.11","hem66jjbdg","one_one","1","indirect_first","0","er03tz18","0","24","1","1","1","1","null","","","<img src = 'targets/12.png' width = '100%;'>","null","","","","","","","","","",""
"","html-keyboard-response","202","431353","0.0-10.0-3.11","hem66jjbdg","one_one","1","indirect_first","0","er03tz18","0","24","1","1","1","1","790","","","<img src = 'targets/mask.png' width = '100%;'>","75","neg","GS","GSnew","4","category4/GS2.png","targets/12.png","1","indirect","27",""
"","html-keyboard-response","203","432882","0.0-10.0-0.12","hem66jjbdg","one_one","1","indirect_first","0","er03tz18","0","24","1","1","1","1","null","","","<div style=""font-size:60px;"">+</div>","null","","","","","","","","","",""
"","html-keyboard-response","204","432983","0.0-10.0-1.12","hem66jjbdg","one_one","1","indirect_first","0","er03tz18","0","24","1","1","1","1","null","","","<img src = 'category3/GS3.png' width = '100%;'>","null","","","","","","","","","",""
"","html-keyboard-response","205","433262","0.0-10.0-2.12","hem66jjbdg","one_one","1","indirect_first","0","er03tz18","0","24","1","1","1","1","null","","","<img src = 'targets/42.png' width = '100%;'>","null","","","","","","","","","",""
"","html-keyboard-response","206","433970","0.0-10.0-3.12","hem66jjbdg","one_one","1","indirect_first","0","er03tz18","0","24","1","1","1","1","705","","","<img src = 'targets/mask.png' width = '100%;'>","75","neg","GS","GSnew","3","category3/GS3.png","targets/42.png","1","indirect","28",""
"","html-keyboard-response","207","435503","0.0-10.0-0.13","hem66jjbdg","one_one","1","indirect_first","0","er03tz18","0","24","1","1","1","1","null","","","<div style=""font-size:60px;"">+</div>","null","","","","","","","","","",""
"","html-keyboard-response","208","435603","0.0-10.0-1.13","hem66jjbdg","one_one","1","indirect_first","0","er03tz18","0","24","1","1","1","1","null","","","<img src = 'category3/GS1.png' width = '100%;'>","null","","","","","","","","","",""
"","html-keyboard-response","209","435883","0.0-10.0-2.13","hem66jjbdg","one_one","1","indirect_first","0","er03tz18","0","24","1","1","1","1","null","","","<img src = 'targets/31.png' width = '100%;'>","null","","","","","","","","","",""
"","html-keyboard-response","210","436833","0.0-10.0-3.13","hem66jjbdg","one_one","1","indirect_first","0","er03tz18","0","24","1","1","1","1","949","","","<img src = 'targets/mask.png' width = '100%;'>","68","neg","GS","GSnew","3","category3/GS1.png","targets/31.png","0","indirect","29",""
"","html-keyboard-response","211","438343","0.0-10.0-0.14","hem66jjbdg","one_one","1","indirect_first","0","er03tz18","0","24","1","1","1","1","null","","","<div style=""font-size:60px;"">+</div>","null","","","","","","","","","",""
"","html-keyboard-response","212","438442","0.0-10.0-1.14","hem66jjbdg","one_one","1","indirect_first","0","er03tz18","0","24","1","1","1","1","null","","","<img src = 'category4/GS3.png' width = '100%;'>","null","","","","","","","","","",""
"","html-keyboard-response","213","438723","0.0-10.0-2.14","hem66jjbdg","one_one","1","indirect_first","0","er03tz18","0","24","1","1","1","1","null","","","<img src = 'targets/5.png' width = '100%;'>","null","","","","","","","","","",""
"","html-keyboard-response","214","439425","0.0-10.0-3.14","hem66jjbdg","one_one","1","indirect_first","0","er03tz18","0","24","1","1","1","1","702","","","<img src = 'targets/mask.png' width = '100%;'>","75","neg","GS","GSnew","4","category4/GS3.png","targets/5.png","1","indirect","30",""
"","html-keyboard-response","215","440963","0.0-10.0-0.15","hem66jjbdg","one_one","1","indirect_first","0","er03tz18","0","24","1","1","1","1","null","","","<div style=""font-size:60px;"">+</div>","null","","","","","","","","","",""
"","html-keyboard-response","216","441063","0.0-10.0-1.15","hem66jjbdg","one_one","1","indirect_first","0","er03tz18","0","24","1","1","1","1","null","","","<img src = 'category1/GS2.png' width = '100%;'>","null","","","","","","","","","",""
"","html-keyboard-response","217","441343","0.0-10.0-2.15","hem66jjbdg","one_one","1","indirect_first","0","er03tz18","0","24","1","1","1","1","null","","","<img src = 'targets/47.png' width = '100%;'>","null","","","","","","","","","",""
"","html-keyboard-response","218","441921","0.0-10.0-3.15","hem66jjbdg","one_one","1","indirect_first","0","er03tz18","0","24","1","1","1","1","577","","","<img src = 'targets/mask.png' width = '100%;'>","75","pos","GS","GSnew","1","category1/GS2.png","targets/47.png","1","indirect","31",""
"","survey-html-form","219","449833","0.0-11.0","hem66jjbdg","one_one","1","indirect_first","0","er03tz18","0","24","1","1","1","1","7410","","{}","","","","","","","","","","","",""
"","image-slider-response","220","462248","0.0-12.0-0.0","hem66jjbdg","one_one","1","indirect_first","0","er03tz18","0","24","1","1","1","1","10398","","","","","pos","GS","GSnew","2","category2/GS1.png","targets/33.png","","direct","","-6"
"","image-slider-response","221","467871","0.0-12.0-0.1","hem66jjbdg","one_one","1","indirect_first","0","er03tz18","0","24","1","1","1","1","5621","","","","","pos","GS","GSold","2","category2/CS10.png","targets/32.png","","direct","","63"
"","image-slider-response","222","471751","0.0-12.0-0.2","hem66jjbdg","one_one","1","indirect_first","0","er03tz18","0","24","1","1","1","1","3879","","","","","pos","CS","CS","2","category2/CS7.png","targets/26.png","","direct","","21"
"","image-slider-response","223","474688","0.0-12.0-0.3","hem66jjbdg","one_one","1","indirect_first","0","er03tz18","0","24","1","1","1","1","2935","","","","","pos","GS","GSold","1","category1/CS7.png","targets/23.png","","direct","","-14"
"","image-slider-response","224","477696","0.0-12.0-0.4","hem66jjbdg","one_one","1","indirect_first","0","er03tz18","0","24","1","1","1","1","3007","","","","","neg","GS","GSold","3","category3/CS4.png","targets/10.png","","direct","","21"
"","image-slider-response","225","480847","0.0-12.0-0.5","hem66jjbdg","one_one","1","indirect_first","0","er03tz18","0","24","1","1","1","1","3151","","","","","neg","GS","GSnew","3","category3/GS3.png","targets/42.png","","direct","","19"
"","image-slider-response","226","483663","0.0-12.0-0.6","hem66jjbdg","one_one","1","indirect_first","0","er03tz18","0","24","1","1","1","1","2815","","","","","pos","GS","abstract","2","category2/men.png","targets/21.png","","direct","","28"
"","image-slider-response","227","487159","0.0-12.0-0.7","hem66jjbdg","one_one","1","indirect_first","0","er03tz18","0","24","1","1","1","1","3495","","","","","pos","GS","GSold","2","category2/CS5.png","targets/43.png","","direct","","19"
"","image-slider-response","228","490119","0.0-12.0-0.8","hem66jjbdg","one_one","1","indirect_first","0","er03tz18","0","24","1","1","1","1","2959","","","","","pos","GS","GSold","1","category1/CS10.png","targets/38.png","","direct","","-15"
"","image-slider-response","229","494535","0.0-12.0-0.9","hem66jjbdg","one_one","1","indirect_first","0","er03tz18","0","24","1","1","1","1","4415","","","","","neg","GS","GSold","4","category4/CS9.png","targets/8.png","","direct","","14"
"","image-slider-response","230","497447","0.0-12.0-0.10","hem66jjbdg","one_one","1","indirect_first","0","er03tz18","0","24","1","1","1","1","2910","","","","","neg","GS","abstract","4","category4/lin.png","targets/39.png","","direct","","23"
"","image-slider-response","231","499711","0.0-12.0-0.11","hem66jjbdg","one_one","1","indirect_first","0","er03tz18","0","24","1","1","1","1","2263","","","","","pos","GS","abstract","1","category1/ma.png","targets/46.png","","direct","","-15"
"","image-slider-response","232","502151","0.0-12.0-0.12","hem66jjbdg","one_one","1","indirect_first","0","er03tz18","0","24","1","1","1","1","2439","","","","","neg","GS","GSnew","3","category3/GS1.png","targets/31.png","","direct","","-12"
"","image-slider-response","233","505623","0.0-12.0-0.13","hem66jjbdg","one_one","1","indirect_first","0","er03tz18","0","24","1","1","1","1","3471","","","","","pos","GS","GSold","1","category1/CS5.png","targets/41.png","","direct","","-13"
"","image-slider-response","234","508455","0.0-12.0-0.14","hem66jjbdg","one_one","1","indirect_first","0","er03tz18","0","24","1","1","1","1","2831","","","","","neg","GS","GSold","3","category3/CS9.png","targets/24.png","","direct","","36"
"","image-slider-response","235","511647","0.0-12.0-0.15","hem66jjbdg","one_one","1","indirect_first","0","er03tz18","0","24","1","1","1","1","3192","","","","","neg","GS","GSold","4","category4/CS1.png","targets/17.png","","direct","","39"
"","image-slider-response","236","516479","0.0-12.0-0.16","hem66jjbdg","one_one","1","indirect_first","0","er03tz18","0","24","1","1","1","1","4830","","","","","neg","GS","GSnew","4","category4/GS3.png","targets/5.png","","direct","","-5"
"","image-slider-response","237","519623","0.0-12.0-0.17","hem66jjbdg","one_one","1","indirect_first","0","er03tz18","0","24","1","1","1","1","3143","","","","","neg","GS","GSold","4","category4/CS6.png","targets/19.png","","direct","","19"
"","image-slider-response","238","521791","0.0-12.0-0.18","hem66jjbdg","one_one","1","indirect_first","0","er03tz18","0","24","1","1","1","1","2167","","","","","neg","GS","abstract","3","category3/wang.png","targets/48.png","","direct","","20"
"","image-slider-response","239","524446","0.0-12.0-0.19","hem66jjbdg","one_one","1","indirect_first","0","er03tz18","0","24","1","1","1","1","2655","","","","","neg","GS","GSnew","4","category4/GS2.png","targets/12.png","","direct","","-13"
"","image-slider-response","240","528631","0.0-12.0-0.20","hem66jjbdg","one_one","1","indirect_first","0","er03tz18","0","24","1","1","1","1","4183","","","","","neg","GS","GSold","3","category3/CS7.png","targets/13.png","","direct","","16"
"","image-slider-response","241","531710","0.0-12.0-0.21","hem66jjbdg","one_one","1","indirect_first","0","er03tz18","0","24","1","1","1","1","3077","","","","","pos","GS","GSnew","1","category1/GS3.png","targets/11.png","","direct","","-15"
"","image-slider-response","242","536430","0.0-12.0-0.22","hem66jjbdg","one_one","1","indirect_first","0","er03tz18","0","24","1","1","1","1","4718","","","","","pos","GS","GSold","2","category2/CS4.png","targets/16.png","","direct","","4"
"","image-slider-response","243","540398","0.0-12.0-0.23","hem66jjbdg","one_one","1","indirect_first","0","er03tz18","0","24","1","1","1","1","3966","","","","","neg","CS","CS","3","category3/CS3.png","targets/14.png","","direct","","44"
"","image-slider-response","244","543175","0.0-12.0-0.24","hem66jjbdg","one_one","1","indirect_first","0","er03tz18","0","24","1","1","1","1","2774","","","","","neg","GS","GSnew","3","category3/GS2.png","targets/22.png","","direct","","-21"
"","image-slider-response","245","545599","0.0-12.0-0.25","hem66jjbdg","one_one","1","indirect_first","0","er03tz18","0","24","1","1","1","1","2421","","","","","pos","CS","CS","1","category1/CS3.png","targets/34.png","","direct","","-29"
"","image-slider-response","246","549494","0.0-12.0-0.26","hem66jjbdg","one_one","1","indirect_first","0","er03tz18","0","24","1","1","1","1","3893","","","","","neg","GS","GSnew","4","category4/GS1.png","targets/44.png","","direct","","25"
"","image-slider-response","247","552062","0.0-12.0-0.27","hem66jjbdg","one_one","1","indirect_first","0","er03tz18","0","24","1","1","1","1","2567","","","","","pos","GS","GSnew","1","category1/GS1.png","targets/2.png","","direct","","-33"
"","image-slider-response","248","556166","0.0-12.0-0.28","hem66jjbdg","one_one","1","indirect_first","0","er03tz18","0","24","1","1","1","1","4101","","","","","pos","GS","GSnew","2","category2/GS3.png","targets/3.png","","direct","","-6"
"","image-slider-response","249","558758","0.0-12.0-0.29","hem66jjbdg","one_one","1","indirect_first","0","er03tz18","0","24","1","1","1","1","2591","","","","","neg","CS","CS","4","category4/CS10.png","targets/45.png","","direct","","7"
"","image-slider-response","250","561518","0.0-12.0-0.30","hem66jjbdg","one_one","1","indirect_first","0","er03tz18","0","24","1","1","1","1","2758","","","","","pos","GS","GSnew","2","category2/GS2.png","targets/36.png","","direct","","-7"
"","image-slider-response","251","563854","0.0-12.0-0.31","hem66jjbdg","one_one","1","indirect_first","0","er03tz18","0","24","1","1","1","1","2335","","","","","pos","GS","GSnew","1","category1/GS2.png","targets/47.png","","direct","","-18"
"","survey-html-form","252","567983","0.0-13.0","hem66jjbdg","one_one","1","indirect_first","0","er03tz18","0","24","1","1","1","1","4129","","{}","","","","","","","","","","","",""
"","image-slider-response","253","572334","0.0-14.0-0.0","hem66jjbdg","one_one","1","indirect_first","0","er03tz18","0","24","1","1","1","1","3330","","","","","neg","All","all","3","category3/wang_all.png","","","all","","7"
"","image-slider-response","254","576358","0.0-14.0-0.1","hem66jjbdg","one_one","1","indirect_first","0","er03tz18","0","24","1","1","1","1","4022","","","","","neg","All","all","4","category4/lin_all.png","","","all","","6"
"","image-slider-response","255","578246","0.0-14.0-0.2","hem66jjbdg","one_one","1","indirect_first","0","er03tz18","0","24","1","1","1","1","1887","","","","","pos","All","all","2","category2/men_all.png","","","all","","12"
"","image-slider-response","256","580438","0.0-14.0-0.3","hem66jjbdg","one_one","1","indirect_first","0","er03tz18","0","24","1","1","1","1","2191","","","","","pos","All","all","1","category1/ma_all.png","","","all","","-9"
"","survey-text","257","584254","0.0-15.0","hem66jjbdg","one_one","1","indirect_first","0","er03tz18","0","24","1","1","1","1","3814","","{""Q0"":""""}","","","","","","","","","","","",""
