"success","trial_type","trial_index","time_elapsed","internal_node_id","subject","condition","condition_code","measure","measure_code","codeword","gender","age","education","chinese","fach","handedness","comment","hinschauen","ablenkung","gewissenhaft","rt","url","responses","stimulus","key_press","val","type","type_specific","category","cs_selected","response","target","task","indirect","nr_pres"
"true","fullscreen","0","12938","0.0-0.0","4z87p5m8tu","many_one","0","direct_first","1","er06ar05","1","41","2","0","4","1","Silben, die als ""Westler"" geläufig sind, man leicht aussprechen kann, sind mir angenehmer. Xue, Zue, gou, zou, usw., die es in der deutschen/westlichen Aussprache so nicht gibt, sind unangenhemer als fan, gan, usw.
Ich kann etwa 10% der japanischen Kanji-Schriftzeichen, daher weiß ich zum Beispiel, wie ""Mensch"" oder ""Mann"" in Japanisch und mitunter in Chinesisch geschrieben oder kombiniert wird. Ich empfinde diese Zeichen mehrheitlich positiv.
Ich habe zumindest im bewussten Nachdenken über die Bilder keinen Zusammenhang mit den Schriftzeichen festgestellt, dass es darauf Einfluss genommen hätte, wie ich die Zeichen empfinde.

Viel Erfolg!","0","1","0","","","","","","","","","","","","","","",""
"","external-html","1","66180","0.0-1.0","4z87p5m8tu","many_one","0","direct_first","1","er06ar05","1","41","2","0","4","1","Silben, die als ""Westler"" geläufig sind, man leicht aussprechen kann, sind mir angenehmer. Xue, Zue, gou, zou, usw., die es in der deutschen/westlichen Aussprache so nicht gibt, sind unangenhemer als fan, gan, usw.
Ich kann etwa 10% der japanischen Kanji-Schriftzeichen, daher weiß ich zum Beispiel, wie ""Mensch"" oder ""Mann"" in Japanisch und mitunter in Chinesisch geschrieben oder kombiniert wird. Ich empfinde diese Zeichen mehrheitlich positiv.
Ich habe zumindest im bewussten Nachdenken über die Bilder keinen Zusammenhang mit den Schriftzeichen festgestellt, dass es darauf Einfluss genommen hätte, wie ich die Zeichen empfinde.

Viel Erfolg!","0","1","0","53181.57500000052","text/information.html","","","","","","","","","","","","",""
"","external-html","2","72777","0.0-2.0","4z87p5m8tu","many_one","0","direct_first","1","er06ar05","1","41","2","0","4","1","Silben, die als ""Westler"" geläufig sind, man leicht aussprechen kann, sind mir angenehmer. Xue, Zue, gou, zou, usw., die es in der deutschen/westlichen Aussprache so nicht gibt, sind unangenhemer als fan, gan, usw.
Ich kann etwa 10% der japanischen Kanji-Schriftzeichen, daher weiß ich zum Beispiel, wie ""Mensch"" oder ""Mann"" in Japanisch und mitunter in Chinesisch geschrieben oder kombiniert wird. Ich empfinde diese Zeichen mehrheitlich positiv.
Ich habe zumindest im bewussten Nachdenken über die Bilder keinen Zusammenhang mit den Schriftzeichen festgestellt, dass es darauf Einfluss genommen hätte, wie ich die Zeichen empfinde.

Viel Erfolg!","0","1","0","6525.879999999233","text/consent.html","","","","","","","","","","","","",""
"","survey-html-form","3","157012","0.0-3.0","4z87p5m8tu","many_one","0","direct_first","1","er06ar05","1","41","2","0","4","1","Silben, die als ""Westler"" geläufig sind, man leicht aussprechen kann, sind mir angenehmer. Xue, Zue, gou, zou, usw., die es in der deutschen/westlichen Aussprache so nicht gibt, sind unangenhemer als fan, gan, usw.
Ich kann etwa 10% der japanischen Kanji-Schriftzeichen, daher weiß ich zum Beispiel, wie ""Mensch"" oder ""Mann"" in Japanisch und mitunter in Chinesisch geschrieben oder kombiniert wird. Ich empfinde diese Zeichen mehrheitlich positiv.
Ich habe zumindest im bewussten Nachdenken über die Bilder keinen Zusammenhang mit den Schriftzeichen festgestellt, dass es darauf Einfluss genommen hätte, wie ich die Zeichen empfinde.

Viel Erfolg!","0","1","0","84232.55000000064","","{""codeword_enter"":""er06ar05""}","","","","","","","","","","","",""
"","survey-html-form","4","178023","0.0-4.0","4z87p5m8tu","many_one","0","direct_first","1","er06ar05","1","41","2","0","4","1","Silben, die als ""Westler"" geläufig sind, man leicht aussprechen kann, sind mir angenehmer. Xue, Zue, gou, zou, usw., die es in der deutschen/westlichen Aussprache so nicht gibt, sind unangenhemer als fan, gan, usw.
Ich kann etwa 10% der japanischen Kanji-Schriftzeichen, daher weiß ich zum Beispiel, wie ""Mensch"" oder ""Mann"" in Japanisch und mitunter in Chinesisch geschrieben oder kombiniert wird. Ich empfinde diese Zeichen mehrheitlich positiv.
Ich habe zumindest im bewussten Nachdenken über die Bilder keinen Zusammenhang mit den Schriftzeichen festgestellt, dass es darauf Einfluss genommen hätte, wie ich die Zeichen empfinde.

Viel Erfolg!","0","1","0","21007.084999999264","","{""age"":""41"",""education"":""2"",""subject"":""4"",""gender"":""1"",""handedness"":""1"",""chinese"":""0""}","","","","","","","","","","","",""
"","survey-html-form","5","183577","0.0-5.0","4z87p5m8tu","many_one","0","direct_first","1","er06ar05","1","41","2","0","4","1","Silben, die als ""Westler"" geläufig sind, man leicht aussprechen kann, sind mir angenehmer. Xue, Zue, gou, zou, usw., die es in der deutschen/westlichen Aussprache so nicht gibt, sind unangenhemer als fan, gan, usw.
Ich kann etwa 10% der japanischen Kanji-Schriftzeichen, daher weiß ich zum Beispiel, wie ""Mensch"" oder ""Mann"" in Japanisch und mitunter in Chinesisch geschrieben oder kombiniert wird. Ich empfinde diese Zeichen mehrheitlich positiv.
Ich habe zumindest im bewussten Nachdenken über die Bilder keinen Zusammenhang mit den Schriftzeichen festgestellt, dass es darauf Einfluss genommen hätte, wie ich die Zeichen empfinde.

Viel Erfolg!","0","1","0","5551.414999999921","","{}","","","","","","","","","","","",""
"","html-keyboard-response","6","187590","0.0-6.0-0.0-0.0","4z87p5m8tu","many_one","0","direct_first","1","er06ar05","1","41","2","0","4","1","Silben, die als ""Westler"" geläufig sind, man leicht aussprechen kann, sind mir angenehmer. Xue, Zue, gou, zou, usw., die es in der deutschen/westlichen Aussprache so nicht gibt, sind unangenhemer als fan, gan, usw.
Ich kann etwa 10% der japanischen Kanji-Schriftzeichen, daher weiß ich zum Beispiel, wie ""Mensch"" oder ""Mann"" in Japanisch und mitunter in Chinesisch geschrieben oder kombiniert wird. Ich empfinde diese Zeichen mehrheitlich positiv.
Ich habe zumindest im bewussten Nachdenken über die Bilder keinen Zusammenhang mit den Schriftzeichen festgestellt, dass es darauf Einfluss genommen hätte, wie ich die Zeichen empfinde.

Viel Erfolg!","0","1","0","null","","","<div class = 'row'><div class = 'column'><img src = 'category1/CS1.png' width = '70%;'></div><div class = 'column'><img src = 'uspos/2340.bmp' width = '100%;'></div></div>","null","pos","CS","CS","1","category1/CS1.png","","","","",""
"","html-keyboard-response","7","190099","0.0-6.0-0.0-0.1","4z87p5m8tu","many_one","0","direct_first","1","er06ar05","1","41","2","0","4","1","Silben, die als ""Westler"" geläufig sind, man leicht aussprechen kann, sind mir angenehmer. Xue, Zue, gou, zou, usw., die es in der deutschen/westlichen Aussprache so nicht gibt, sind unangenhemer als fan, gan, usw.
Ich kann etwa 10% der japanischen Kanji-Schriftzeichen, daher weiß ich zum Beispiel, wie ""Mensch"" oder ""Mann"" in Japanisch und mitunter in Chinesisch geschrieben oder kombiniert wird. Ich empfinde diese Zeichen mehrheitlich positiv.
Ich habe zumindest im bewussten Nachdenken über die Bilder keinen Zusammenhang mit den Schriftzeichen festgestellt, dass es darauf Einfluss genommen hätte, wie ich die Zeichen empfinde.

Viel Erfolg!","0","1","0","null","","","<div class = 'row'><div class = 'column'><img src = 'uspos/5830.bmp' width = '100%;'></div><div class = 'column'><img src = 'category2/CS5.png' width = '70%;'></div></div>","null","pos","CS","CS","2","category2/CS5.png","","","","",""
"","html-keyboard-response","8","192611","0.0-6.0-0.0-0.2","4z87p5m8tu","many_one","0","direct_first","1","er06ar05","1","41","2","0","4","1","Silben, die als ""Westler"" geläufig sind, man leicht aussprechen kann, sind mir angenehmer. Xue, Zue, gou, zou, usw., die es in der deutschen/westlichen Aussprache so nicht gibt, sind unangenhemer als fan, gan, usw.
Ich kann etwa 10% der japanischen Kanji-Schriftzeichen, daher weiß ich zum Beispiel, wie ""Mensch"" oder ""Mann"" in Japanisch und mitunter in Chinesisch geschrieben oder kombiniert wird. Ich empfinde diese Zeichen mehrheitlich positiv.
Ich habe zumindest im bewussten Nachdenken über die Bilder keinen Zusammenhang mit den Schriftzeichen festgestellt, dass es darauf Einfluss genommen hätte, wie ich die Zeichen empfinde.

Viel Erfolg!","0","1","0","null","","","<div class = 'row'><div class = 'column'><img src = 'category2/CS10.png' width = '70%;'></div><div class = 'column'><img src = 'uspos/2530.bmp' width = '100%;'></div></div>","null","pos","CS","CS","2","category2/CS10.png","","","","",""
"","html-keyboard-response","9","195119","0.0-6.0-0.0-0.3","4z87p5m8tu","many_one","0","direct_first","1","er06ar05","1","41","2","0","4","1","Silben, die als ""Westler"" geläufig sind, man leicht aussprechen kann, sind mir angenehmer. Xue, Zue, gou, zou, usw., die es in der deutschen/westlichen Aussprache so nicht gibt, sind unangenhemer als fan, gan, usw.
Ich kann etwa 10% der japanischen Kanji-Schriftzeichen, daher weiß ich zum Beispiel, wie ""Mensch"" oder ""Mann"" in Japanisch und mitunter in Chinesisch geschrieben oder kombiniert wird. Ich empfinde diese Zeichen mehrheitlich positiv.
Ich habe zumindest im bewussten Nachdenken über die Bilder keinen Zusammenhang mit den Schriftzeichen festgestellt, dass es darauf Einfluss genommen hätte, wie ich die Zeichen empfinde.

Viel Erfolg!","0","1","0","null","","","<div class = 'row'><div class = 'column'><img src = 'usneg/3300.bmp' width = '100%;'></div><div class = 'column'><img src = 'category3/CS10.png' width = '70%;'></div></div>","null","neg","CS","CS","3","category3/CS10.png","","","","",""
"","html-keyboard-response","10","197633","0.0-6.0-0.0-0.4","4z87p5m8tu","many_one","0","direct_first","1","er06ar05","1","41","2","0","4","1","Silben, die als ""Westler"" geläufig sind, man leicht aussprechen kann, sind mir angenehmer. Xue, Zue, gou, zou, usw., die es in der deutschen/westlichen Aussprache so nicht gibt, sind unangenhemer als fan, gan, usw.
Ich kann etwa 10% der japanischen Kanji-Schriftzeichen, daher weiß ich zum Beispiel, wie ""Mensch"" oder ""Mann"" in Japanisch und mitunter in Chinesisch geschrieben oder kombiniert wird. Ich empfinde diese Zeichen mehrheitlich positiv.
Ich habe zumindest im bewussten Nachdenken über die Bilder keinen Zusammenhang mit den Schriftzeichen festgestellt, dass es darauf Einfluss genommen hätte, wie ich die Zeichen empfinde.

Viel Erfolg!","0","1","0","null","","","<div class = 'row'><div class = 'column'><img src = 'category4/CS1.png' width = '70%;'></div><div class = 'column'><img src = 'usneg/9435.bmp' width = '100%;'></div></div>","null","neg","CS","CS","4","category4/CS1.png","","","","",""
"","html-keyboard-response","11","200140","0.0-6.0-0.0-0.5","4z87p5m8tu","many_one","0","direct_first","1","er06ar05","1","41","2","0","4","1","Silben, die als ""Westler"" geläufig sind, man leicht aussprechen kann, sind mir angenehmer. Xue, Zue, gou, zou, usw., die es in der deutschen/westlichen Aussprache so nicht gibt, sind unangenhemer als fan, gan, usw.
Ich kann etwa 10% der japanischen Kanji-Schriftzeichen, daher weiß ich zum Beispiel, wie ""Mensch"" oder ""Mann"" in Japanisch und mitunter in Chinesisch geschrieben oder kombiniert wird. Ich empfinde diese Zeichen mehrheitlich positiv.
Ich habe zumindest im bewussten Nachdenken über die Bilder keinen Zusammenhang mit den Schriftzeichen festgestellt, dass es darauf Einfluss genommen hätte, wie ich die Zeichen empfinde.

Viel Erfolg!","0","1","0","null","","","<div class = 'row'><div class = 'column'><img src = 'usneg/2141.bmp' width = '100%;'></div><div class = 'column'><img src = 'category3/CS9.png' width = '70%;'></div></div>","null","neg","CS","CS","3","category3/CS9.png","","","","",""
"","html-keyboard-response","12","202647","0.0-6.0-0.0-0.6","4z87p5m8tu","many_one","0","direct_first","1","er06ar05","1","41","2","0","4","1","Silben, die als ""Westler"" geläufig sind, man leicht aussprechen kann, sind mir angenehmer. Xue, Zue, gou, zou, usw., die es in der deutschen/westlichen Aussprache so nicht gibt, sind unangenhemer als fan, gan, usw.
Ich kann etwa 10% der japanischen Kanji-Schriftzeichen, daher weiß ich zum Beispiel, wie ""Mensch"" oder ""Mann"" in Japanisch und mitunter in Chinesisch geschrieben oder kombiniert wird. Ich empfinde diese Zeichen mehrheitlich positiv.
Ich habe zumindest im bewussten Nachdenken über die Bilder keinen Zusammenhang mit den Schriftzeichen festgestellt, dass es darauf Einfluss genommen hätte, wie ich die Zeichen empfinde.

Viel Erfolg!","0","1","0","null","","","<div class = 'row'><div class = 'column'><img src = 'usneg/9561.bmp' width = '100%;'></div><div class = 'column'><img src = 'category4/CS7.png' width = '70%;'></div></div>","null","neg","CS","CS","4","category4/CS7.png","","","","",""
"","html-keyboard-response","13","205156","0.0-6.0-0.0-0.7","4z87p5m8tu","many_one","0","direct_first","1","er06ar05","1","41","2","0","4","1","Silben, die als ""Westler"" geläufig sind, man leicht aussprechen kann, sind mir angenehmer. Xue, Zue, gou, zou, usw., die es in der deutschen/westlichen Aussprache so nicht gibt, sind unangenhemer als fan, gan, usw.
Ich kann etwa 10% der japanischen Kanji-Schriftzeichen, daher weiß ich zum Beispiel, wie ""Mensch"" oder ""Mann"" in Japanisch und mitunter in Chinesisch geschrieben oder kombiniert wird. Ich empfinde diese Zeichen mehrheitlich positiv.
Ich habe zumindest im bewussten Nachdenken über die Bilder keinen Zusammenhang mit den Schriftzeichen festgestellt, dass es darauf Einfluss genommen hätte, wie ich die Zeichen empfinde.

Viel Erfolg!","0","1","0","null","","","<div class = 'row'><div class = 'column'><img src = 'category3/CS1.png' width = '70%;'></div><div class = 'column'><img src = 'usneg/9000.bmp' width = '100%;'></div></div>","null","neg","CS","CS","3","category3/CS1.png","","","","",""
"","html-keyboard-response","14","207664","0.0-6.0-0.0-0.8","4z87p5m8tu","many_one","0","direct_first","1","er06ar05","1","41","2","0","4","1","Silben, die als ""Westler"" geläufig sind, man leicht aussprechen kann, sind mir angenehmer. Xue, Zue, gou, zou, usw., die es in der deutschen/westlichen Aussprache so nicht gibt, sind unangenhemer als fan, gan, usw.
Ich kann etwa 10% der japanischen Kanji-Schriftzeichen, daher weiß ich zum Beispiel, wie ""Mensch"" oder ""Mann"" in Japanisch und mitunter in Chinesisch geschrieben oder kombiniert wird. Ich empfinde diese Zeichen mehrheitlich positiv.
Ich habe zumindest im bewussten Nachdenken über die Bilder keinen Zusammenhang mit den Schriftzeichen festgestellt, dass es darauf Einfluss genommen hätte, wie ich die Zeichen empfinde.

Viel Erfolg!","0","1","0","null","","","<div class = 'row'><div class = 'column'><img src = 'category2/CS8.png' width = '70%;'></div><div class = 'column'><img src = 'uspos/2208.bmp' width = '100%;'></div></div>","null","pos","CS","CS","2","category2/CS8.png","","","","",""
"","html-keyboard-response","15","210174","0.0-6.0-0.0-0.9","4z87p5m8tu","many_one","0","direct_first","1","er06ar05","1","41","2","0","4","1","Silben, die als ""Westler"" geläufig sind, man leicht aussprechen kann, sind mir angenehmer. Xue, Zue, gou, zou, usw., die es in der deutschen/westlichen Aussprache so nicht gibt, sind unangenhemer als fan, gan, usw.
Ich kann etwa 10% der japanischen Kanji-Schriftzeichen, daher weiß ich zum Beispiel, wie ""Mensch"" oder ""Mann"" in Japanisch und mitunter in Chinesisch geschrieben oder kombiniert wird. Ich empfinde diese Zeichen mehrheitlich positiv.
Ich habe zumindest im bewussten Nachdenken über die Bilder keinen Zusammenhang mit den Schriftzeichen festgestellt, dass es darauf Einfluss genommen hätte, wie ich die Zeichen empfinde.

Viel Erfolg!","0","1","0","null","","","<div class = 'row'><div class = 'column'><img src = 'usneg/2750.bmp' width = '100%;'></div><div class = 'column'><img src = 'category3/CS8.png' width = '70%;'></div></div>","null","neg","CS","CS","3","category3/CS8.png","","","","",""
"","html-keyboard-response","16","212682","0.0-6.0-0.0-0.10","4z87p5m8tu","many_one","0","direct_first","1","er06ar05","1","41","2","0","4","1","Silben, die als ""Westler"" geläufig sind, man leicht aussprechen kann, sind mir angenehmer. Xue, Zue, gou, zou, usw., die es in der deutschen/westlichen Aussprache so nicht gibt, sind unangenhemer als fan, gan, usw.
Ich kann etwa 10% der japanischen Kanji-Schriftzeichen, daher weiß ich zum Beispiel, wie ""Mensch"" oder ""Mann"" in Japanisch und mitunter in Chinesisch geschrieben oder kombiniert wird. Ich empfinde diese Zeichen mehrheitlich positiv.
Ich habe zumindest im bewussten Nachdenken über die Bilder keinen Zusammenhang mit den Schriftzeichen festgestellt, dass es darauf Einfluss genommen hätte, wie ich die Zeichen empfinde.

Viel Erfolg!","0","1","0","null","","","<div class = 'row'><div class = 'column'><img src = 'usneg/9920.bmp' width = '100%;'></div><div class = 'column'><img src = 'category4/CS4.png' width = '70%;'></div></div>","null","neg","CS","CS","4","category4/CS4.png","","","","",""
"","html-keyboard-response","17","215192","0.0-6.0-0.0-0.11","4z87p5m8tu","many_one","0","direct_first","1","er06ar05","1","41","2","0","4","1","Silben, die als ""Westler"" geläufig sind, man leicht aussprechen kann, sind mir angenehmer. Xue, Zue, gou, zou, usw., die es in der deutschen/westlichen Aussprache so nicht gibt, sind unangenhemer als fan, gan, usw.
Ich kann etwa 10% der japanischen Kanji-Schriftzeichen, daher weiß ich zum Beispiel, wie ""Mensch"" oder ""Mann"" in Japanisch und mitunter in Chinesisch geschrieben oder kombiniert wird. Ich empfinde diese Zeichen mehrheitlich positiv.
Ich habe zumindest im bewussten Nachdenken über die Bilder keinen Zusammenhang mit den Schriftzeichen festgestellt, dass es darauf Einfluss genommen hätte, wie ich die Zeichen empfinde.

Viel Erfolg!","0","1","0","null","","","<div class = 'row'><div class = 'column'><img src = 'uspos/2341.bmp' width = '100%;'></div><div class = 'column'><img src = 'category2/CS9.png' width = '70%;'></div></div>","null","pos","CS","CS","2","category2/CS9.png","","","","",""
"","html-keyboard-response","18","217698","0.0-6.0-0.0-0.12","4z87p5m8tu","many_one","0","direct_first","1","er06ar05","1","41","2","0","4","1","Silben, die als ""Westler"" geläufig sind, man leicht aussprechen kann, sind mir angenehmer. Xue, Zue, gou, zou, usw., die es in der deutschen/westlichen Aussprache so nicht gibt, sind unangenhemer als fan, gan, usw.
Ich kann etwa 10% der japanischen Kanji-Schriftzeichen, daher weiß ich zum Beispiel, wie ""Mensch"" oder ""Mann"" in Japanisch und mitunter in Chinesisch geschrieben oder kombiniert wird. Ich empfinde diese Zeichen mehrheitlich positiv.
Ich habe zumindest im bewussten Nachdenken über die Bilder keinen Zusammenhang mit den Schriftzeichen festgestellt, dass es darauf Einfluss genommen hätte, wie ich die Zeichen empfinde.

Viel Erfolg!","0","1","0","null","","","<div class = 'row'><div class = 'column'><img src = 'usneg/9181.bmp' width = '100%;'></div><div class = 'column'><img src = 'category3/CS2.png' width = '70%;'></div></div>","null","neg","CS","CS","3","category3/CS2.png","","","","",""
"","html-keyboard-response","19","220206","0.0-6.0-0.0-0.13","4z87p5m8tu","many_one","0","direct_first","1","er06ar05","1","41","2","0","4","1","Silben, die als ""Westler"" geläufig sind, man leicht aussprechen kann, sind mir angenehmer. Xue, Zue, gou, zou, usw., die es in der deutschen/westlichen Aussprache so nicht gibt, sind unangenhemer als fan, gan, usw.
Ich kann etwa 10% der japanischen Kanji-Schriftzeichen, daher weiß ich zum Beispiel, wie ""Mensch"" oder ""Mann"" in Japanisch und mitunter in Chinesisch geschrieben oder kombiniert wird. Ich empfinde diese Zeichen mehrheitlich positiv.
Ich habe zumindest im bewussten Nachdenken über die Bilder keinen Zusammenhang mit den Schriftzeichen festgestellt, dass es darauf Einfluss genommen hätte, wie ich die Zeichen empfinde.

Viel Erfolg!","0","1","0","null","","","<div class = 'row'><div class = 'column'><img src = 'uspos/8080.bmp' width = '100%;'></div><div class = 'column'><img src = 'category2/CS6.png' width = '70%;'></div></div>","null","pos","CS","CS","2","category2/CS6.png","","","","",""
"","html-keyboard-response","20","222714","0.0-6.0-0.0-0.14","4z87p5m8tu","many_one","0","direct_first","1","er06ar05","1","41","2","0","4","1","Silben, die als ""Westler"" geläufig sind, man leicht aussprechen kann, sind mir angenehmer. Xue, Zue, gou, zou, usw., die es in der deutschen/westlichen Aussprache so nicht gibt, sind unangenhemer als fan, gan, usw.
Ich kann etwa 10% der japanischen Kanji-Schriftzeichen, daher weiß ich zum Beispiel, wie ""Mensch"" oder ""Mann"" in Japanisch und mitunter in Chinesisch geschrieben oder kombiniert wird. Ich empfinde diese Zeichen mehrheitlich positiv.
Ich habe zumindest im bewussten Nachdenken über die Bilder keinen Zusammenhang mit den Schriftzeichen festgestellt, dass es darauf Einfluss genommen hätte, wie ich die Zeichen empfinde.

Viel Erfolg!","0","1","0","null","","","<div class = 'row'><div class = 'column'><img src = 'category1/CS4.png' width = '70%;'></div><div class = 'column'><img src = 'uspos/1710.bmp' width = '100%;'></div></div>","null","pos","CS","CS","1","category1/CS4.png","","","","",""
"","html-keyboard-response","21","225223","0.0-6.0-0.0-0.15","4z87p5m8tu","many_one","0","direct_first","1","er06ar05","1","41","2","0","4","1","Silben, die als ""Westler"" geläufig sind, man leicht aussprechen kann, sind mir angenehmer. Xue, Zue, gou, zou, usw., die es in der deutschen/westlichen Aussprache so nicht gibt, sind unangenhemer als fan, gan, usw.
Ich kann etwa 10% der japanischen Kanji-Schriftzeichen, daher weiß ich zum Beispiel, wie ""Mensch"" oder ""Mann"" in Japanisch und mitunter in Chinesisch geschrieben oder kombiniert wird. Ich empfinde diese Zeichen mehrheitlich positiv.
Ich habe zumindest im bewussten Nachdenken über die Bilder keinen Zusammenhang mit den Schriftzeichen festgestellt, dass es darauf Einfluss genommen hätte, wie ich die Zeichen empfinde.

Viel Erfolg!","0","1","0","null","","","<div class = 'row'><div class = 'column'><img src = 'category4/CS3.png' width = '70%;'></div><div class = 'column'><img src = 'usneg/8485.bmp' width = '100%;'></div></div>","null","neg","CS","CS","4","category4/CS3.png","","","","",""
"","html-keyboard-response","22","227736","0.0-6.0-0.0-0.16","4z87p5m8tu","many_one","0","direct_first","1","er06ar05","1","41","2","0","4","1","Silben, die als ""Westler"" geläufig sind, man leicht aussprechen kann, sind mir angenehmer. Xue, Zue, gou, zou, usw., die es in der deutschen/westlichen Aussprache so nicht gibt, sind unangenhemer als fan, gan, usw.
Ich kann etwa 10% der japanischen Kanji-Schriftzeichen, daher weiß ich zum Beispiel, wie ""Mensch"" oder ""Mann"" in Japanisch und mitunter in Chinesisch geschrieben oder kombiniert wird. Ich empfinde diese Zeichen mehrheitlich positiv.
Ich habe zumindest im bewussten Nachdenken über die Bilder keinen Zusammenhang mit den Schriftzeichen festgestellt, dass es darauf Einfluss genommen hätte, wie ich die Zeichen empfinde.

Viel Erfolg!","0","1","0","null","","","<div class = 'row'><div class = 'column'><img src = 'category1/CS6.png' width = '70%;'></div><div class = 'column'><img src = 'uspos/8461.bmp' width = '100%;'></div></div>","null","pos","CS","CS","1","category1/CS6.png","","","","",""
"","html-keyboard-response","23","230245","0.0-6.0-0.0-0.17","4z87p5m8tu","many_one","0","direct_first","1","er06ar05","1","41","2","0","4","1","Silben, die als ""Westler"" geläufig sind, man leicht aussprechen kann, sind mir angenehmer. Xue, Zue, gou, zou, usw., die es in der deutschen/westlichen Aussprache so nicht gibt, sind unangenhemer als fan, gan, usw.
Ich kann etwa 10% der japanischen Kanji-Schriftzeichen, daher weiß ich zum Beispiel, wie ""Mensch"" oder ""Mann"" in Japanisch und mitunter in Chinesisch geschrieben oder kombiniert wird. Ich empfinde diese Zeichen mehrheitlich positiv.
Ich habe zumindest im bewussten Nachdenken über die Bilder keinen Zusammenhang mit den Schriftzeichen festgestellt, dass es darauf Einfluss genommen hätte, wie ich die Zeichen empfinde.

Viel Erfolg!","0","1","0","null","","","<div class = 'row'><div class = 'column'><img src = 'category1/CS7.png' width = '70%;'></div><div class = 'column'><img src = 'uspos/2160.bmp' width = '100%;'></div></div>","null","pos","CS","CS","1","category1/CS7.png","","","","",""
"","html-keyboard-response","24","232753","0.0-6.0-0.0-0.18","4z87p5m8tu","many_one","0","direct_first","1","er06ar05","1","41","2","0","4","1","Silben, die als ""Westler"" geläufig sind, man leicht aussprechen kann, sind mir angenehmer. Xue, Zue, gou, zou, usw., die es in der deutschen/westlichen Aussprache so nicht gibt, sind unangenhemer als fan, gan, usw.
Ich kann etwa 10% der japanischen Kanji-Schriftzeichen, daher weiß ich zum Beispiel, wie ""Mensch"" oder ""Mann"" in Japanisch und mitunter in Chinesisch geschrieben oder kombiniert wird. Ich empfinde diese Zeichen mehrheitlich positiv.
Ich habe zumindest im bewussten Nachdenken über die Bilder keinen Zusammenhang mit den Schriftzeichen festgestellt, dass es darauf Einfluss genommen hätte, wie ich die Zeichen empfinde.

Viel Erfolg!","0","1","0","null","","","<div class = 'row'><div class = 'column'><img src = 'category4/CS6.png' width = '70%;'></div><div class = 'column'><img src = 'usneg/9182.bmp' width = '100%;'></div></div>","null","neg","CS","CS","4","category4/CS6.png","","","","",""
"","html-keyboard-response","25","235260","0.0-6.0-0.0-0.19","4z87p5m8tu","many_one","0","direct_first","1","er06ar05","1","41","2","0","4","1","Silben, die als ""Westler"" geläufig sind, man leicht aussprechen kann, sind mir angenehmer. Xue, Zue, gou, zou, usw., die es in der deutschen/westlichen Aussprache so nicht gibt, sind unangenhemer als fan, gan, usw.
Ich kann etwa 10% der japanischen Kanji-Schriftzeichen, daher weiß ich zum Beispiel, wie ""Mensch"" oder ""Mann"" in Japanisch und mitunter in Chinesisch geschrieben oder kombiniert wird. Ich empfinde diese Zeichen mehrheitlich positiv.
Ich habe zumindest im bewussten Nachdenken über die Bilder keinen Zusammenhang mit den Schriftzeichen festgestellt, dass es darauf Einfluss genommen hätte, wie ich die Zeichen empfinde.

Viel Erfolg!","0","1","0","null","","","<div class = 'row'><div class = 'column'><img src = 'category1/CS9.png' width = '70%;'></div><div class = 'column'><img src = 'uspos/2360.bmp' width = '100%;'></div></div>","null","pos","CS","CS","1","category1/CS9.png","","","","",""
"","survey-html-form","26","241846","0.0-6.0-1.0","4z87p5m8tu","many_one","0","direct_first","1","er06ar05","1","41","2","0","4","1","Silben, die als ""Westler"" geläufig sind, man leicht aussprechen kann, sind mir angenehmer. Xue, Zue, gou, zou, usw., die es in der deutschen/westlichen Aussprache so nicht gibt, sind unangenhemer als fan, gan, usw.
Ich kann etwa 10% der japanischen Kanji-Schriftzeichen, daher weiß ich zum Beispiel, wie ""Mensch"" oder ""Mann"" in Japanisch und mitunter in Chinesisch geschrieben oder kombiniert wird. Ich empfinde diese Zeichen mehrheitlich positiv.
Ich habe zumindest im bewussten Nachdenken über die Bilder keinen Zusammenhang mit den Schriftzeichen festgestellt, dass es darauf Einfluss genommen hätte, wie ich die Zeichen empfinde.

Viel Erfolg!","0","1","0","6079.309999999154","","{}","","","","","","","","","","","",""
"","html-keyboard-response","27","245858","0.0-6.0-2.0-0.0","4z87p5m8tu","many_one","0","direct_first","1","er06ar05","1","41","2","0","4","1","Silben, die als ""Westler"" geläufig sind, man leicht aussprechen kann, sind mir angenehmer. Xue, Zue, gou, zou, usw., die es in der deutschen/westlichen Aussprache so nicht gibt, sind unangenhemer als fan, gan, usw.
Ich kann etwa 10% der japanischen Kanji-Schriftzeichen, daher weiß ich zum Beispiel, wie ""Mensch"" oder ""Mann"" in Japanisch und mitunter in Chinesisch geschrieben oder kombiniert wird. Ich empfinde diese Zeichen mehrheitlich positiv.
Ich habe zumindest im bewussten Nachdenken über die Bilder keinen Zusammenhang mit den Schriftzeichen festgestellt, dass es darauf Einfluss genommen hätte, wie ich die Zeichen empfinde.

Viel Erfolg!","0","1","0","null","","","<div class = 'row'><div class = 'column'><img src = 'uspos/2341.bmp' width = '100%;'></div><div class = 'column'><img src = 'category2/CS9.png' width = '70%;'></div></div>","null","pos","CS","CS","2","category2/CS9.png","","","","",""
"","html-keyboard-response","28","248370","0.0-6.0-2.0-0.1","4z87p5m8tu","many_one","0","direct_first","1","er06ar05","1","41","2","0","4","1","Silben, die als ""Westler"" geläufig sind, man leicht aussprechen kann, sind mir angenehmer. Xue, Zue, gou, zou, usw., die es in der deutschen/westlichen Aussprache so nicht gibt, sind unangenhemer als fan, gan, usw.
Ich kann etwa 10% der japanischen Kanji-Schriftzeichen, daher weiß ich zum Beispiel, wie ""Mensch"" oder ""Mann"" in Japanisch und mitunter in Chinesisch geschrieben oder kombiniert wird. Ich empfinde diese Zeichen mehrheitlich positiv.
Ich habe zumindest im bewussten Nachdenken über die Bilder keinen Zusammenhang mit den Schriftzeichen festgestellt, dass es darauf Einfluss genommen hätte, wie ich die Zeichen empfinde.

Viel Erfolg!","0","1","0","null","","","<div class = 'row'><div class = 'column'><img src = 'uspos/8080.bmp' width = '100%;'></div><div class = 'column'><img src = 'category2/CS6.png' width = '70%;'></div></div>","null","pos","CS","CS","2","category2/CS6.png","","","","",""
"","html-keyboard-response","29","250880","0.0-6.0-2.0-0.2","4z87p5m8tu","many_one","0","direct_first","1","er06ar05","1","41","2","0","4","1","Silben, die als ""Westler"" geläufig sind, man leicht aussprechen kann, sind mir angenehmer. Xue, Zue, gou, zou, usw., die es in der deutschen/westlichen Aussprache so nicht gibt, sind unangenhemer als fan, gan, usw.
Ich kann etwa 10% der japanischen Kanji-Schriftzeichen, daher weiß ich zum Beispiel, wie ""Mensch"" oder ""Mann"" in Japanisch und mitunter in Chinesisch geschrieben oder kombiniert wird. Ich empfinde diese Zeichen mehrheitlich positiv.
Ich habe zumindest im bewussten Nachdenken über die Bilder keinen Zusammenhang mit den Schriftzeichen festgestellt, dass es darauf Einfluss genommen hätte, wie ich die Zeichen empfinde.

Viel Erfolg!","0","1","0","null","","","<div class = 'row'><div class = 'column'><img src = 'category2/CS5.png' width = '70%;'></div><div class = 'column'><img src = 'uspos/5830.bmp' width = '100%;'></div></div>","null","pos","CS","CS","2","category2/CS5.png","","","","",""
"","html-keyboard-response","30","253391","0.0-6.0-2.0-0.3","4z87p5m8tu","many_one","0","direct_first","1","er06ar05","1","41","2","0","4","1","Silben, die als ""Westler"" geläufig sind, man leicht aussprechen kann, sind mir angenehmer. Xue, Zue, gou, zou, usw., die es in der deutschen/westlichen Aussprache so nicht gibt, sind unangenhemer als fan, gan, usw.
Ich kann etwa 10% der japanischen Kanji-Schriftzeichen, daher weiß ich zum Beispiel, wie ""Mensch"" oder ""Mann"" in Japanisch und mitunter in Chinesisch geschrieben oder kombiniert wird. Ich empfinde diese Zeichen mehrheitlich positiv.
Ich habe zumindest im bewussten Nachdenken über die Bilder keinen Zusammenhang mit den Schriftzeichen festgestellt, dass es darauf Einfluss genommen hätte, wie ich die Zeichen empfinde.

Viel Erfolg!","0","1","0","null","","","<div class = 'row'><div class = 'column'><img src = 'category1/CS6.png' width = '70%;'></div><div class = 'column'><img src = 'uspos/8461.bmp' width = '100%;'></div></div>","null","pos","CS","CS","1","category1/CS6.png","","","","",""
"","html-keyboard-response","31","255905","0.0-6.0-2.0-0.4","4z87p5m8tu","many_one","0","direct_first","1","er06ar05","1","41","2","0","4","1","Silben, die als ""Westler"" geläufig sind, man leicht aussprechen kann, sind mir angenehmer. Xue, Zue, gou, zou, usw., die es in der deutschen/westlichen Aussprache so nicht gibt, sind unangenhemer als fan, gan, usw.
Ich kann etwa 10% der japanischen Kanji-Schriftzeichen, daher weiß ich zum Beispiel, wie ""Mensch"" oder ""Mann"" in Japanisch und mitunter in Chinesisch geschrieben oder kombiniert wird. Ich empfinde diese Zeichen mehrheitlich positiv.
Ich habe zumindest im bewussten Nachdenken über die Bilder keinen Zusammenhang mit den Schriftzeichen festgestellt, dass es darauf Einfluss genommen hätte, wie ich die Zeichen empfinde.

Viel Erfolg!","0","1","0","null","","","<div class = 'row'><div class = 'column'><img src = 'usneg/9435.bmp' width = '100%;'></div><div class = 'column'><img src = 'category4/CS1.png' width = '70%;'></div></div>","null","neg","CS","CS","4","category4/CS1.png","","","","",""
"","html-keyboard-response","32","258412","0.0-6.0-2.0-0.5","4z87p5m8tu","many_one","0","direct_first","1","er06ar05","1","41","2","0","4","1","Silben, die als ""Westler"" geläufig sind, man leicht aussprechen kann, sind mir angenehmer. Xue, Zue, gou, zou, usw., die es in der deutschen/westlichen Aussprache so nicht gibt, sind unangenhemer als fan, gan, usw.
Ich kann etwa 10% der japanischen Kanji-Schriftzeichen, daher weiß ich zum Beispiel, wie ""Mensch"" oder ""Mann"" in Japanisch und mitunter in Chinesisch geschrieben oder kombiniert wird. Ich empfinde diese Zeichen mehrheitlich positiv.
Ich habe zumindest im bewussten Nachdenken über die Bilder keinen Zusammenhang mit den Schriftzeichen festgestellt, dass es darauf Einfluss genommen hätte, wie ich die Zeichen empfinde.

Viel Erfolg!","0","1","0","null","","","<div class = 'row'><div class = 'column'><img src = 'category4/CS4.png' width = '70%;'></div><div class = 'column'><img src = 'usneg/9920.bmp' width = '100%;'></div></div>","null","neg","CS","CS","4","category4/CS4.png","","","","",""
"","html-keyboard-response","33","260922","0.0-6.0-2.0-0.6","4z87p5m8tu","many_one","0","direct_first","1","er06ar05","1","41","2","0","4","1","Silben, die als ""Westler"" geläufig sind, man leicht aussprechen kann, sind mir angenehmer. Xue, Zue, gou, zou, usw., die es in der deutschen/westlichen Aussprache so nicht gibt, sind unangenhemer als fan, gan, usw.
Ich kann etwa 10% der japanischen Kanji-Schriftzeichen, daher weiß ich zum Beispiel, wie ""Mensch"" oder ""Mann"" in Japanisch und mitunter in Chinesisch geschrieben oder kombiniert wird. Ich empfinde diese Zeichen mehrheitlich positiv.
Ich habe zumindest im bewussten Nachdenken über die Bilder keinen Zusammenhang mit den Schriftzeichen festgestellt, dass es darauf Einfluss genommen hätte, wie ich die Zeichen empfinde.

Viel Erfolg!","0","1","0","null","","","<div class = 'row'><div class = 'column'><img src = 'category4/CS3.png' width = '70%;'></div><div class = 'column'><img src = 'usneg/8485.bmp' width = '100%;'></div></div>","null","neg","CS","CS","4","category4/CS3.png","","","","",""
"","html-keyboard-response","34","263426","0.0-6.0-2.0-0.7","4z87p5m8tu","many_one","0","direct_first","1","er06ar05","1","41","2","0","4","1","Silben, die als ""Westler"" geläufig sind, man leicht aussprechen kann, sind mir angenehmer. Xue, Zue, gou, zou, usw., die es in der deutschen/westlichen Aussprache so nicht gibt, sind unangenhemer als fan, gan, usw.
Ich kann etwa 10% der japanischen Kanji-Schriftzeichen, daher weiß ich zum Beispiel, wie ""Mensch"" oder ""Mann"" in Japanisch und mitunter in Chinesisch geschrieben oder kombiniert wird. Ich empfinde diese Zeichen mehrheitlich positiv.
Ich habe zumindest im bewussten Nachdenken über die Bilder keinen Zusammenhang mit den Schriftzeichen festgestellt, dass es darauf Einfluss genommen hätte, wie ich die Zeichen empfinde.

Viel Erfolg!","0","1","0","null","","","<div class = 'row'><div class = 'column'><img src = 'usneg/2750.bmp' width = '100%;'></div><div class = 'column'><img src = 'category3/CS8.png' width = '70%;'></div></div>","null","neg","CS","CS","3","category3/CS8.png","","","","",""
"","html-keyboard-response","35","265931","0.0-6.0-2.0-0.8","4z87p5m8tu","many_one","0","direct_first","1","er06ar05","1","41","2","0","4","1","Silben, die als ""Westler"" geläufig sind, man leicht aussprechen kann, sind mir angenehmer. Xue, Zue, gou, zou, usw., die es in der deutschen/westlichen Aussprache so nicht gibt, sind unangenhemer als fan, gan, usw.
Ich kann etwa 10% der japanischen Kanji-Schriftzeichen, daher weiß ich zum Beispiel, wie ""Mensch"" oder ""Mann"" in Japanisch und mitunter in Chinesisch geschrieben oder kombiniert wird. Ich empfinde diese Zeichen mehrheitlich positiv.
Ich habe zumindest im bewussten Nachdenken über die Bilder keinen Zusammenhang mit den Schriftzeichen festgestellt, dass es darauf Einfluss genommen hätte, wie ich die Zeichen empfinde.

Viel Erfolg!","0","1","0","null","","","<div class = 'row'><div class = 'column'><img src = 'usneg/9000.bmp' width = '100%;'></div><div class = 'column'><img src = 'category3/CS1.png' width = '70%;'></div></div>","null","neg","CS","CS","3","category3/CS1.png","","","","",""
"","html-keyboard-response","36","268440","0.0-6.0-2.0-0.9","4z87p5m8tu","many_one","0","direct_first","1","er06ar05","1","41","2","0","4","1","Silben, die als ""Westler"" geläufig sind, man leicht aussprechen kann, sind mir angenehmer. Xue, Zue, gou, zou, usw., die es in der deutschen/westlichen Aussprache so nicht gibt, sind unangenhemer als fan, gan, usw.
Ich kann etwa 10% der japanischen Kanji-Schriftzeichen, daher weiß ich zum Beispiel, wie ""Mensch"" oder ""Mann"" in Japanisch und mitunter in Chinesisch geschrieben oder kombiniert wird. Ich empfinde diese Zeichen mehrheitlich positiv.
Ich habe zumindest im bewussten Nachdenken über die Bilder keinen Zusammenhang mit den Schriftzeichen festgestellt, dass es darauf Einfluss genommen hätte, wie ich die Zeichen empfinde.

Viel Erfolg!","0","1","0","null","","","<div class = 'row'><div class = 'column'><img src = 'category1/CS9.png' width = '70%;'></div><div class = 'column'><img src = 'uspos/2360.bmp' width = '100%;'></div></div>","null","pos","CS","CS","1","category1/CS9.png","","","","",""
"","html-keyboard-response","37","270947","0.0-6.0-2.0-0.10","4z87p5m8tu","many_one","0","direct_first","1","er06ar05","1","41","2","0","4","1","Silben, die als ""Westler"" geläufig sind, man leicht aussprechen kann, sind mir angenehmer. Xue, Zue, gou, zou, usw., die es in der deutschen/westlichen Aussprache so nicht gibt, sind unangenhemer als fan, gan, usw.
Ich kann etwa 10% der japanischen Kanji-Schriftzeichen, daher weiß ich zum Beispiel, wie ""Mensch"" oder ""Mann"" in Japanisch und mitunter in Chinesisch geschrieben oder kombiniert wird. Ich empfinde diese Zeichen mehrheitlich positiv.
Ich habe zumindest im bewussten Nachdenken über die Bilder keinen Zusammenhang mit den Schriftzeichen festgestellt, dass es darauf Einfluss genommen hätte, wie ich die Zeichen empfinde.

Viel Erfolg!","0","1","0","null","","","<div class = 'row'><div class = 'column'><img src = 'usneg/3300.bmp' width = '100%;'></div><div class = 'column'><img src = 'category3/CS10.png' width = '70%;'></div></div>","null","neg","CS","CS","3","category3/CS10.png","","","","",""
"","html-keyboard-response","38","273457","0.0-6.0-2.0-0.11","4z87p5m8tu","many_one","0","direct_first","1","er06ar05","1","41","2","0","4","1","Silben, die als ""Westler"" geläufig sind, man leicht aussprechen kann, sind mir angenehmer. Xue, Zue, gou, zou, usw., die es in der deutschen/westlichen Aussprache so nicht gibt, sind unangenhemer als fan, gan, usw.
Ich kann etwa 10% der japanischen Kanji-Schriftzeichen, daher weiß ich zum Beispiel, wie ""Mensch"" oder ""Mann"" in Japanisch und mitunter in Chinesisch geschrieben oder kombiniert wird. Ich empfinde diese Zeichen mehrheitlich positiv.
Ich habe zumindest im bewussten Nachdenken über die Bilder keinen Zusammenhang mit den Schriftzeichen festgestellt, dass es darauf Einfluss genommen hätte, wie ich die Zeichen empfinde.

Viel Erfolg!","0","1","0","null","","","<div class = 'row'><div class = 'column'><img src = 'uspos/2160.bmp' width = '100%;'></div><div class = 'column'><img src = 'category1/CS7.png' width = '70%;'></div></div>","null","pos","CS","CS","1","category1/CS7.png","","","","",""
"","html-keyboard-response","39","275964","0.0-6.0-2.0-0.12","4z87p5m8tu","many_one","0","direct_first","1","er06ar05","1","41","2","0","4","1","Silben, die als ""Westler"" geläufig sind, man leicht aussprechen kann, sind mir angenehmer. Xue, Zue, gou, zou, usw., die es in der deutschen/westlichen Aussprache so nicht gibt, sind unangenhemer als fan, gan, usw.
Ich kann etwa 10% der japanischen Kanji-Schriftzeichen, daher weiß ich zum Beispiel, wie ""Mensch"" oder ""Mann"" in Japanisch und mitunter in Chinesisch geschrieben oder kombiniert wird. Ich empfinde diese Zeichen mehrheitlich positiv.
Ich habe zumindest im bewussten Nachdenken über die Bilder keinen Zusammenhang mit den Schriftzeichen festgestellt, dass es darauf Einfluss genommen hätte, wie ich die Zeichen empfinde.

Viel Erfolg!","0","1","0","null","","","<div class = 'row'><div class = 'column'><img src = 'category3/CS9.png' width = '70%;'></div><div class = 'column'><img src = 'usneg/2141.bmp' width = '100%;'></div></div>","null","neg","CS","CS","3","category3/CS9.png","","","","",""
"","html-keyboard-response","40","278473","0.0-6.0-2.0-0.13","4z87p5m8tu","many_one","0","direct_first","1","er06ar05","1","41","2","0","4","1","Silben, die als ""Westler"" geläufig sind, man leicht aussprechen kann, sind mir angenehmer. Xue, Zue, gou, zou, usw., die es in der deutschen/westlichen Aussprache so nicht gibt, sind unangenhemer als fan, gan, usw.
Ich kann etwa 10% der japanischen Kanji-Schriftzeichen, daher weiß ich zum Beispiel, wie ""Mensch"" oder ""Mann"" in Japanisch und mitunter in Chinesisch geschrieben oder kombiniert wird. Ich empfinde diese Zeichen mehrheitlich positiv.
Ich habe zumindest im bewussten Nachdenken über die Bilder keinen Zusammenhang mit den Schriftzeichen festgestellt, dass es darauf Einfluss genommen hätte, wie ich die Zeichen empfinde.

Viel Erfolg!","0","1","0","null","","","<div class = 'row'><div class = 'column'><img src = 'category3/CS2.png' width = '70%;'></div><div class = 'column'><img src = 'usneg/9181.bmp' width = '100%;'></div></div>","null","neg","CS","CS","3","category3/CS2.png","","","","",""
"","html-keyboard-response","41","280977","0.0-6.0-2.0-0.14","4z87p5m8tu","many_one","0","direct_first","1","er06ar05","1","41","2","0","4","1","Silben, die als ""Westler"" geläufig sind, man leicht aussprechen kann, sind mir angenehmer. Xue, Zue, gou, zou, usw., die es in der deutschen/westlichen Aussprache so nicht gibt, sind unangenhemer als fan, gan, usw.
Ich kann etwa 10% der japanischen Kanji-Schriftzeichen, daher weiß ich zum Beispiel, wie ""Mensch"" oder ""Mann"" in Japanisch und mitunter in Chinesisch geschrieben oder kombiniert wird. Ich empfinde diese Zeichen mehrheitlich positiv.
Ich habe zumindest im bewussten Nachdenken über die Bilder keinen Zusammenhang mit den Schriftzeichen festgestellt, dass es darauf Einfluss genommen hätte, wie ich die Zeichen empfinde.

Viel Erfolg!","0","1","0","null","","","<div class = 'row'><div class = 'column'><img src = 'uspos/2208.bmp' width = '100%;'></div><div class = 'column'><img src = 'category2/CS8.png' width = '70%;'></div></div>","null","pos","CS","CS","2","category2/CS8.png","","","","",""
"","html-keyboard-response","42","283485","0.0-6.0-2.0-0.15","4z87p5m8tu","many_one","0","direct_first","1","er06ar05","1","41","2","0","4","1","Silben, die als ""Westler"" geläufig sind, man leicht aussprechen kann, sind mir angenehmer. Xue, Zue, gou, zou, usw., die es in der deutschen/westlichen Aussprache so nicht gibt, sind unangenhemer als fan, gan, usw.
Ich kann etwa 10% der japanischen Kanji-Schriftzeichen, daher weiß ich zum Beispiel, wie ""Mensch"" oder ""Mann"" in Japanisch und mitunter in Chinesisch geschrieben oder kombiniert wird. Ich empfinde diese Zeichen mehrheitlich positiv.
Ich habe zumindest im bewussten Nachdenken über die Bilder keinen Zusammenhang mit den Schriftzeichen festgestellt, dass es darauf Einfluss genommen hätte, wie ich die Zeichen empfinde.

Viel Erfolg!","0","1","0","null","","","<div class = 'row'><div class = 'column'><img src = 'uspos/1710.bmp' width = '100%;'></div><div class = 'column'><img src = 'category1/CS4.png' width = '70%;'></div></div>","null","pos","CS","CS","1","category1/CS4.png","","","","",""
"","html-keyboard-response","43","285993","0.0-6.0-2.0-0.16","4z87p5m8tu","many_one","0","direct_first","1","er06ar05","1","41","2","0","4","1","Silben, die als ""Westler"" geläufig sind, man leicht aussprechen kann, sind mir angenehmer. Xue, Zue, gou, zou, usw., die es in der deutschen/westlichen Aussprache so nicht gibt, sind unangenhemer als fan, gan, usw.
Ich kann etwa 10% der japanischen Kanji-Schriftzeichen, daher weiß ich zum Beispiel, wie ""Mensch"" oder ""Mann"" in Japanisch und mitunter in Chinesisch geschrieben oder kombiniert wird. Ich empfinde diese Zeichen mehrheitlich positiv.
Ich habe zumindest im bewussten Nachdenken über die Bilder keinen Zusammenhang mit den Schriftzeichen festgestellt, dass es darauf Einfluss genommen hätte, wie ich die Zeichen empfinde.

Viel Erfolg!","0","1","0","null","","","<div class = 'row'><div class = 'column'><img src = 'category2/CS10.png' width = '70%;'></div><div class = 'column'><img src = 'uspos/2530.bmp' width = '100%;'></div></div>","null","pos","CS","CS","2","category2/CS10.png","","","","",""
"","html-keyboard-response","44","288502","0.0-6.0-2.0-0.17","4z87p5m8tu","many_one","0","direct_first","1","er06ar05","1","41","2","0","4","1","Silben, die als ""Westler"" geläufig sind, man leicht aussprechen kann, sind mir angenehmer. Xue, Zue, gou, zou, usw., die es in der deutschen/westlichen Aussprache so nicht gibt, sind unangenhemer als fan, gan, usw.
Ich kann etwa 10% der japanischen Kanji-Schriftzeichen, daher weiß ich zum Beispiel, wie ""Mensch"" oder ""Mann"" in Japanisch und mitunter in Chinesisch geschrieben oder kombiniert wird. Ich empfinde diese Zeichen mehrheitlich positiv.
Ich habe zumindest im bewussten Nachdenken über die Bilder keinen Zusammenhang mit den Schriftzeichen festgestellt, dass es darauf Einfluss genommen hätte, wie ich die Zeichen empfinde.

Viel Erfolg!","0","1","0","null","","","<div class = 'row'><div class = 'column'><img src = 'category4/CS7.png' width = '70%;'></div><div class = 'column'><img src = 'usneg/9561.bmp' width = '100%;'></div></div>","null","neg","CS","CS","4","category4/CS7.png","","","","",""
"","html-keyboard-response","45","291012","0.0-6.0-2.0-0.18","4z87p5m8tu","many_one","0","direct_first","1","er06ar05","1","41","2","0","4","1","Silben, die als ""Westler"" geläufig sind, man leicht aussprechen kann, sind mir angenehmer. Xue, Zue, gou, zou, usw., die es in der deutschen/westlichen Aussprache so nicht gibt, sind unangenhemer als fan, gan, usw.
Ich kann etwa 10% der japanischen Kanji-Schriftzeichen, daher weiß ich zum Beispiel, wie ""Mensch"" oder ""Mann"" in Japanisch und mitunter in Chinesisch geschrieben oder kombiniert wird. Ich empfinde diese Zeichen mehrheitlich positiv.
Ich habe zumindest im bewussten Nachdenken über die Bilder keinen Zusammenhang mit den Schriftzeichen festgestellt, dass es darauf Einfluss genommen hätte, wie ich die Zeichen empfinde.

Viel Erfolg!","0","1","0","null","","","<div class = 'row'><div class = 'column'><img src = 'category4/CS6.png' width = '70%;'></div><div class = 'column'><img src = 'usneg/9182.bmp' width = '100%;'></div></div>","null","neg","CS","CS","4","category4/CS6.png","","","","",""
"","html-keyboard-response","46","293521","0.0-6.0-2.0-0.19","4z87p5m8tu","many_one","0","direct_first","1","er06ar05","1","41","2","0","4","1","Silben, die als ""Westler"" geläufig sind, man leicht aussprechen kann, sind mir angenehmer. Xue, Zue, gou, zou, usw., die es in der deutschen/westlichen Aussprache so nicht gibt, sind unangenhemer als fan, gan, usw.
Ich kann etwa 10% der japanischen Kanji-Schriftzeichen, daher weiß ich zum Beispiel, wie ""Mensch"" oder ""Mann"" in Japanisch und mitunter in Chinesisch geschrieben oder kombiniert wird. Ich empfinde diese Zeichen mehrheitlich positiv.
Ich habe zumindest im bewussten Nachdenken über die Bilder keinen Zusammenhang mit den Schriftzeichen festgestellt, dass es darauf Einfluss genommen hätte, wie ich die Zeichen empfinde.

Viel Erfolg!","0","1","0","null","","","<div class = 'row'><div class = 'column'><img src = 'category1/CS1.png' width = '70%;'></div><div class = 'column'><img src = 'uspos/2340.bmp' width = '100%;'></div></div>","null","pos","CS","CS","1","category1/CS1.png","","","","",""
"","survey-html-form","47","300158","0.0-6.0-3.0","4z87p5m8tu","many_one","0","direct_first","1","er06ar05","1","41","2","0","4","1","Silben, die als ""Westler"" geläufig sind, man leicht aussprechen kann, sind mir angenehmer. Xue, Zue, gou, zou, usw., die es in der deutschen/westlichen Aussprache so nicht gibt, sind unangenhemer als fan, gan, usw.
Ich kann etwa 10% der japanischen Kanji-Schriftzeichen, daher weiß ich zum Beispiel, wie ""Mensch"" oder ""Mann"" in Japanisch und mitunter in Chinesisch geschrieben oder kombiniert wird. Ich empfinde diese Zeichen mehrheitlich positiv.
Ich habe zumindest im bewussten Nachdenken über die Bilder keinen Zusammenhang mit den Schriftzeichen festgestellt, dass es darauf Einfluss genommen hätte, wie ich die Zeichen empfinde.

Viel Erfolg!","0","1","0","6130.300000000745","","{}","","","","","","","","","","","",""
"","html-keyboard-response","48","304165","0.0-6.0-4.0-0.0","4z87p5m8tu","many_one","0","direct_first","1","er06ar05","1","41","2","0","4","1","Silben, die als ""Westler"" geläufig sind, man leicht aussprechen kann, sind mir angenehmer. Xue, Zue, gou, zou, usw., die es in der deutschen/westlichen Aussprache so nicht gibt, sind unangenhemer als fan, gan, usw.
Ich kann etwa 10% der japanischen Kanji-Schriftzeichen, daher weiß ich zum Beispiel, wie ""Mensch"" oder ""Mann"" in Japanisch und mitunter in Chinesisch geschrieben oder kombiniert wird. Ich empfinde diese Zeichen mehrheitlich positiv.
Ich habe zumindest im bewussten Nachdenken über die Bilder keinen Zusammenhang mit den Schriftzeichen festgestellt, dass es darauf Einfluss genommen hätte, wie ich die Zeichen empfinde.

Viel Erfolg!","0","1","0","null","","","<div class = 'row'><div class = 'column'><img src = 'usneg/2141.bmp' width = '100%;'></div><div class = 'column'><img src = 'category3/CS9.png' width = '70%;'></div></div>","null","neg","CS","CS","3","category3/CS9.png","","","","",""
"","html-keyboard-response","49","306676","0.0-6.0-4.0-0.1","4z87p5m8tu","many_one","0","direct_first","1","er06ar05","1","41","2","0","4","1","Silben, die als ""Westler"" geläufig sind, man leicht aussprechen kann, sind mir angenehmer. Xue, Zue, gou, zou, usw., die es in der deutschen/westlichen Aussprache so nicht gibt, sind unangenhemer als fan, gan, usw.
Ich kann etwa 10% der japanischen Kanji-Schriftzeichen, daher weiß ich zum Beispiel, wie ""Mensch"" oder ""Mann"" in Japanisch und mitunter in Chinesisch geschrieben oder kombiniert wird. Ich empfinde diese Zeichen mehrheitlich positiv.
Ich habe zumindest im bewussten Nachdenken über die Bilder keinen Zusammenhang mit den Schriftzeichen festgestellt, dass es darauf Einfluss genommen hätte, wie ich die Zeichen empfinde.

Viel Erfolg!","0","1","0","null","","","<div class = 'row'><div class = 'column'><img src = 'uspos/2160.bmp' width = '100%;'></div><div class = 'column'><img src = 'category1/CS7.png' width = '70%;'></div></div>","null","pos","CS","CS","1","category1/CS7.png","","","","",""
"","html-keyboard-response","50","309187","0.0-6.0-4.0-0.2","4z87p5m8tu","many_one","0","direct_first","1","er06ar05","1","41","2","0","4","1","Silben, die als ""Westler"" geläufig sind, man leicht aussprechen kann, sind mir angenehmer. Xue, Zue, gou, zou, usw., die es in der deutschen/westlichen Aussprache so nicht gibt, sind unangenhemer als fan, gan, usw.
Ich kann etwa 10% der japanischen Kanji-Schriftzeichen, daher weiß ich zum Beispiel, wie ""Mensch"" oder ""Mann"" in Japanisch und mitunter in Chinesisch geschrieben oder kombiniert wird. Ich empfinde diese Zeichen mehrheitlich positiv.
Ich habe zumindest im bewussten Nachdenken über die Bilder keinen Zusammenhang mit den Schriftzeichen festgestellt, dass es darauf Einfluss genommen hätte, wie ich die Zeichen empfinde.

Viel Erfolg!","0","1","0","null","","","<div class = 'row'><div class = 'column'><img src = 'usneg/9561.bmp' width = '100%;'></div><div class = 'column'><img src = 'category4/CS7.png' width = '70%;'></div></div>","null","neg","CS","CS","4","category4/CS7.png","","","","",""
"","html-keyboard-response","51","311698","0.0-6.0-4.0-0.3","4z87p5m8tu","many_one","0","direct_first","1","er06ar05","1","41","2","0","4","1","Silben, die als ""Westler"" geläufig sind, man leicht aussprechen kann, sind mir angenehmer. Xue, Zue, gou, zou, usw., die es in der deutschen/westlichen Aussprache so nicht gibt, sind unangenhemer als fan, gan, usw.
Ich kann etwa 10% der japanischen Kanji-Schriftzeichen, daher weiß ich zum Beispiel, wie ""Mensch"" oder ""Mann"" in Japanisch und mitunter in Chinesisch geschrieben oder kombiniert wird. Ich empfinde diese Zeichen mehrheitlich positiv.
Ich habe zumindest im bewussten Nachdenken über die Bilder keinen Zusammenhang mit den Schriftzeichen festgestellt, dass es darauf Einfluss genommen hätte, wie ich die Zeichen empfinde.

Viel Erfolg!","0","1","0","null","","","<div class = 'row'><div class = 'column'><img src = 'category3/CS2.png' width = '70%;'></div><div class = 'column'><img src = 'usneg/9181.bmp' width = '100%;'></div></div>","null","neg","CS","CS","3","category3/CS2.png","","","","",""
"","html-keyboard-response","52","314204","0.0-6.0-4.0-0.4","4z87p5m8tu","many_one","0","direct_first","1","er06ar05","1","41","2","0","4","1","Silben, die als ""Westler"" geläufig sind, man leicht aussprechen kann, sind mir angenehmer. Xue, Zue, gou, zou, usw., die es in der deutschen/westlichen Aussprache so nicht gibt, sind unangenhemer als fan, gan, usw.
Ich kann etwa 10% der japanischen Kanji-Schriftzeichen, daher weiß ich zum Beispiel, wie ""Mensch"" oder ""Mann"" in Japanisch und mitunter in Chinesisch geschrieben oder kombiniert wird. Ich empfinde diese Zeichen mehrheitlich positiv.
Ich habe zumindest im bewussten Nachdenken über die Bilder keinen Zusammenhang mit den Schriftzeichen festgestellt, dass es darauf Einfluss genommen hätte, wie ich die Zeichen empfinde.

Viel Erfolg!","0","1","0","null","","","<div class = 'row'><div class = 'column'><img src = 'usneg/9920.bmp' width = '100%;'></div><div class = 'column'><img src = 'category4/CS4.png' width = '70%;'></div></div>","null","neg","CS","CS","4","category4/CS4.png","","","","",""
"","html-keyboard-response","53","316712","0.0-6.0-4.0-0.5","4z87p5m8tu","many_one","0","direct_first","1","er06ar05","1","41","2","0","4","1","Silben, die als ""Westler"" geläufig sind, man leicht aussprechen kann, sind mir angenehmer. Xue, Zue, gou, zou, usw., die es in der deutschen/westlichen Aussprache so nicht gibt, sind unangenhemer als fan, gan, usw.
Ich kann etwa 10% der japanischen Kanji-Schriftzeichen, daher weiß ich zum Beispiel, wie ""Mensch"" oder ""Mann"" in Japanisch und mitunter in Chinesisch geschrieben oder kombiniert wird. Ich empfinde diese Zeichen mehrheitlich positiv.
Ich habe zumindest im bewussten Nachdenken über die Bilder keinen Zusammenhang mit den Schriftzeichen festgestellt, dass es darauf Einfluss genommen hätte, wie ich die Zeichen empfinde.

Viel Erfolg!","0","1","0","null","","","<div class = 'row'><div class = 'column'><img src = 'usneg/9182.bmp' width = '100%;'></div><div class = 'column'><img src = 'category4/CS6.png' width = '70%;'></div></div>","null","neg","CS","CS","4","category4/CS6.png","","","","",""
"","html-keyboard-response","54","319221","0.0-6.0-4.0-0.6","4z87p5m8tu","many_one","0","direct_first","1","er06ar05","1","41","2","0","4","1","Silben, die als ""Westler"" geläufig sind, man leicht aussprechen kann, sind mir angenehmer. Xue, Zue, gou, zou, usw., die es in der deutschen/westlichen Aussprache so nicht gibt, sind unangenhemer als fan, gan, usw.
Ich kann etwa 10% der japanischen Kanji-Schriftzeichen, daher weiß ich zum Beispiel, wie ""Mensch"" oder ""Mann"" in Japanisch und mitunter in Chinesisch geschrieben oder kombiniert wird. Ich empfinde diese Zeichen mehrheitlich positiv.
Ich habe zumindest im bewussten Nachdenken über die Bilder keinen Zusammenhang mit den Schriftzeichen festgestellt, dass es darauf Einfluss genommen hätte, wie ich die Zeichen empfinde.

Viel Erfolg!","0","1","0","null","","","<div class = 'row'><div class = 'column'><img src = 'uspos/2208.bmp' width = '100%;'></div><div class = 'column'><img src = 'category2/CS8.png' width = '70%;'></div></div>","null","pos","CS","CS","2","category2/CS8.png","","","","",""
"","html-keyboard-response","55","321728","0.0-6.0-4.0-0.7","4z87p5m8tu","many_one","0","direct_first","1","er06ar05","1","41","2","0","4","1","Silben, die als ""Westler"" geläufig sind, man leicht aussprechen kann, sind mir angenehmer. Xue, Zue, gou, zou, usw., die es in der deutschen/westlichen Aussprache so nicht gibt, sind unangenhemer als fan, gan, usw.
Ich kann etwa 10% der japanischen Kanji-Schriftzeichen, daher weiß ich zum Beispiel, wie ""Mensch"" oder ""Mann"" in Japanisch und mitunter in Chinesisch geschrieben oder kombiniert wird. Ich empfinde diese Zeichen mehrheitlich positiv.
Ich habe zumindest im bewussten Nachdenken über die Bilder keinen Zusammenhang mit den Schriftzeichen festgestellt, dass es darauf Einfluss genommen hätte, wie ich die Zeichen empfinde.

Viel Erfolg!","0","1","0","null","","","<div class = 'row'><div class = 'column'><img src = 'category1/CS9.png' width = '70%;'></div><div class = 'column'><img src = 'uspos/2360.bmp' width = '100%;'></div></div>","null","pos","CS","CS","1","category1/CS9.png","","","","",""
"","html-keyboard-response","56","324234","0.0-6.0-4.0-0.8","4z87p5m8tu","many_one","0","direct_first","1","er06ar05","1","41","2","0","4","1","Silben, die als ""Westler"" geläufig sind, man leicht aussprechen kann, sind mir angenehmer. Xue, Zue, gou, zou, usw., die es in der deutschen/westlichen Aussprache so nicht gibt, sind unangenhemer als fan, gan, usw.
Ich kann etwa 10% der japanischen Kanji-Schriftzeichen, daher weiß ich zum Beispiel, wie ""Mensch"" oder ""Mann"" in Japanisch und mitunter in Chinesisch geschrieben oder kombiniert wird. Ich empfinde diese Zeichen mehrheitlich positiv.
Ich habe zumindest im bewussten Nachdenken über die Bilder keinen Zusammenhang mit den Schriftzeichen festgestellt, dass es darauf Einfluss genommen hätte, wie ich die Zeichen empfinde.

Viel Erfolg!","0","1","0","null","","","<div class = 'row'><div class = 'column'><img src = 'uspos/2340.bmp' width = '100%;'></div><div class = 'column'><img src = 'category1/CS1.png' width = '70%;'></div></div>","null","pos","CS","CS","1","category1/CS1.png","","","","",""
"","html-keyboard-response","57","326742","0.0-6.0-4.0-0.9","4z87p5m8tu","many_one","0","direct_first","1","er06ar05","1","41","2","0","4","1","Silben, die als ""Westler"" geläufig sind, man leicht aussprechen kann, sind mir angenehmer. Xue, Zue, gou, zou, usw., die es in der deutschen/westlichen Aussprache so nicht gibt, sind unangenhemer als fan, gan, usw.
Ich kann etwa 10% der japanischen Kanji-Schriftzeichen, daher weiß ich zum Beispiel, wie ""Mensch"" oder ""Mann"" in Japanisch und mitunter in Chinesisch geschrieben oder kombiniert wird. Ich empfinde diese Zeichen mehrheitlich positiv.
Ich habe zumindest im bewussten Nachdenken über die Bilder keinen Zusammenhang mit den Schriftzeichen festgestellt, dass es darauf Einfluss genommen hätte, wie ich die Zeichen empfinde.

Viel Erfolg!","0","1","0","null","","","<div class = 'row'><div class = 'column'><img src = 'category4/CS3.png' width = '70%;'></div><div class = 'column'><img src = 'usneg/8485.bmp' width = '100%;'></div></div>","null","neg","CS","CS","4","category4/CS3.png","","","","",""
"","html-keyboard-response","58","329250","0.0-6.0-4.0-0.10","4z87p5m8tu","many_one","0","direct_first","1","er06ar05","1","41","2","0","4","1","Silben, die als ""Westler"" geläufig sind, man leicht aussprechen kann, sind mir angenehmer. Xue, Zue, gou, zou, usw., die es in der deutschen/westlichen Aussprache so nicht gibt, sind unangenhemer als fan, gan, usw.
Ich kann etwa 10% der japanischen Kanji-Schriftzeichen, daher weiß ich zum Beispiel, wie ""Mensch"" oder ""Mann"" in Japanisch und mitunter in Chinesisch geschrieben oder kombiniert wird. Ich empfinde diese Zeichen mehrheitlich positiv.
Ich habe zumindest im bewussten Nachdenken über die Bilder keinen Zusammenhang mit den Schriftzeichen festgestellt, dass es darauf Einfluss genommen hätte, wie ich die Zeichen empfinde.

Viel Erfolg!","0","1","0","null","","","<div class = 'row'><div class = 'column'><img src = 'category2/CS5.png' width = '70%;'></div><div class = 'column'><img src = 'uspos/5830.bmp' width = '100%;'></div></div>","null","pos","CS","CS","2","category2/CS5.png","","","","",""
"","html-keyboard-response","59","331756","0.0-6.0-4.0-0.11","4z87p5m8tu","many_one","0","direct_first","1","er06ar05","1","41","2","0","4","1","Silben, die als ""Westler"" geläufig sind, man leicht aussprechen kann, sind mir angenehmer. Xue, Zue, gou, zou, usw., die es in der deutschen/westlichen Aussprache so nicht gibt, sind unangenhemer als fan, gan, usw.
Ich kann etwa 10% der japanischen Kanji-Schriftzeichen, daher weiß ich zum Beispiel, wie ""Mensch"" oder ""Mann"" in Japanisch und mitunter in Chinesisch geschrieben oder kombiniert wird. Ich empfinde diese Zeichen mehrheitlich positiv.
Ich habe zumindest im bewussten Nachdenken über die Bilder keinen Zusammenhang mit den Schriftzeichen festgestellt, dass es darauf Einfluss genommen hätte, wie ich die Zeichen empfinde.

Viel Erfolg!","0","1","0","null","","","<div class = 'row'><div class = 'column'><img src = 'category1/CS4.png' width = '70%;'></div><div class = 'column'><img src = 'uspos/1710.bmp' width = '100%;'></div></div>","null","pos","CS","CS","1","category1/CS4.png","","","","",""
"","html-keyboard-response","60","334263","0.0-6.0-4.0-0.12","4z87p5m8tu","many_one","0","direct_first","1","er06ar05","1","41","2","0","4","1","Silben, die als ""Westler"" geläufig sind, man leicht aussprechen kann, sind mir angenehmer. Xue, Zue, gou, zou, usw., die es in der deutschen/westlichen Aussprache so nicht gibt, sind unangenhemer als fan, gan, usw.
Ich kann etwa 10% der japanischen Kanji-Schriftzeichen, daher weiß ich zum Beispiel, wie ""Mensch"" oder ""Mann"" in Japanisch und mitunter in Chinesisch geschrieben oder kombiniert wird. Ich empfinde diese Zeichen mehrheitlich positiv.
Ich habe zumindest im bewussten Nachdenken über die Bilder keinen Zusammenhang mit den Schriftzeichen festgestellt, dass es darauf Einfluss genommen hätte, wie ich die Zeichen empfinde.

Viel Erfolg!","0","1","0","null","","","<div class = 'row'><div class = 'column'><img src = 'uspos/8461.bmp' width = '100%;'></div><div class = 'column'><img src = 'category1/CS6.png' width = '70%;'></div></div>","null","pos","CS","CS","1","category1/CS6.png","","","","",""
"","html-keyboard-response","61","336773","0.0-6.0-4.0-0.13","4z87p5m8tu","many_one","0","direct_first","1","er06ar05","1","41","2","0","4","1","Silben, die als ""Westler"" geläufig sind, man leicht aussprechen kann, sind mir angenehmer. Xue, Zue, gou, zou, usw., die es in der deutschen/westlichen Aussprache so nicht gibt, sind unangenhemer als fan, gan, usw.
Ich kann etwa 10% der japanischen Kanji-Schriftzeichen, daher weiß ich zum Beispiel, wie ""Mensch"" oder ""Mann"" in Japanisch und mitunter in Chinesisch geschrieben oder kombiniert wird. Ich empfinde diese Zeichen mehrheitlich positiv.
Ich habe zumindest im bewussten Nachdenken über die Bilder keinen Zusammenhang mit den Schriftzeichen festgestellt, dass es darauf Einfluss genommen hätte, wie ich die Zeichen empfinde.

Viel Erfolg!","0","1","0","null","","","<div class = 'row'><div class = 'column'><img src = 'category2/CS10.png' width = '70%;'></div><div class = 'column'><img src = 'uspos/2530.bmp' width = '100%;'></div></div>","null","pos","CS","CS","2","category2/CS10.png","","","","",""
"","html-keyboard-response","62","339284","0.0-6.0-4.0-0.14","4z87p5m8tu","many_one","0","direct_first","1","er06ar05","1","41","2","0","4","1","Silben, die als ""Westler"" geläufig sind, man leicht aussprechen kann, sind mir angenehmer. Xue, Zue, gou, zou, usw., die es in der deutschen/westlichen Aussprache so nicht gibt, sind unangenhemer als fan, gan, usw.
Ich kann etwa 10% der japanischen Kanji-Schriftzeichen, daher weiß ich zum Beispiel, wie ""Mensch"" oder ""Mann"" in Japanisch und mitunter in Chinesisch geschrieben oder kombiniert wird. Ich empfinde diese Zeichen mehrheitlich positiv.
Ich habe zumindest im bewussten Nachdenken über die Bilder keinen Zusammenhang mit den Schriftzeichen festgestellt, dass es darauf Einfluss genommen hätte, wie ich die Zeichen empfinde.

Viel Erfolg!","0","1","0","null","","","<div class = 'row'><div class = 'column'><img src = 'usneg/9000.bmp' width = '100%;'></div><div class = 'column'><img src = 'category3/CS1.png' width = '70%;'></div></div>","null","neg","CS","CS","3","category3/CS1.png","","","","",""
"","html-keyboard-response","63","341793","0.0-6.0-4.0-0.15","4z87p5m8tu","many_one","0","direct_first","1","er06ar05","1","41","2","0","4","1","Silben, die als ""Westler"" geläufig sind, man leicht aussprechen kann, sind mir angenehmer. Xue, Zue, gou, zou, usw., die es in der deutschen/westlichen Aussprache so nicht gibt, sind unangenhemer als fan, gan, usw.
Ich kann etwa 10% der japanischen Kanji-Schriftzeichen, daher weiß ich zum Beispiel, wie ""Mensch"" oder ""Mann"" in Japanisch und mitunter in Chinesisch geschrieben oder kombiniert wird. Ich empfinde diese Zeichen mehrheitlich positiv.
Ich habe zumindest im bewussten Nachdenken über die Bilder keinen Zusammenhang mit den Schriftzeichen festgestellt, dass es darauf Einfluss genommen hätte, wie ich die Zeichen empfinde.

Viel Erfolg!","0","1","0","null","","","<div class = 'row'><div class = 'column'><img src = 'uspos/8080.bmp' width = '100%;'></div><div class = 'column'><img src = 'category2/CS6.png' width = '70%;'></div></div>","null","pos","CS","CS","2","category2/CS6.png","","","","",""
"","html-keyboard-response","64","344302","0.0-6.0-4.0-0.16","4z87p5m8tu","many_one","0","direct_first","1","er06ar05","1","41","2","0","4","1","Silben, die als ""Westler"" geläufig sind, man leicht aussprechen kann, sind mir angenehmer. Xue, Zue, gou, zou, usw., die es in der deutschen/westlichen Aussprache so nicht gibt, sind unangenhemer als fan, gan, usw.
Ich kann etwa 10% der japanischen Kanji-Schriftzeichen, daher weiß ich zum Beispiel, wie ""Mensch"" oder ""Mann"" in Japanisch und mitunter in Chinesisch geschrieben oder kombiniert wird. Ich empfinde diese Zeichen mehrheitlich positiv.
Ich habe zumindest im bewussten Nachdenken über die Bilder keinen Zusammenhang mit den Schriftzeichen festgestellt, dass es darauf Einfluss genommen hätte, wie ich die Zeichen empfinde.

Viel Erfolg!","0","1","0","null","","","<div class = 'row'><div class = 'column'><img src = 'category3/CS8.png' width = '70%;'></div><div class = 'column'><img src = 'usneg/2750.bmp' width = '100%;'></div></div>","null","neg","CS","CS","3","category3/CS8.png","","","","",""
"","html-keyboard-response","65","346809","0.0-6.0-4.0-0.17","4z87p5m8tu","many_one","0","direct_first","1","er06ar05","1","41","2","0","4","1","Silben, die als ""Westler"" geläufig sind, man leicht aussprechen kann, sind mir angenehmer. Xue, Zue, gou, zou, usw., die es in der deutschen/westlichen Aussprache so nicht gibt, sind unangenhemer als fan, gan, usw.
Ich kann etwa 10% der japanischen Kanji-Schriftzeichen, daher weiß ich zum Beispiel, wie ""Mensch"" oder ""Mann"" in Japanisch und mitunter in Chinesisch geschrieben oder kombiniert wird. Ich empfinde diese Zeichen mehrheitlich positiv.
Ich habe zumindest im bewussten Nachdenken über die Bilder keinen Zusammenhang mit den Schriftzeichen festgestellt, dass es darauf Einfluss genommen hätte, wie ich die Zeichen empfinde.

Viel Erfolg!","0","1","0","null","","","<div class = 'row'><div class = 'column'><img src = 'category2/CS9.png' width = '70%;'></div><div class = 'column'><img src = 'uspos/2341.bmp' width = '100%;'></div></div>","null","pos","CS","CS","2","category2/CS9.png","","","","",""
"","html-keyboard-response","66","349318","0.0-6.0-4.0-0.18","4z87p5m8tu","many_one","0","direct_first","1","er06ar05","1","41","2","0","4","1","Silben, die als ""Westler"" geläufig sind, man leicht aussprechen kann, sind mir angenehmer. Xue, Zue, gou, zou, usw., die es in der deutschen/westlichen Aussprache so nicht gibt, sind unangenhemer als fan, gan, usw.
Ich kann etwa 10% der japanischen Kanji-Schriftzeichen, daher weiß ich zum Beispiel, wie ""Mensch"" oder ""Mann"" in Japanisch und mitunter in Chinesisch geschrieben oder kombiniert wird. Ich empfinde diese Zeichen mehrheitlich positiv.
Ich habe zumindest im bewussten Nachdenken über die Bilder keinen Zusammenhang mit den Schriftzeichen festgestellt, dass es darauf Einfluss genommen hätte, wie ich die Zeichen empfinde.

Viel Erfolg!","0","1","0","null","","","<div class = 'row'><div class = 'column'><img src = 'category3/CS10.png' width = '70%;'></div><div class = 'column'><img src = 'usneg/3300.bmp' width = '100%;'></div></div>","null","neg","CS","CS","3","category3/CS10.png","","","","",""
"","html-keyboard-response","67","351828","0.0-6.0-4.0-0.19","4z87p5m8tu","many_one","0","direct_first","1","er06ar05","1","41","2","0","4","1","Silben, die als ""Westler"" geläufig sind, man leicht aussprechen kann, sind mir angenehmer. Xue, Zue, gou, zou, usw., die es in der deutschen/westlichen Aussprache so nicht gibt, sind unangenhemer als fan, gan, usw.
Ich kann etwa 10% der japanischen Kanji-Schriftzeichen, daher weiß ich zum Beispiel, wie ""Mensch"" oder ""Mann"" in Japanisch und mitunter in Chinesisch geschrieben oder kombiniert wird. Ich empfinde diese Zeichen mehrheitlich positiv.
Ich habe zumindest im bewussten Nachdenken über die Bilder keinen Zusammenhang mit den Schriftzeichen festgestellt, dass es darauf Einfluss genommen hätte, wie ich die Zeichen empfinde.

Viel Erfolg!","0","1","0","null","","","<div class = 'row'><div class = 'column'><img src = 'category4/CS1.png' width = '70%;'></div><div class = 'column'><img src = 'usneg/9435.bmp' width = '100%;'></div></div>","null","neg","CS","CS","4","category4/CS1.png","","","","",""
"","survey-html-form","68","356663","0.0-6.0-5.0","4z87p5m8tu","many_one","0","direct_first","1","er06ar05","1","41","2","0","4","1","Silben, die als ""Westler"" geläufig sind, man leicht aussprechen kann, sind mir angenehmer. Xue, Zue, gou, zou, usw., die es in der deutschen/westlichen Aussprache so nicht gibt, sind unangenhemer als fan, gan, usw.
Ich kann etwa 10% der japanischen Kanji-Schriftzeichen, daher weiß ich zum Beispiel, wie ""Mensch"" oder ""Mann"" in Japanisch und mitunter in Chinesisch geschrieben oder kombiniert wird. Ich empfinde diese Zeichen mehrheitlich positiv.
Ich habe zumindest im bewussten Nachdenken über die Bilder keinen Zusammenhang mit den Schriftzeichen festgestellt, dass es darauf Einfluss genommen hätte, wie ich die Zeichen empfinde.

Viel Erfolg!","0","1","0","4329.724999999569","","{}","","","","","","","","","","","",""
"","html-keyboard-response","69","360671","0.0-6.0-6.0-0.0","4z87p5m8tu","many_one","0","direct_first","1","er06ar05","1","41","2","0","4","1","Silben, die als ""Westler"" geläufig sind, man leicht aussprechen kann, sind mir angenehmer. Xue, Zue, gou, zou, usw., die es in der deutschen/westlichen Aussprache so nicht gibt, sind unangenhemer als fan, gan, usw.
Ich kann etwa 10% der japanischen Kanji-Schriftzeichen, daher weiß ich zum Beispiel, wie ""Mensch"" oder ""Mann"" in Japanisch und mitunter in Chinesisch geschrieben oder kombiniert wird. Ich empfinde diese Zeichen mehrheitlich positiv.
Ich habe zumindest im bewussten Nachdenken über die Bilder keinen Zusammenhang mit den Schriftzeichen festgestellt, dass es darauf Einfluss genommen hätte, wie ich die Zeichen empfinde.

Viel Erfolg!","0","1","0","null","","","<div class = 'row'><div class = 'column'><img src = 'usneg/8485.bmp' width = '100%;'></div><div class = 'column'><img src = 'category4/CS3.png' width = '70%;'></div></div>","null","neg","CS","CS","4","category4/CS3.png","","","","",""
"","html-keyboard-response","70","363174","0.0-6.0-6.0-0.1","4z87p5m8tu","many_one","0","direct_first","1","er06ar05","1","41","2","0","4","1","Silben, die als ""Westler"" geläufig sind, man leicht aussprechen kann, sind mir angenehmer. Xue, Zue, gou, zou, usw., die es in der deutschen/westlichen Aussprache so nicht gibt, sind unangenhemer als fan, gan, usw.
Ich kann etwa 10% der japanischen Kanji-Schriftzeichen, daher weiß ich zum Beispiel, wie ""Mensch"" oder ""Mann"" in Japanisch und mitunter in Chinesisch geschrieben oder kombiniert wird. Ich empfinde diese Zeichen mehrheitlich positiv.
Ich habe zumindest im bewussten Nachdenken über die Bilder keinen Zusammenhang mit den Schriftzeichen festgestellt, dass es darauf Einfluss genommen hätte, wie ich die Zeichen empfinde.

Viel Erfolg!","0","1","0","null","","","<div class = 'row'><div class = 'column'><img src = 'category1/CS7.png' width = '70%;'></div><div class = 'column'><img src = 'uspos/2160.bmp' width = '100%;'></div></div>","null","pos","CS","CS","1","category1/CS7.png","","","","",""
"","html-keyboard-response","71","365684","0.0-6.0-6.0-0.2","4z87p5m8tu","many_one","0","direct_first","1","er06ar05","1","41","2","0","4","1","Silben, die als ""Westler"" geläufig sind, man leicht aussprechen kann, sind mir angenehmer. Xue, Zue, gou, zou, usw., die es in der deutschen/westlichen Aussprache so nicht gibt, sind unangenhemer als fan, gan, usw.
Ich kann etwa 10% der japanischen Kanji-Schriftzeichen, daher weiß ich zum Beispiel, wie ""Mensch"" oder ""Mann"" in Japanisch und mitunter in Chinesisch geschrieben oder kombiniert wird. Ich empfinde diese Zeichen mehrheitlich positiv.
Ich habe zumindest im bewussten Nachdenken über die Bilder keinen Zusammenhang mit den Schriftzeichen festgestellt, dass es darauf Einfluss genommen hätte, wie ich die Zeichen empfinde.

Viel Erfolg!","0","1","0","null","","","<div class = 'row'><div class = 'column'><img src = 'category1/CS4.png' width = '70%;'></div><div class = 'column'><img src = 'uspos/1710.bmp' width = '100%;'></div></div>","null","pos","CS","CS","1","category1/CS4.png","","","","",""
"","html-keyboard-response","72","368190","0.0-6.0-6.0-0.3","4z87p5m8tu","many_one","0","direct_first","1","er06ar05","1","41","2","0","4","1","Silben, die als ""Westler"" geläufig sind, man leicht aussprechen kann, sind mir angenehmer. Xue, Zue, gou, zou, usw., die es in der deutschen/westlichen Aussprache so nicht gibt, sind unangenhemer als fan, gan, usw.
Ich kann etwa 10% der japanischen Kanji-Schriftzeichen, daher weiß ich zum Beispiel, wie ""Mensch"" oder ""Mann"" in Japanisch und mitunter in Chinesisch geschrieben oder kombiniert wird. Ich empfinde diese Zeichen mehrheitlich positiv.
Ich habe zumindest im bewussten Nachdenken über die Bilder keinen Zusammenhang mit den Schriftzeichen festgestellt, dass es darauf Einfluss genommen hätte, wie ich die Zeichen empfinde.

Viel Erfolg!","0","1","0","null","","","<div class = 'row'><div class = 'column'><img src = 'usneg/9181.bmp' width = '100%;'></div><div class = 'column'><img src = 'category3/CS2.png' width = '70%;'></div></div>","null","neg","CS","CS","3","category3/CS2.png","","","","",""
"","html-keyboard-response","73","370695","0.0-6.0-6.0-0.4","4z87p5m8tu","many_one","0","direct_first","1","er06ar05","1","41","2","0","4","1","Silben, die als ""Westler"" geläufig sind, man leicht aussprechen kann, sind mir angenehmer. Xue, Zue, gou, zou, usw., die es in der deutschen/westlichen Aussprache so nicht gibt, sind unangenhemer als fan, gan, usw.
Ich kann etwa 10% der japanischen Kanji-Schriftzeichen, daher weiß ich zum Beispiel, wie ""Mensch"" oder ""Mann"" in Japanisch und mitunter in Chinesisch geschrieben oder kombiniert wird. Ich empfinde diese Zeichen mehrheitlich positiv.
Ich habe zumindest im bewussten Nachdenken über die Bilder keinen Zusammenhang mit den Schriftzeichen festgestellt, dass es darauf Einfluss genommen hätte, wie ich die Zeichen empfinde.

Viel Erfolg!","0","1","0","null","","","<div class = 'row'><div class = 'column'><img src = 'category4/CS6.png' width = '70%;'></div><div class = 'column'><img src = 'usneg/9182.bmp' width = '100%;'></div></div>","null","neg","CS","CS","4","category4/CS6.png","","","","",""
"","html-keyboard-response","74","373204","0.0-6.0-6.0-0.5","4z87p5m8tu","many_one","0","direct_first","1","er06ar05","1","41","2","0","4","1","Silben, die als ""Westler"" geläufig sind, man leicht aussprechen kann, sind mir angenehmer. Xue, Zue, gou, zou, usw., die es in der deutschen/westlichen Aussprache so nicht gibt, sind unangenhemer als fan, gan, usw.
Ich kann etwa 10% der japanischen Kanji-Schriftzeichen, daher weiß ich zum Beispiel, wie ""Mensch"" oder ""Mann"" in Japanisch und mitunter in Chinesisch geschrieben oder kombiniert wird. Ich empfinde diese Zeichen mehrheitlich positiv.
Ich habe zumindest im bewussten Nachdenken über die Bilder keinen Zusammenhang mit den Schriftzeichen festgestellt, dass es darauf Einfluss genommen hätte, wie ich die Zeichen empfinde.

Viel Erfolg!","0","1","0","null","","","<div class = 'row'><div class = 'column'><img src = 'uspos/8080.bmp' width = '100%;'></div><div class = 'column'><img src = 'category2/CS6.png' width = '70%;'></div></div>","null","pos","CS","CS","2","category2/CS6.png","","","","",""
"","html-keyboard-response","75","375709","0.0-6.0-6.0-0.6","4z87p5m8tu","many_one","0","direct_first","1","er06ar05","1","41","2","0","4","1","Silben, die als ""Westler"" geläufig sind, man leicht aussprechen kann, sind mir angenehmer. Xue, Zue, gou, zou, usw., die es in der deutschen/westlichen Aussprache so nicht gibt, sind unangenhemer als fan, gan, usw.
Ich kann etwa 10% der japanischen Kanji-Schriftzeichen, daher weiß ich zum Beispiel, wie ""Mensch"" oder ""Mann"" in Japanisch und mitunter in Chinesisch geschrieben oder kombiniert wird. Ich empfinde diese Zeichen mehrheitlich positiv.
Ich habe zumindest im bewussten Nachdenken über die Bilder keinen Zusammenhang mit den Schriftzeichen festgestellt, dass es darauf Einfluss genommen hätte, wie ich die Zeichen empfinde.

Viel Erfolg!","0","1","0","null","","","<div class = 'row'><div class = 'column'><img src = 'category2/CS9.png' width = '70%;'></div><div class = 'column'><img src = 'uspos/2341.bmp' width = '100%;'></div></div>","null","pos","CS","CS","2","category2/CS9.png","","","","",""
"","html-keyboard-response","76","378217","0.0-6.0-6.0-0.7","4z87p5m8tu","many_one","0","direct_first","1","er06ar05","1","41","2","0","4","1","Silben, die als ""Westler"" geläufig sind, man leicht aussprechen kann, sind mir angenehmer. Xue, Zue, gou, zou, usw., die es in der deutschen/westlichen Aussprache so nicht gibt, sind unangenhemer als fan, gan, usw.
Ich kann etwa 10% der japanischen Kanji-Schriftzeichen, daher weiß ich zum Beispiel, wie ""Mensch"" oder ""Mann"" in Japanisch und mitunter in Chinesisch geschrieben oder kombiniert wird. Ich empfinde diese Zeichen mehrheitlich positiv.
Ich habe zumindest im bewussten Nachdenken über die Bilder keinen Zusammenhang mit den Schriftzeichen festgestellt, dass es darauf Einfluss genommen hätte, wie ich die Zeichen empfinde.

Viel Erfolg!","0","1","0","null","","","<div class = 'row'><div class = 'column'><img src = 'uspos/2208.bmp' width = '100%;'></div><div class = 'column'><img src = 'category2/CS8.png' width = '70%;'></div></div>","null","pos","CS","CS","2","category2/CS8.png","","","","",""
"","html-keyboard-response","77","380729","0.0-6.0-6.0-0.8","4z87p5m8tu","many_one","0","direct_first","1","er06ar05","1","41","2","0","4","1","Silben, die als ""Westler"" geläufig sind, man leicht aussprechen kann, sind mir angenehmer. Xue, Zue, gou, zou, usw., die es in der deutschen/westlichen Aussprache so nicht gibt, sind unangenhemer als fan, gan, usw.
Ich kann etwa 10% der japanischen Kanji-Schriftzeichen, daher weiß ich zum Beispiel, wie ""Mensch"" oder ""Mann"" in Japanisch und mitunter in Chinesisch geschrieben oder kombiniert wird. Ich empfinde diese Zeichen mehrheitlich positiv.
Ich habe zumindest im bewussten Nachdenken über die Bilder keinen Zusammenhang mit den Schriftzeichen festgestellt, dass es darauf Einfluss genommen hätte, wie ich die Zeichen empfinde.

Viel Erfolg!","0","1","0","null","","","<div class = 'row'><div class = 'column'><img src = 'category3/CS1.png' width = '70%;'></div><div class = 'column'><img src = 'usneg/9000.bmp' width = '100%;'></div></div>","null","neg","CS","CS","3","category3/CS1.png","","","","",""
"","html-keyboard-response","78","383238","0.0-6.0-6.0-0.9","4z87p5m8tu","many_one","0","direct_first","1","er06ar05","1","41","2","0","4","1","Silben, die als ""Westler"" geläufig sind, man leicht aussprechen kann, sind mir angenehmer. Xue, Zue, gou, zou, usw., die es in der deutschen/westlichen Aussprache so nicht gibt, sind unangenhemer als fan, gan, usw.
Ich kann etwa 10% der japanischen Kanji-Schriftzeichen, daher weiß ich zum Beispiel, wie ""Mensch"" oder ""Mann"" in Japanisch und mitunter in Chinesisch geschrieben oder kombiniert wird. Ich empfinde diese Zeichen mehrheitlich positiv.
Ich habe zumindest im bewussten Nachdenken über die Bilder keinen Zusammenhang mit den Schriftzeichen festgestellt, dass es darauf Einfluss genommen hätte, wie ich die Zeichen empfinde.

Viel Erfolg!","0","1","0","null","","","<div class = 'row'><div class = 'column'><img src = 'category1/CS1.png' width = '70%;'></div><div class = 'column'><img src = 'uspos/2340.bmp' width = '100%;'></div></div>","null","pos","CS","CS","1","category1/CS1.png","","","","",""
"","html-keyboard-response","79","385749","0.0-6.0-6.0-0.10","4z87p5m8tu","many_one","0","direct_first","1","er06ar05","1","41","2","0","4","1","Silben, die als ""Westler"" geläufig sind, man leicht aussprechen kann, sind mir angenehmer. Xue, Zue, gou, zou, usw., die es in der deutschen/westlichen Aussprache so nicht gibt, sind unangenhemer als fan, gan, usw.
Ich kann etwa 10% der japanischen Kanji-Schriftzeichen, daher weiß ich zum Beispiel, wie ""Mensch"" oder ""Mann"" in Japanisch und mitunter in Chinesisch geschrieben oder kombiniert wird. Ich empfinde diese Zeichen mehrheitlich positiv.
Ich habe zumindest im bewussten Nachdenken über die Bilder keinen Zusammenhang mit den Schriftzeichen festgestellt, dass es darauf Einfluss genommen hätte, wie ich die Zeichen empfinde.

Viel Erfolg!","0","1","0","null","","","<div class = 'row'><div class = 'column'><img src = 'category1/CS9.png' width = '70%;'></div><div class = 'column'><img src = 'uspos/2360.bmp' width = '100%;'></div></div>","null","pos","CS","CS","1","category1/CS9.png","","","","",""
"","html-keyboard-response","80","388256","0.0-6.0-6.0-0.11","4z87p5m8tu","many_one","0","direct_first","1","er06ar05","1","41","2","0","4","1","Silben, die als ""Westler"" geläufig sind, man leicht aussprechen kann, sind mir angenehmer. Xue, Zue, gou, zou, usw., die es in der deutschen/westlichen Aussprache so nicht gibt, sind unangenhemer als fan, gan, usw.
Ich kann etwa 10% der japanischen Kanji-Schriftzeichen, daher weiß ich zum Beispiel, wie ""Mensch"" oder ""Mann"" in Japanisch und mitunter in Chinesisch geschrieben oder kombiniert wird. Ich empfinde diese Zeichen mehrheitlich positiv.
Ich habe zumindest im bewussten Nachdenken über die Bilder keinen Zusammenhang mit den Schriftzeichen festgestellt, dass es darauf Einfluss genommen hätte, wie ich die Zeichen empfinde.

Viel Erfolg!","0","1","0","null","","","<div class = 'row'><div class = 'column'><img src = 'uspos/8461.bmp' width = '100%;'></div><div class = 'column'><img src = 'category1/CS6.png' width = '70%;'></div></div>","null","pos","CS","CS","1","category1/CS6.png","","","","",""
"","html-keyboard-response","81","390766","0.0-6.0-6.0-0.12","4z87p5m8tu","many_one","0","direct_first","1","er06ar05","1","41","2","0","4","1","Silben, die als ""Westler"" geläufig sind, man leicht aussprechen kann, sind mir angenehmer. Xue, Zue, gou, zou, usw., die es in der deutschen/westlichen Aussprache so nicht gibt, sind unangenhemer als fan, gan, usw.
Ich kann etwa 10% der japanischen Kanji-Schriftzeichen, daher weiß ich zum Beispiel, wie ""Mensch"" oder ""Mann"" in Japanisch und mitunter in Chinesisch geschrieben oder kombiniert wird. Ich empfinde diese Zeichen mehrheitlich positiv.
Ich habe zumindest im bewussten Nachdenken über die Bilder keinen Zusammenhang mit den Schriftzeichen festgestellt, dass es darauf Einfluss genommen hätte, wie ich die Zeichen empfinde.

Viel Erfolg!","0","1","0","null","","","<div class = 'row'><div class = 'column'><img src = 'category2/CS5.png' width = '70%;'></div><div class = 'column'><img src = 'uspos/5830.bmp' width = '100%;'></div></div>","null","pos","CS","CS","2","category2/CS5.png","","","","",""
"","html-keyboard-response","82","393272","0.0-6.0-6.0-0.13","4z87p5m8tu","many_one","0","direct_first","1","er06ar05","1","41","2","0","4","1","Silben, die als ""Westler"" geläufig sind, man leicht aussprechen kann, sind mir angenehmer. Xue, Zue, gou, zou, usw., die es in der deutschen/westlichen Aussprache so nicht gibt, sind unangenhemer als fan, gan, usw.
Ich kann etwa 10% der japanischen Kanji-Schriftzeichen, daher weiß ich zum Beispiel, wie ""Mensch"" oder ""Mann"" in Japanisch und mitunter in Chinesisch geschrieben oder kombiniert wird. Ich empfinde diese Zeichen mehrheitlich positiv.
Ich habe zumindest im bewussten Nachdenken über die Bilder keinen Zusammenhang mit den Schriftzeichen festgestellt, dass es darauf Einfluss genommen hätte, wie ich die Zeichen empfinde.

Viel Erfolg!","0","1","0","null","","","<div class = 'row'><div class = 'column'><img src = 'category3/CS10.png' width = '70%;'></div><div class = 'column'><img src = 'usneg/3300.bmp' width = '100%;'></div></div>","null","neg","CS","CS","3","category3/CS10.png","","","","",""
"","html-keyboard-response","83","395780","0.0-6.0-6.0-0.14","4z87p5m8tu","many_one","0","direct_first","1","er06ar05","1","41","2","0","4","1","Silben, die als ""Westler"" geläufig sind, man leicht aussprechen kann, sind mir angenehmer. Xue, Zue, gou, zou, usw., die es in der deutschen/westlichen Aussprache so nicht gibt, sind unangenhemer als fan, gan, usw.
Ich kann etwa 10% der japanischen Kanji-Schriftzeichen, daher weiß ich zum Beispiel, wie ""Mensch"" oder ""Mann"" in Japanisch und mitunter in Chinesisch geschrieben oder kombiniert wird. Ich empfinde diese Zeichen mehrheitlich positiv.
Ich habe zumindest im bewussten Nachdenken über die Bilder keinen Zusammenhang mit den Schriftzeichen festgestellt, dass es darauf Einfluss genommen hätte, wie ich die Zeichen empfinde.

Viel Erfolg!","0","1","0","null","","","<div class = 'row'><div class = 'column'><img src = 'category4/CS1.png' width = '70%;'></div><div class = 'column'><img src = 'usneg/9435.bmp' width = '100%;'></div></div>","null","neg","CS","CS","4","category4/CS1.png","","","","",""
"","html-keyboard-response","84","398292","0.0-6.0-6.0-0.15","4z87p5m8tu","many_one","0","direct_first","1","er06ar05","1","41","2","0","4","1","Silben, die als ""Westler"" geläufig sind, man leicht aussprechen kann, sind mir angenehmer. Xue, Zue, gou, zou, usw., die es in der deutschen/westlichen Aussprache so nicht gibt, sind unangenhemer als fan, gan, usw.
Ich kann etwa 10% der japanischen Kanji-Schriftzeichen, daher weiß ich zum Beispiel, wie ""Mensch"" oder ""Mann"" in Japanisch und mitunter in Chinesisch geschrieben oder kombiniert wird. Ich empfinde diese Zeichen mehrheitlich positiv.
Ich habe zumindest im bewussten Nachdenken über die Bilder keinen Zusammenhang mit den Schriftzeichen festgestellt, dass es darauf Einfluss genommen hätte, wie ich die Zeichen empfinde.

Viel Erfolg!","0","1","0","null","","","<div class = 'row'><div class = 'column'><img src = 'category3/CS9.png' width = '70%;'></div><div class = 'column'><img src = 'usneg/2141.bmp' width = '100%;'></div></div>","null","neg","CS","CS","3","category3/CS9.png","","","","",""
"","html-keyboard-response","85","400807","0.0-6.0-6.0-0.16","4z87p5m8tu","many_one","0","direct_first","1","er06ar05","1","41","2","0","4","1","Silben, die als ""Westler"" geläufig sind, man leicht aussprechen kann, sind mir angenehmer. Xue, Zue, gou, zou, usw., die es in der deutschen/westlichen Aussprache so nicht gibt, sind unangenhemer als fan, gan, usw.
Ich kann etwa 10% der japanischen Kanji-Schriftzeichen, daher weiß ich zum Beispiel, wie ""Mensch"" oder ""Mann"" in Japanisch und mitunter in Chinesisch geschrieben oder kombiniert wird. Ich empfinde diese Zeichen mehrheitlich positiv.
Ich habe zumindest im bewussten Nachdenken über die Bilder keinen Zusammenhang mit den Schriftzeichen festgestellt, dass es darauf Einfluss genommen hätte, wie ich die Zeichen empfinde.

Viel Erfolg!","0","1","0","null","","","<div class = 'row'><div class = 'column'><img src = 'category2/CS10.png' width = '70%;'></div><div class = 'column'><img src = 'uspos/2530.bmp' width = '100%;'></div></div>","null","pos","CS","CS","2","category2/CS10.png","","","","",""
"","html-keyboard-response","86","403315","0.0-6.0-6.0-0.17","4z87p5m8tu","many_one","0","direct_first","1","er06ar05","1","41","2","0","4","1","Silben, die als ""Westler"" geläufig sind, man leicht aussprechen kann, sind mir angenehmer. Xue, Zue, gou, zou, usw., die es in der deutschen/westlichen Aussprache so nicht gibt, sind unangenhemer als fan, gan, usw.
Ich kann etwa 10% der japanischen Kanji-Schriftzeichen, daher weiß ich zum Beispiel, wie ""Mensch"" oder ""Mann"" in Japanisch und mitunter in Chinesisch geschrieben oder kombiniert wird. Ich empfinde diese Zeichen mehrheitlich positiv.
Ich habe zumindest im bewussten Nachdenken über die Bilder keinen Zusammenhang mit den Schriftzeichen festgestellt, dass es darauf Einfluss genommen hätte, wie ich die Zeichen empfinde.

Viel Erfolg!","0","1","0","null","","","<div class = 'row'><div class = 'column'><img src = 'category4/CS4.png' width = '70%;'></div><div class = 'column'><img src = 'usneg/9920.bmp' width = '100%;'></div></div>","null","neg","CS","CS","4","category4/CS4.png","","","","",""
"","html-keyboard-response","87","405823","0.0-6.0-6.0-0.18","4z87p5m8tu","many_one","0","direct_first","1","er06ar05","1","41","2","0","4","1","Silben, die als ""Westler"" geläufig sind, man leicht aussprechen kann, sind mir angenehmer. Xue, Zue, gou, zou, usw., die es in der deutschen/westlichen Aussprache so nicht gibt, sind unangenhemer als fan, gan, usw.
Ich kann etwa 10% der japanischen Kanji-Schriftzeichen, daher weiß ich zum Beispiel, wie ""Mensch"" oder ""Mann"" in Japanisch und mitunter in Chinesisch geschrieben oder kombiniert wird. Ich empfinde diese Zeichen mehrheitlich positiv.
Ich habe zumindest im bewussten Nachdenken über die Bilder keinen Zusammenhang mit den Schriftzeichen festgestellt, dass es darauf Einfluss genommen hätte, wie ich die Zeichen empfinde.

Viel Erfolg!","0","1","0","null","","","<div class = 'row'><div class = 'column'><img src = 'usneg/2750.bmp' width = '100%;'></div><div class = 'column'><img src = 'category3/CS8.png' width = '70%;'></div></div>","null","neg","CS","CS","3","category3/CS8.png","","","","",""
"","html-keyboard-response","88","408332","0.0-6.0-6.0-0.19","4z87p5m8tu","many_one","0","direct_first","1","er06ar05","1","41","2","0","4","1","Silben, die als ""Westler"" geläufig sind, man leicht aussprechen kann, sind mir angenehmer. Xue, Zue, gou, zou, usw., die es in der deutschen/westlichen Aussprache so nicht gibt, sind unangenhemer als fan, gan, usw.
Ich kann etwa 10% der japanischen Kanji-Schriftzeichen, daher weiß ich zum Beispiel, wie ""Mensch"" oder ""Mann"" in Japanisch und mitunter in Chinesisch geschrieben oder kombiniert wird. Ich empfinde diese Zeichen mehrheitlich positiv.
Ich habe zumindest im bewussten Nachdenken über die Bilder keinen Zusammenhang mit den Schriftzeichen festgestellt, dass es darauf Einfluss genommen hätte, wie ich die Zeichen empfinde.

Viel Erfolg!","0","1","0","null","","","<div class = 'row'><div class = 'column'><img src = 'usneg/9561.bmp' width = '100%;'></div><div class = 'column'><img src = 'category4/CS7.png' width = '70%;'></div></div>","null","neg","CS","CS","4","category4/CS7.png","","","","",""
"","survey-html-form","89","426313","0.0-7.0","4z87p5m8tu","many_one","0","direct_first","1","er06ar05","1","41","2","0","4","1","Silben, die als ""Westler"" geläufig sind, man leicht aussprechen kann, sind mir angenehmer. Xue, Zue, gou, zou, usw., die es in der deutschen/westlichen Aussprache so nicht gibt, sind unangenhemer als fan, gan, usw.
Ich kann etwa 10% der japanischen Kanji-Schriftzeichen, daher weiß ich zum Beispiel, wie ""Mensch"" oder ""Mann"" in Japanisch und mitunter in Chinesisch geschrieben oder kombiniert wird. Ich empfinde diese Zeichen mehrheitlich positiv.
Ich habe zumindest im bewussten Nachdenken über die Bilder keinen Zusammenhang mit den Schriftzeichen festgestellt, dass es darauf Einfluss genommen hätte, wie ich die Zeichen empfinde.

Viel Erfolg!","0","1","0","17477.940000000643","","{}","","","","","","","","","","","",""
"","image-slider-response","90","434214","0.0-8.0-0.0","4z87p5m8tu","many_one","0","direct_first","1","er06ar05","1","41","2","0","4","1","Silben, die als ""Westler"" geläufig sind, man leicht aussprechen kann, sind mir angenehmer. Xue, Zue, gou, zou, usw., die es in der deutschen/westlichen Aussprache so nicht gibt, sind unangenhemer als fan, gan, usw.
Ich kann etwa 10% der japanischen Kanji-Schriftzeichen, daher weiß ich zum Beispiel, wie ""Mensch"" oder ""Mann"" in Japanisch und mitunter in Chinesisch geschrieben oder kombiniert wird. Ich empfinde diese Zeichen mehrheitlich positiv.
Ich habe zumindest im bewussten Nachdenken über die Bilder keinen Zusammenhang mit den Schriftzeichen festgestellt, dass es darauf Einfluss genommen hätte, wie ich die Zeichen empfinde.

Viel Erfolg!","0","1","0","5892.265000000363","","","","","neg","GS","GSnew","3","category3/GS2.png","-84","targets/11.png","direct","",""
"","image-slider-response","91","437764","0.0-8.0-0.1","4z87p5m8tu","many_one","0","direct_first","1","er06ar05","1","41","2","0","4","1","Silben, die als ""Westler"" geläufig sind, man leicht aussprechen kann, sind mir angenehmer. Xue, Zue, gou, zou, usw., die es in der deutschen/westlichen Aussprache so nicht gibt, sind unangenhemer als fan, gan, usw.
Ich kann etwa 10% der japanischen Kanji-Schriftzeichen, daher weiß ich zum Beispiel, wie ""Mensch"" oder ""Mann"" in Japanisch und mitunter in Chinesisch geschrieben oder kombiniert wird. Ich empfinde diese Zeichen mehrheitlich positiv.
Ich habe zumindest im bewussten Nachdenken über die Bilder keinen Zusammenhang mit den Schriftzeichen festgestellt, dass es darauf Einfluss genommen hätte, wie ich die Zeichen empfinde.

Viel Erfolg!","0","1","0","3545.514999999781","","","","","pos","GS","GSnew","2","category2/GS1.png","81","targets/1.png","direct","",""
"","image-slider-response","92","441076","0.0-8.0-0.2","4z87p5m8tu","many_one","0","direct_first","1","er06ar05","1","41","2","0","4","1","Silben, die als ""Westler"" geläufig sind, man leicht aussprechen kann, sind mir angenehmer. Xue, Zue, gou, zou, usw., die es in der deutschen/westlichen Aussprache so nicht gibt, sind unangenhemer als fan, gan, usw.
Ich kann etwa 10% der japanischen Kanji-Schriftzeichen, daher weiß ich zum Beispiel, wie ""Mensch"" oder ""Mann"" in Japanisch und mitunter in Chinesisch geschrieben oder kombiniert wird. Ich empfinde diese Zeichen mehrheitlich positiv.
Ich habe zumindest im bewussten Nachdenken über die Bilder keinen Zusammenhang mit den Schriftzeichen festgestellt, dass es darauf Einfluss genommen hätte, wie ich die Zeichen empfinde.

Viel Erfolg!","0","1","0","3308.704999999434","","","","","neg","CS","CS","3","category3/CS2.png","57","targets/29.png","direct","",""
"","image-slider-response","93","443758","0.0-8.0-0.3","4z87p5m8tu","many_one","0","direct_first","1","er06ar05","1","41","2","0","4","1","Silben, die als ""Westler"" geläufig sind, man leicht aussprechen kann, sind mir angenehmer. Xue, Zue, gou, zou, usw., die es in der deutschen/westlichen Aussprache so nicht gibt, sind unangenhemer als fan, gan, usw.
Ich kann etwa 10% der japanischen Kanji-Schriftzeichen, daher weiß ich zum Beispiel, wie ""Mensch"" oder ""Mann"" in Japanisch und mitunter in Chinesisch geschrieben oder kombiniert wird. Ich empfinde diese Zeichen mehrheitlich positiv.
Ich habe zumindest im bewussten Nachdenken über die Bilder keinen Zusammenhang mit den Schriftzeichen festgestellt, dass es darauf Einfluss genommen hätte, wie ich die Zeichen empfinde.

Viel Erfolg!","0","1","0","2677.9349999997066","","","","","pos","GS","GSold","2","category2/CS1.png","68","targets/7.png","direct","",""
"","image-slider-response","94","448835","0.0-8.0-0.4","4z87p5m8tu","many_one","0","direct_first","1","er06ar05","1","41","2","0","4","1","Silben, die als ""Westler"" geläufig sind, man leicht aussprechen kann, sind mir angenehmer. Xue, Zue, gou, zou, usw., die es in der deutschen/westlichen Aussprache so nicht gibt, sind unangenhemer als fan, gan, usw.
Ich kann etwa 10% der japanischen Kanji-Schriftzeichen, daher weiß ich zum Beispiel, wie ""Mensch"" oder ""Mann"" in Japanisch und mitunter in Chinesisch geschrieben oder kombiniert wird. Ich empfinde diese Zeichen mehrheitlich positiv.
Ich habe zumindest im bewussten Nachdenken über die Bilder keinen Zusammenhang mit den Schriftzeichen festgestellt, dass es darauf Einfluss genommen hätte, wie ich die Zeichen empfinde.

Viel Erfolg!","0","1","0","5074.885000000009","","","","","pos","GS","GSold","1","category1/CS3.png","-13","targets/28.png","direct","",""
"","image-slider-response","95","451477","0.0-8.0-0.5","4z87p5m8tu","many_one","0","direct_first","1","er06ar05","1","41","2","0","4","1","Silben, die als ""Westler"" geläufig sind, man leicht aussprechen kann, sind mir angenehmer. Xue, Zue, gou, zou, usw., die es in der deutschen/westlichen Aussprache so nicht gibt, sind unangenhemer als fan, gan, usw.
Ich kann etwa 10% der japanischen Kanji-Schriftzeichen, daher weiß ich zum Beispiel, wie ""Mensch"" oder ""Mann"" in Japanisch und mitunter in Chinesisch geschrieben oder kombiniert wird. Ich empfinde diese Zeichen mehrheitlich positiv.
Ich habe zumindest im bewussten Nachdenken über die Bilder keinen Zusammenhang mit den Schriftzeichen festgestellt, dass es darauf Einfluss genommen hätte, wie ich die Zeichen empfinde.

Viel Erfolg!","0","1","0","2640.405000000086","","","","","pos","CS","CS","1","category1/CS4.png","-17","targets/22.png","direct","",""
"","image-slider-response","96","457283","0.0-8.0-0.6","4z87p5m8tu","many_one","0","direct_first","1","er06ar05","1","41","2","0","4","1","Silben, die als ""Westler"" geläufig sind, man leicht aussprechen kann, sind mir angenehmer. Xue, Zue, gou, zou, usw., die es in der deutschen/westlichen Aussprache so nicht gibt, sind unangenhemer als fan, gan, usw.
