"success","trial_type","trial_index","time_elapsed","internal_node_id","subject","condition","condition_code","measure","measure_code","codeword","gender","age","education","chinese","fach","handedness","comment","hinschauen","ablenkung","gewissenhaft","rt","url","responses","stimulus","key_press","val","type","type_specific","category","cs_selected","response","target","task","indirect","nr_pres"
"true","fullscreen","0","5032","0.0-0.0","a2lvo6ypua","one_one","1","direct_first","1","nn06el18","0","22","1","1","3","1","","0","1","0","","","","","","","","","","","","","","",""
"","external-html","1","49637","0.0-1.0","a2lvo6ypua","one_one","1","direct_first","1","nn06el18","0","22","1","1","3","1","","0","1","0","44513.154999993276","text/information.html","","","","","","","","","","","","",""
"","external-html","2","69262","0.0-2.0","a2lvo6ypua","one_one","1","direct_first","1","nn06el18","0","22","1","1","3","1","","0","1","0","19473.06499996921","text/consent.html","","","","","","","","","","","","",""
"","survey-html-form","3","147416","0.0-3.0","a2lvo6ypua","one_one","1","direct_first","1","nn06el18","0","22","1","1","3","1","","0","1","0","78146.14999998594","","{""codeword_enter"":""nn06el18""}","","","","","","","","","","","",""
"","survey-html-form","4","173299","0.0-4.0","a2lvo6ypua","one_one","1","direct_first","1","nn06el18","0","22","1","1","3","1","","0","1","0","25870.42500003008","","{""age"":""22"",""education"":""1"",""subject"":""3"",""gender"":""0"",""handedness"":""1"",""chinese"":""1""}","","","","","","","","","","","",""
"","survey-html-form","5","187119","0.0-5.0","a2lvo6ypua","one_one","1","direct_first","1","nn06el18","0","22","1","1","3","1","","0","1","0","13812.475000042468","","{}","","","","","","","","","","","",""
"","html-keyboard-response","6","191128","0.0-6.0-0.0-0.0","a2lvo6ypua","one_one","1","direct_first","1","nn06el18","0","22","1","1","3","1","","0","1","0","null","","","<div class = 'row'><div class = 'column'><img src = 'category1/CS9.png' width = '70%;'></div><div class = 'column'><img src = 'usneg/2900.bmp' width = '100%;'></div></div>","null","neg","CS","CS","1","category1/CS9.png","","","","",""
"","html-keyboard-response","7","193634","0.0-6.0-0.0-0.1","a2lvo6ypua","one_one","1","direct_first","1","nn06el18","0","22","1","1","3","1","","0","1","0","null","","","<div class = 'row'><div class = 'column'><img src = 'category2/CS10.png' width = '70%;'></div><div class = 'column'><img src = 'usneg/6212.bmp' width = '100%;'></div></div>","null","neg","CS","CS","2","category2/CS10.png","","","","",""
"","html-keyboard-response","8","196141","0.0-6.0-0.0-0.2","a2lvo6ypua","one_one","1","direct_first","1","nn06el18","0","22","1","1","3","1","","0","1","0","null","","","<div class = 'row'><div class = 'column'><img src = 'uspos/2160.bmp' width = '100%;'></div><div class = 'column'><img src = 'category3/CS1.png' width = '70%;'></div></div>","null","pos","CS","CS","3","category3/CS1.png","","","","",""
"","html-keyboard-response","9","198646","0.0-6.0-0.0-0.3","a2lvo6ypua","one_one","1","direct_first","1","nn06el18","0","22","1","1","3","1","","0","1","0","null","","","<div class = 'row'><div class = 'column'><img src = 'category4/CS3.png' width = '70%;'></div><div class = 'column'><img src = 'uspos/1440.bmp' width = '100%;'></div></div>","null","pos","CS","CS","4","category4/CS3.png","","","","",""
"","html-keyboard-response","10","201152","0.0-6.0-0.0-0.4","a2lvo6ypua","one_one","1","direct_first","1","nn06el18","0","22","1","1","3","1","","0","1","0","null","","","<div class = 'row'><div class = 'column'><img src = 'uspos/2160.bmp' width = '100%;'></div><div class = 'column'><img src = 'category3/CS1.png' width = '70%;'></div></div>","null","pos","CS","CS","3","category3/CS1.png","","","","",""
"","html-keyboard-response","11","203656","0.0-6.0-0.0-0.5","a2lvo6ypua","one_one","1","direct_first","1","nn06el18","0","22","1","1","3","1","","0","1","0","null","","","<div class = 'row'><div class = 'column'><img src = 'usneg/6212.bmp' width = '100%;'></div><div class = 'column'><img src = 'category2/CS10.png' width = '70%;'></div></div>","null","neg","CS","CS","2","category2/CS10.png","","","","",""
"","html-keyboard-response","12","206162","0.0-6.0-0.0-0.6","a2lvo6ypua","one_one","1","direct_first","1","nn06el18","0","22","1","1","3","1","","0","1","0","null","","","<div class = 'row'><div class = 'column'><img src = 'uspos/2160.bmp' width = '100%;'></div><div class = 'column'><img src = 'category3/CS1.png' width = '70%;'></div></div>","null","pos","CS","CS","3","category3/CS1.png","","","","",""
"","html-keyboard-response","13","208667","0.0-6.0-0.0-0.7","a2lvo6ypua","one_one","1","direct_first","1","nn06el18","0","22","1","1","3","1","","0","1","0","null","","","<div class = 'row'><div class = 'column'><img src = 'category1/CS9.png' width = '70%;'></div><div class = 'column'><img src = 'usneg/2900.bmp' width = '100%;'></div></div>","null","neg","CS","CS","1","category1/CS9.png","","","","",""
"","html-keyboard-response","14","211173","0.0-6.0-0.0-0.8","a2lvo6ypua","one_one","1","direct_first","1","nn06el18","0","22","1","1","3","1","","0","1","0","null","","","<div class = 'row'><div class = 'column'><img src = 'uspos/2160.bmp' width = '100%;'></div><div class = 'column'><img src = 'category3/CS1.png' width = '70%;'></div></div>","null","pos","CS","CS","3","category3/CS1.png","","","","",""
"","html-keyboard-response","15","213678","0.0-6.0-0.0-0.9","a2lvo6ypua","one_one","1","direct_first","1","nn06el18","0","22","1","1","3","1","","0","1","0","null","","","<div class = 'row'><div class = 'column'><img src = 'usneg/6212.bmp' width = '100%;'></div><div class = 'column'><img src = 'category2/CS10.png' width = '70%;'></div></div>","null","neg","CS","CS","2","category2/CS10.png","","","","",""
"","html-keyboard-response","16","216185","0.0-6.0-0.0-0.10","a2lvo6ypua","one_one","1","direct_first","1","nn06el18","0","22","1","1","3","1","","0","1","0","null","","","<div class = 'row'><div class = 'column'><img src = 'category1/CS9.png' width = '70%;'></div><div class = 'column'><img src = 'usneg/2900.bmp' width = '100%;'></div></div>","null","neg","CS","CS","1","category1/CS9.png","","","","",""
"","html-keyboard-response","17","218690","0.0-6.0-0.0-0.11","a2lvo6ypua","one_one","1","direct_first","1","nn06el18","0","22","1","1","3","1","","0","1","0","null","","","<div class = 'row'><div class = 'column'><img src = 'uspos/1440.bmp' width = '100%;'></div><div class = 'column'><img src = 'category4/CS3.png' width = '70%;'></div></div>","null","pos","CS","CS","4","category4/CS3.png","","","","",""
"","html-keyboard-response","18","221194","0.0-6.0-0.0-0.12","a2lvo6ypua","one_one","1","direct_first","1","nn06el18","0","22","1","1","3","1","","0","1","0","null","","","<div class = 'row'><div class = 'column'><img src = 'usneg/6212.bmp' width = '100%;'></div><div class = 'column'><img src = 'category2/CS10.png' width = '70%;'></div></div>","null","neg","CS","CS","2","category2/CS10.png","","","","",""
"","html-keyboard-response","19","223702","0.0-6.0-0.0-0.13","a2lvo6ypua","one_one","1","direct_first","1","nn06el18","0","22","1","1","3","1","","0","1","0","null","","","<div class = 'row'><div class = 'column'><img src = 'category4/CS3.png' width = '70%;'></div><div class = 'column'><img src = 'uspos/1440.bmp' width = '100%;'></div></div>","null","pos","CS","CS","4","category4/CS3.png","","","","",""
"","html-keyboard-response","20","226207","0.0-6.0-0.0-0.14","a2lvo6ypua","one_one","1","direct_first","1","nn06el18","0","22","1","1","3","1","","0","1","0","null","","","<div class = 'row'><div class = 'column'><img src = 'category3/CS1.png' width = '70%;'></div><div class = 'column'><img src = 'uspos/2160.bmp' width = '100%;'></div></div>","null","pos","CS","CS","3","category3/CS1.png","","","","",""
"","html-keyboard-response","21","228712","0.0-6.0-0.0-0.15","a2lvo6ypua","one_one","1","direct_first","1","nn06el18","0","22","1","1","3","1","","0","1","0","null","","","<div class = 'row'><div class = 'column'><img src = 'usneg/2900.bmp' width = '100%;'></div><div class = 'column'><img src = 'category1/CS9.png' width = '70%;'></div></div>","null","neg","CS","CS","1","category1/CS9.png","","","","",""
"","html-keyboard-response","22","231217","0.0-6.0-0.0-0.16","a2lvo6ypua","one_one","1","direct_first","1","nn06el18","0","22","1","1","3","1","","0","1","0","null","","","<div class = 'row'><div class = 'column'><img src = 'category4/CS3.png' width = '70%;'></div><div class = 'column'><img src = 'uspos/1440.bmp' width = '100%;'></div></div>","null","pos","CS","CS","4","category4/CS3.png","","","","",""
"","html-keyboard-response","23","233723","0.0-6.0-0.0-0.17","a2lvo6ypua","one_one","1","direct_first","1","nn06el18","0","22","1","1","3","1","","0","1","0","null","","","<div class = 'row'><div class = 'column'><img src = 'usneg/2900.bmp' width = '100%;'></div><div class = 'column'><img src = 'category1/CS9.png' width = '70%;'></div></div>","null","neg","CS","CS","1","category1/CS9.png","","","","",""
"","html-keyboard-response","24","236228","0.0-6.0-0.0-0.18","a2lvo6ypua","one_one","1","direct_first","1","nn06el18","0","22","1","1","3","1","","0","1","0","null","","","<div class = 'row'><div class = 'column'><img src = 'category2/CS10.png' width = '70%;'></div><div class = 'column'><img src = 'usneg/6212.bmp' width = '100%;'></div></div>","null","neg","CS","CS","2","category2/CS10.png","","","","",""
"","html-keyboard-response","25","238732","0.0-6.0-0.0-0.19","a2lvo6ypua","one_one","1","direct_first","1","nn06el18","0","22","1","1","3","1","","0","1","0","null","","","<div class = 'row'><div class = 'column'><img src = 'category4/CS3.png' width = '70%;'></div><div class = 'column'><img src = 'uspos/1440.bmp' width = '100%;'></div></div>","null","pos","CS","CS","4","category4/CS3.png","","","","",""
"","survey-html-form","26","242123","0.0-6.0-1.0","a2lvo6ypua","one_one","1","direct_first","1","nn06el18","0","22","1","1","3","1","","0","1","0","2888.6350000393577","","{}","","","","","","","","","","","",""
"","html-keyboard-response","27","246131","0.0-6.0-2.0-0.0","a2lvo6ypua","one_one","1","direct_first","1","nn06el18","0","22","1","1","3","1","","0","1","0","null","","","<div class = 'row'><div class = 'column'><img src = 'category3/CS1.png' width = '70%;'></div><div class = 'column'><img src = 'uspos/2160.bmp' width = '100%;'></div></div>","null","pos","CS","CS","3","category3/CS1.png","","","","",""
"","html-keyboard-response","28","248637","0.0-6.0-2.0-0.1","a2lvo6ypua","one_one","1","direct_first","1","nn06el18","0","22","1","1","3","1","","0","1","0","null","","","<div class = 'row'><div class = 'column'><img src = 'uspos/1440.bmp' width = '100%;'></div><div class = 'column'><img src = 'category4/CS3.png' width = '70%;'></div></div>","null","pos","CS","CS","4","category4/CS3.png","","","","",""
"","html-keyboard-response","29","251141","0.0-6.0-2.0-0.2","a2lvo6ypua","one_one","1","direct_first","1","nn06el18","0","22","1","1","3","1","","0","1","0","null","","","<div class = 'row'><div class = 'column'><img src = 'category1/CS9.png' width = '70%;'></div><div class = 'column'><img src = 'usneg/2900.bmp' width = '100%;'></div></div>","null","neg","CS","CS","1","category1/CS9.png","","","","",""
"","html-keyboard-response","30","253650","0.0-6.0-2.0-0.3","a2lvo6ypua","one_one","1","direct_first","1","nn06el18","0","22","1","1","3","1","","0","1","0","null","","","<div class = 'row'><div class = 'column'><img src = 'category4/CS3.png' width = '70%;'></div><div class = 'column'><img src = 'uspos/1440.bmp' width = '100%;'></div></div>","null","pos","CS","CS","4","category4/CS3.png","","","","",""
"","html-keyboard-response","31","256155","0.0-6.0-2.0-0.4","a2lvo6ypua","one_one","1","direct_first","1","nn06el18","0","22","1","1","3","1","","0","1","0","null","","","<div class = 'row'><div class = 'column'><img src = 'category3/CS1.png' width = '70%;'></div><div class = 'column'><img src = 'uspos/2160.bmp' width = '100%;'></div></div>","null","pos","CS","CS","3","category3/CS1.png","","","","",""
"","html-keyboard-response","32","258660","0.0-6.0-2.0-0.5","a2lvo6ypua","one_one","1","direct_first","1","nn06el18","0","22","1","1","3","1","","0","1","0","null","","","<div class = 'row'><div class = 'column'><img src = 'usneg/2900.bmp' width = '100%;'></div><div class = 'column'><img src = 'category1/CS9.png' width = '70%;'></div></div>","null","neg","CS","CS","1","category1/CS9.png","","","","",""
"","html-keyboard-response","33","261169","0.0-6.0-2.0-0.6","a2lvo6ypua","one_one","1","direct_first","1","nn06el18","0","22","1","1","3","1","","0","1","0","null","","","<div class = 'row'><div class = 'column'><img src = 'category4/CS3.png' width = '70%;'></div><div class = 'column'><img src = 'uspos/1440.bmp' width = '100%;'></div></div>","null","pos","CS","CS","4","category4/CS3.png","","","","",""
"","html-keyboard-response","34","263674","0.0-6.0-2.0-0.7","a2lvo6ypua","one_one","1","direct_first","1","nn06el18","0","22","1","1","3","1","","0","1","0","null","","","<div class = 'row'><div class = 'column'><img src = 'category2/CS10.png' width = '70%;'></div><div class = 'column'><img src = 'usneg/6212.bmp' width = '100%;'></div></div>","null","neg","CS","CS","2","category2/CS10.png","","","","",""
"","html-keyboard-response","35","266179","0.0-6.0-2.0-0.8","a2lvo6ypua","one_one","1","direct_first","1","nn06el18","0","22","1","1","3","1","","0","1","0","null","","","<div class = 'row'><div class = 'column'><img src = 'uspos/1440.bmp' width = '100%;'></div><div class = 'column'><img src = 'category4/CS3.png' width = '70%;'></div></div>","null","pos","CS","CS","4","category4/CS3.png","","","","",""
"","html-keyboard-response","36","268685","0.0-6.0-2.0-0.9","a2lvo6ypua","one_one","1","direct_first","1","nn06el18","0","22","1","1","3","1","","0","1","0","null","","","<div class = 'row'><div class = 'column'><img src = 'category3/CS1.png' width = '70%;'></div><div class = 'column'><img src = 'uspos/2160.bmp' width = '100%;'></div></div>","null","pos","CS","CS","3","category3/CS1.png","","","","",""
"","html-keyboard-response","37","271190","0.0-6.0-2.0-0.10","a2lvo6ypua","one_one","1","direct_first","1","nn06el18","0","22","1","1","3","1","","0","1","0","null","","","<div class = 'row'><div class = 'column'><img src = 'category2/CS10.png' width = '70%;'></div><div class = 'column'><img src = 'usneg/6212.bmp' width = '100%;'></div></div>","null","neg","CS","CS","2","category2/CS10.png","","","","",""
"","html-keyboard-response","38","273696","0.0-6.0-2.0-0.11","a2lvo6ypua","one_one","1","direct_first","1","nn06el18","0","22","1","1","3","1","","0","1","0","null","","","<div class = 'row'><div class = 'column'><img src = 'category1/CS9.png' width = '70%;'></div><div class = 'column'><img src = 'usneg/2900.bmp' width = '100%;'></div></div>","null","neg","CS","CS","1","category1/CS9.png","","","","",""
"","html-keyboard-response","39","276201","0.0-6.0-2.0-0.12","a2lvo6ypua","one_one","1","direct_first","1","nn06el18","0","22","1","1","3","1","","0","1","0","null","","","<div class = 'row'><div class = 'column'><img src = 'usneg/6212.bmp' width = '100%;'></div><div class = 'column'><img src = 'category2/CS10.png' width = '70%;'></div></div>","null","neg","CS","CS","2","category2/CS10.png","","","","",""
"","html-keyboard-response","40","278707","0.0-6.0-2.0-0.13","a2lvo6ypua","one_one","1","direct_first","1","nn06el18","0","22","1","1","3","1","","0","1","0","null","","","<div class = 'row'><div class = 'column'><img src = 'uspos/2160.bmp' width = '100%;'></div><div class = 'column'><img src = 'category3/CS1.png' width = '70%;'></div></div>","null","pos","CS","CS","3","category3/CS1.png","","","","",""
"","html-keyboard-response","41","281212","0.0-6.0-2.0-0.14","a2lvo6ypua","one_one","1","direct_first","1","nn06el18","0","22","1","1","3","1","","0","1","0","null","","","<div class = 'row'><div class = 'column'><img src = 'category2/CS10.png' width = '70%;'></div><div class = 'column'><img src = 'usneg/6212.bmp' width = '100%;'></div></div>","null","neg","CS","CS","2","category2/CS10.png","","","","",""
"","html-keyboard-response","42","283717","0.0-6.0-2.0-0.15","a2lvo6ypua","one_one","1","direct_first","1","nn06el18","0","22","1","1","3","1","","0","1","0","null","","","<div class = 'row'><div class = 'column'><img src = 'category1/CS9.png' width = '70%;'></div><div class = 'column'><img src = 'usneg/2900.bmp' width = '100%;'></div></div>","null","neg","CS","CS","1","category1/CS9.png","","","","",""
"","html-keyboard-response","43","286223","0.0-6.0-2.0-0.16","a2lvo6ypua","one_one","1","direct_first","1","nn06el18","0","22","1","1","3","1","","0","1","0","null","","","<div class = 'row'><div class = 'column'><img src = 'category2/CS10.png' width = '70%;'></div><div class = 'column'><img src = 'usneg/6212.bmp' width = '100%;'></div></div>","null","neg","CS","CS","2","category2/CS10.png","","","","",""
"","html-keyboard-response","44","288728","0.0-6.0-2.0-0.17","a2lvo6ypua","one_one","1","direct_first","1","nn06el18","0","22","1","1","3","1","","0","1","0","null","","","<div class = 'row'><div class = 'column'><img src = 'category3/CS1.png' width = '70%;'></div><div class = 'column'><img src = 'uspos/2160.bmp' width = '100%;'></div></div>","null","pos","CS","CS","3","category3/CS1.png","","","","",""
"","html-keyboard-response","45","291233","0.0-6.0-2.0-0.18","a2lvo6ypua","one_one","1","direct_first","1","nn06el18","0","22","1","1","3","1","","0","1","0","null","","","<div class = 'row'><div class = 'column'><img src = 'usneg/2900.bmp' width = '100%;'></div><div class = 'column'><img src = 'category1/CS9.png' width = '70%;'></div></div>","null","neg","CS","CS","1","category1/CS9.png","","","","",""
"","html-keyboard-response","46","293738","0.0-6.0-2.0-0.19","a2lvo6ypua","one_one","1","direct_first","1","nn06el18","0","22","1","1","3","1","","0","1","0","null","","","<div class = 'row'><div class = 'column'><img src = 'category4/CS3.png' width = '70%;'></div><div class = 'column'><img src = 'uspos/1440.bmp' width = '100%;'></div></div>","null","pos","CS","CS","4","category4/CS3.png","","","","",""
"","survey-html-form","47","310442","0.0-6.0-3.0","a2lvo6ypua","one_one","1","direct_first","1","nn06el18","0","22","1","1","3","1","","0","1","0","16202.480000036303","","{}","","","","","","","","","","","",""
"","html-keyboard-response","48","314452","0.0-6.0-4.0-0.0","a2lvo6ypua","one_one","1","direct_first","1","nn06el18","0","22","1","1","3","1","","0","1","0","null","","","<div class = 'row'><div class = 'column'><img src = 'category1/CS9.png' width = '70%;'></div><div class = 'column'><img src = 'usneg/2900.bmp' width = '100%;'></div></div>","null","neg","CS","CS","1","category1/CS9.png","","","","",""
"","html-keyboard-response","49","316958","0.0-6.0-4.0-0.1","a2lvo6ypua","one_one","1","direct_first","1","nn06el18","0","22","1","1","3","1","","0","1","0","null","","","<div class = 'row'><div class = 'column'><img src = 'usneg/6212.bmp' width = '100%;'></div><div class = 'column'><img src = 'category2/CS10.png' width = '70%;'></div></div>","null","neg","CS","CS","2","category2/CS10.png","","","","",""
"","html-keyboard-response","50","319463","0.0-6.0-4.0-0.2","a2lvo6ypua","one_one","1","direct_first","1","nn06el18","0","22","1","1","3","1","","0","1","0","null","","","<div class = 'row'><div class = 'column'><img src = 'uspos/2160.bmp' width = '100%;'></div><div class = 'column'><img src = 'category3/CS1.png' width = '70%;'></div></div>","null","pos","CS","CS","3","category3/CS1.png","","","","",""
"","html-keyboard-response","51","321967","0.0-6.0-4.0-0.3","a2lvo6ypua","one_one","1","direct_first","1","nn06el18","0","22","1","1","3","1","","0","1","0","null","","","<div class = 'row'><div class = 'column'><img src = 'category4/CS3.png' width = '70%;'></div><div class = 'column'><img src = 'uspos/1440.bmp' width = '100%;'></div></div>","null","pos","CS","CS","4","category4/CS3.png","","","","",""
"","html-keyboard-response","52","324472","0.0-6.0-4.0-0.4","a2lvo6ypua","one_one","1","direct_first","1","nn06el18","0","22","1","1","3","1","","0","1","0","null","","","<div class = 'row'><div class = 'column'><img src = 'uspos/2160.bmp' width = '100%;'></div><div class = 'column'><img src = 'category3/CS1.png' width = '70%;'></div></div>","null","pos","CS","CS","3","category3/CS1.png","","","","",""
"","html-keyboard-response","53","326980","0.0-6.0-4.0-0.5","a2lvo6ypua","one_one","1","direct_first","1","nn06el18","0","22","1","1","3","1","","0","1","0","null","","","<div class = 'row'><div class = 'column'><img src = 'usneg/2900.bmp' width = '100%;'></div><div class = 'column'><img src = 'category1/CS9.png' width = '70%;'></div></div>","null","neg","CS","CS","1","category1/CS9.png","","","","",""
"","html-keyboard-response","54","329484","0.0-6.0-4.0-0.6","a2lvo6ypua","one_one","1","direct_first","1","nn06el18","0","22","1","1","3","1","","0","1","0","null","","","<div class = 'row'><div class = 'column'><img src = 'category4/CS3.png' width = '70%;'></div><div class = 'column'><img src = 'uspos/1440.bmp' width = '100%;'></div></div>","null","pos","CS","CS","4","category4/CS3.png","","","","",""
"","html-keyboard-response","55","331990","0.0-6.0-4.0-0.7","a2lvo6ypua","one_one","1","direct_first","1","nn06el18","0","22","1","1","3","1","","0","1","0","null","","","<div class = 'row'><div class = 'column'><img src = 'category2/CS10.png' width = '70%;'></div><div class = 'column'><img src = 'usneg/6212.bmp' width = '100%;'></div></div>","null","neg","CS","CS","2","category2/CS10.png","","","","",""
"","html-keyboard-response","56","334496","0.0-6.0-4.0-0.8","a2lvo6ypua","one_one","1","direct_first","1","nn06el18","0","22","1","1","3","1","","0","1","0","null","","","<div class = 'row'><div class = 'column'><img src = 'uspos/1440.bmp' width = '100%;'></div><div class = 'column'><img src = 'category4/CS3.png' width = '70%;'></div></div>","null","pos","CS","CS","4","category4/CS3.png","","","","",""
"","html-keyboard-response","57","337001","0.0-6.0-4.0-0.9","a2lvo6ypua","one_one","1","direct_first","1","nn06el18","0","22","1","1","3","1","","0","1","0","null","","","<div class = 'row'><div class = 'column'><img src = 'category2/CS10.png' width = '70%;'></div><div class = 'column'><img src = 'usneg/6212.bmp' width = '100%;'></div></div>","null","neg","CS","CS","2","category2/CS10.png","","","","",""
"","html-keyboard-response","58","339506","0.0-6.0-4.0-0.10","a2lvo6ypua","one_one","1","direct_first","1","nn06el18","0","22","1","1","3","1","","0","1","0","null","","","<div class = 'row'><div class = 'column'><img src = 'uspos/2160.bmp' width = '100%;'></div><div class = 'column'><img src = 'category3/CS1.png' width = '70%;'></div></div>","null","pos","CS","CS","3","category3/CS1.png","","","","",""
"","html-keyboard-response","59","342011","0.0-6.0-4.0-0.11","a2lvo6ypua","one_one","1","direct_first","1","nn06el18","0","22","1","1","3","1","","0","1","0","null","","","<div class = 'row'><div class = 'column'><img src = 'category1/CS9.png' width = '70%;'></div><div class = 'column'><img src = 'usneg/2900.bmp' width = '100%;'></div></div>","null","neg","CS","CS","1","category1/CS9.png","","","","",""
"","html-keyboard-response","60","344518","0.0-6.0-4.0-0.12","a2lvo6ypua","one_one","1","direct_first","1","nn06el18","0","22","1","1","3","1","","0","1","0","null","","","<div class = 'row'><div class = 'column'><img src = 'category3/CS1.png' width = '70%;'></div><div class = 'column'><img src = 'uspos/2160.bmp' width = '100%;'></div></div>","null","pos","CS","CS","3","category3/CS1.png","","","","",""
"","html-keyboard-response","61","347024","0.0-6.0-4.0-0.13","a2lvo6ypua","one_one","1","direct_first","1","nn06el18","0","22","1","1","3","1","","0","1","0","null","","","<div class = 'row'><div class = 'column'><img src = 'usneg/2900.bmp' width = '100%;'></div><div class = 'column'><img src = 'category1/CS9.png' width = '70%;'></div></div>","null","neg","CS","CS","1","category1/CS9.png","","","","",""
"","html-keyboard-response","62","349529","0.0-6.0-4.0-0.14","a2lvo6ypua","one_one","1","direct_first","1","nn06el18","0","22","1","1","3","1","","0","1","0","null","","","<div class = 'row'><div class = 'column'><img src = 'category4/CS3.png' width = '70%;'></div><div class = 'column'><img src = 'uspos/1440.bmp' width = '100%;'></div></div>","null","pos","CS","CS","4","category4/CS3.png","","","","",""
"","html-keyboard-response","63","352035","0.0-6.0-4.0-0.15","a2lvo6ypua","one_one","1","direct_first","1","nn06el18","0","22","1","1","3","1","","0","1","0","null","","","<div class = 'row'><div class = 'column'><img src = 'usneg/6212.bmp' width = '100%;'></div><div class = 'column'><img src = 'category2/CS10.png' width = '70%;'></div></div>","null","neg","CS","CS","2","category2/CS10.png","","","","",""
"","html-keyboard-response","64","354542","0.0-6.0-4.0-0.16","a2lvo6ypua","one_one","1","direct_first","1","nn06el18","0","22","1","1","3","1","","0","1","0","null","","","<div class = 'row'><div class = 'column'><img src = 'category3/CS1.png' width = '70%;'></div><div class = 'column'><img src = 'uspos/2160.bmp' width = '100%;'></div></div>","null","pos","CS","CS","3","category3/CS1.png","","","","",""
"","html-keyboard-response","65","357047","0.0-6.0-4.0-0.17","a2lvo6ypua","one_one","1","direct_first","1","nn06el18","0","22","1","1","3","1","","0","1","0","null","","","<div class = 'row'><div class = 'column'><img src = 'category4/CS3.png' width = '70%;'></div><div class = 'column'><img src = 'uspos/1440.bmp' width = '100%;'></div></div>","null","pos","CS","CS","4","category4/CS3.png","","","","",""
"","html-keyboard-response","66","359553","0.0-6.0-4.0-0.18","a2lvo6ypua","one_one","1","direct_first","1","nn06el18","0","22","1","1","3","1","","0","1","0","null","","","<div class = 'row'><div class = 'column'><img src = 'usneg/2900.bmp' width = '100%;'></div><div class = 'column'><img src = 'category1/CS9.png' width = '70%;'></div></div>","null","neg","CS","CS","1","category1/CS9.png","","","","",""
"","html-keyboard-response","67","362059","0.0-6.0-4.0-0.19","a2lvo6ypua","one_one","1","direct_first","1","nn06el18","0","22","1","1","3","1","","0","1","0","null","","","<div class = 'row'><div class = 'column'><img src = 'category2/CS10.png' width = '70%;'></div><div class = 'column'><img src = 'usneg/6212.bmp' width = '100%;'></div></div>","null","neg","CS","CS","2","category2/CS10.png","","","","",""
"","survey-html-form","68","364619","0.0-6.0-5.0","a2lvo6ypua","one_one","1","direct_first","1","nn06el18","0","22","1","1","3","1","","0","1","0","2058.275000017602","","{}","","","","","","","","","","","",""
"","html-keyboard-response","69","368632","0.0-6.0-6.0-0.0","a2lvo6ypua","one_one","1","direct_first","1","nn06el18","0","22","1","1","3","1","","0","1","0","null","","","<div class = 'row'><div class = 'column'><img src = 'usneg/2900.bmp' width = '100%;'></div><div class = 'column'><img src = 'category1/CS9.png' width = '70%;'></div></div>","null","neg","CS","CS","1","category1/CS9.png","","","","",""
"","html-keyboard-response","70","371138","0.0-6.0-6.0-0.1","a2lvo6ypua","one_one","1","direct_first","1","nn06el18","0","22","1","1","3","1","","0","1","0","null","","","<div class = 'row'><div class = 'column'><img src = 'category2/CS10.png' width = '70%;'></div><div class = 'column'><img src = 'usneg/6212.bmp' width = '100%;'></div></div>","null","neg","CS","CS","2","category2/CS10.png","","","","",""
"","html-keyboard-response","71","373643","0.0-6.0-6.0-0.2","a2lvo6ypua","one_one","1","direct_first","1","nn06el18","0","22","1","1","3","1","","0","1","0","null","","","<div class = 'row'><div class = 'column'><img src = 'category4/CS3.png' width = '70%;'></div><div class = 'column'><img src = 'uspos/1440.bmp' width = '100%;'></div></div>","null","pos","CS","CS","4","category4/CS3.png","","","","",""
"","html-keyboard-response","72","376148","0.0-6.0-6.0-0.3","a2lvo6ypua","one_one","1","direct_first","1","nn06el18","0","22","1","1","3","1","","0","1","0","null","","","<div class = 'row'><div class = 'column'><img src = 'uspos/2160.bmp' width = '100%;'></div><div class = 'column'><img src = 'category3/CS1.png' width = '70%;'></div></div>","null","pos","CS","CS","3","category3/CS1.png","","","","",""
"","html-keyboard-response","73","378654","0.0-6.0-6.0-0.4","a2lvo6ypua","one_one","1","direct_first","1","nn06el18","0","22","1","1","3","1","","0","1","0","null","","","<div class = 'row'><div class = 'column'><img src = 'category2/CS10.png' width = '70%;'></div><div class = 'column'><img src = 'usneg/6212.bmp' width = '100%;'></div></div>","null","neg","CS","CS","2","category2/CS10.png","","","","",""
"","html-keyboard-response","74","381163","0.0-6.0-6.0-0.5","a2lvo6ypua","one_one","1","direct_first","1","nn06el18","0","22","1","1","3","1","","0","1","0","null","","","<div class = 'row'><div class = 'column'><img src = 'category4/CS3.png' width = '70%;'></div><div class = 'column'><img src = 'uspos/1440.bmp' width = '100%;'></div></div>","null","pos","CS","CS","4","category4/CS3.png","","","","",""
"","html-keyboard-response","75","383668","0.0-6.0-6.0-0.6","a2lvo6ypua","one_one","1","direct_first","1","nn06el18","0","22","1","1","3","1","","0","1","0","null","","","<div class = 'row'><div class = 'column'><img src = 'uspos/2160.bmp' width = '100%;'></div><div class = 'column'><img src = 'category3/CS1.png' width = '70%;'></div></div>","null","pos","CS","CS","3","category3/CS1.png","","","","",""
"","html-keyboard-response","76","386172","0.0-6.0-6.0-0.7","a2lvo6ypua","one_one","1","direct_first","1","nn06el18","0","22","1","1","3","1","","0","1","0","null","","","<div class = 'row'><div class = 'column'><img src = 'uspos/1440.bmp' width = '100%;'></div><div class = 'column'><img src = 'category4/CS3.png' width = '70%;'></div></div>","null","pos","CS","CS","4","category4/CS3.png","","","","",""
"","html-keyboard-response","77","388677","0.0-6.0-6.0-0.8","a2lvo6ypua","one_one","1","direct_first","1","nn06el18","0","22","1","1","3","1","","0","1","0","null","","","<div class = 'row'><div class = 'column'><img src = 'category1/CS9.png' width = '70%;'></div><div class = 'column'><img src = 'usneg/2900.bmp' width = '100%;'></div></div>","null","neg","CS","CS","1","category1/CS9.png","","","","",""
"","html-keyboard-response","78","391183","0.0-6.0-6.0-0.9","a2lvo6ypua","one_one","1","direct_first","1","nn06el18","0","22","1","1","3","1","","0","1","0","null","","","<div class = 'row'><div class = 'column'><img src = 'uspos/2160.bmp' width = '100%;'></div><div class = 'column'><img src = 'category3/CS1.png' width = '70%;'></div></div>","null","pos","CS","CS","3","category3/CS1.png","","","","",""
"","html-keyboard-response","79","393689","0.0-6.0-6.0-0.10","a2lvo6ypua","one_one","1","direct_first","1","nn06el18","0","22","1","1","3","1","","0","1","0","null","","","<div class = 'row'><div class = 'column'><img src = 'category4/CS3.png' width = '70%;'></div><div class = 'column'><img src = 'uspos/1440.bmp' width = '100%;'></div></div>","null","pos","CS","CS","4","category4/CS3.png","","","","",""
"","html-keyboard-response","80","396193","0.0-6.0-6.0-0.11","a2lvo6ypua","one_one","1","direct_first","1","nn06el18","0","22","1","1","3","1","","0","1","0","null","","","<div class = 'row'><div class = 'column'><img src = 'usneg/6212.bmp' width = '100%;'></div><div class = 'column'><img src = 'category2/CS10.png' width = '70%;'></div></div>","null","neg","CS","CS","2","category2/CS10.png","","","","",""
"","html-keyboard-response","81","398699","0.0-6.0-6.0-0.12","a2lvo6ypua","one_one","1","direct_first","1","nn06el18","0","22","1","1","3","1","","0","1","0","null","","","<div class = 'row'><div class = 'column'><img src = 'category1/CS9.png' width = '70%;'></div><div class = 'column'><img src = 'usneg/2900.bmp' width = '100%;'></div></div>","null","neg","CS","CS","1","category1/CS9.png","","","","",""
"","html-keyboard-response","82","401215","0.0-6.0-6.0-0.13","a2lvo6ypua","one_one","1","direct_first","1","nn06el18","0","22","1","1","3","1","","0","1","0","null","","","<div class = 'row'><div class = 'column'><img src = 'usneg/6212.bmp' width = '100%;'></div><div class = 'column'><img src = 'category2/CS10.png' width = '70%;'></div></div>","null","neg","CS","CS","2","category2/CS10.png","","","","",""
"","html-keyboard-response","83","403724","0.0-6.0-6.0-0.14","a2lvo6ypua","one_one","1","direct_first","1","nn06el18","0","22","1","1","3","1","","0","1","0","null","","","<div class = 'row'><div class = 'column'><img src = 'usneg/2900.bmp' width = '100%;'></div><div class = 'column'><img src = 'category1/CS9.png' width = '70%;'></div></div>","null","neg","CS","CS","1","category1/CS9.png","","","","",""
"","html-keyboard-response","84","406228","0.0-6.0-6.0-0.15","a2lvo6ypua","one_one","1","direct_first","1","nn06el18","0","22","1","1","3","1","","0","1","0","null","","","<div class = 'row'><div class = 'column'><img src = 'category2/CS10.png' width = '70%;'></div><div class = 'column'><img src = 'usneg/6212.bmp' width = '100%;'></div></div>","null","neg","CS","CS","2","category2/CS10.png","","","","",""
"","html-keyboard-response","85","408733","0.0-6.0-6.0-0.16","a2lvo6ypua","one_one","1","direct_first","1","nn06el18","0","22","1","1","3","1","","0","1","0","null","","","<div class = 'row'><div class = 'column'><img src = 'uspos/2160.bmp' width = '100%;'></div><div class = 'column'><img src = 'category3/CS1.png' width = '70%;'></div></div>","null","pos","CS","CS","3","category3/CS1.png","","","","",""
"","html-keyboard-response","86","411238","0.0-6.0-6.0-0.17","a2lvo6ypua","one_one","1","direct_first","1","nn06el18","0","22","1","1","3","1","","0","1","0","null","","","<div class = 'row'><div class = 'column'><img src = 'category1/CS9.png' width = '70%;'></div><div class = 'column'><img src = 'usneg/2900.bmp' width = '100%;'></div></div>","null","neg","CS","CS","1","category1/CS9.png","","","","",""
"","html-keyboard-response","87","413743","0.0-6.0-6.0-0.18","a2lvo6ypua","one_one","1","direct_first","1","nn06el18","0","22","1","1","3","1","","0","1","0","null","","","<div class = 'row'><div class = 'column'><img src = 'category3/CS1.png' width = '70%;'></div><div class = 'column'><img src = 'uspos/2160.bmp' width = '100%;'></div></div>","null","pos","CS","CS","3","category3/CS1.png","","","","",""
"","html-keyboard-response","88","416248","0.0-6.0-6.0-0.19","a2lvo6ypua","one_one","1","direct_first","1","nn06el18","0","22","1","1","3","1","","0","1","0","null","","","<div class = 'row'><div class = 'column'><img src = 'uspos/1440.bmp' width = '100%;'></div><div class = 'column'><img src = 'category4/CS3.png' width = '70%;'></div></div>","null","pos","CS","CS","4","category4/CS3.png","","","","",""
"","survey-html-form","89","427540","0.0-7.0","a2lvo6ypua","one_one","1","direct_first","1","nn06el18","0","22","1","1","3","1","","0","1","0","10789.809999987483","","{}","","","","","","","","","","","",""
"","image-slider-response","90","436505","0.0-8.0-0.0","a2lvo6ypua","one_one","1","direct_first","1","nn06el18","0","22","1","1","3","1","","0","1","0","6957.454999967013","","","","","pos","GS","GSnew","3","category3/GS1.png","54","targets/18.png","direct","",""
"","image-slider-response","91","441613","0.0-8.0-0.1","a2lvo6ypua","one_one","1","direct_first","1","nn06el18","0","22","1","1","3","1","","0","1","0","5103.5399999818765","","","","","neg","GS","GSnew","2","category2/GS3.png","30","targets/48.png","direct","",""
"","image-slider-response","92","446535","0.0-8.0-0.2","a2lvo6ypua","one_one","1","direct_first","1","nn06el18","0","22","1","1","3","1","","0","1","0","4918.60999999335","","","","","pos","GS","abstract","4","category4/lin.png","-25","targets/24.png","direct","",""
"","image-slider-response","93","450411","0.0-8.0-0.3","a2lvo6ypua","one_one","1","direct_first","1","nn06el18","0","22","1","1","3","1","","0","1","0","3872.8899999987334","","","","","pos","GS","GSnew","4","category4/GS3.png","21","targets/11.png","direct","",""
"","image-slider-response","94","456186","0.0-8.0-0.4","a2lvo6ypua","one_one","1","direct_first","1","nn06el18","0","22","1","1","3","1","","0","1","0","5770.690000033937","","","","","neg","GS","GSnew","1","category1/GS2.png","14","targets/30.png","direct","",""
"","image-slider-response","95","460437","0.0-8.0-0.5","a2lvo6ypua","one_one","1","direct_first","1","nn06el18","0","22","1","1","3","1","","0","1","0","4247.715000004973","","","","","pos","GS","GSold","4","category4/CS1.png","-7","targets/9.png","direct","",""
"","image-slider-response","96","465511","0.0-8.0-0.6","a2lvo6ypua","one_one","1","direct_first","1","nn06el18","0","22","1","1","3","1","","0","1","0","5070.54500002414","","","","","neg","GS","GSold","2","category2/CS3.png","-23","targets/3.png","direct","",""
"","image-slider-response","97","469707","0.0-8.0-0.7","a2lvo6ypua","one_one","1","direct_first","1","nn06el18","0","22","1","1","3","1","","0","1","0","4192.864999989979","","","","","pos","GS","GSnew","4","category4/GS2.png","-12","targets/31.png","direct","",""
"","image-slider-response","98","472864","0.0-8.0-0.8","a2lvo6ypua","one_one","1","direct_first","1","nn06el18","0","22","1","1","3","1","","0","1","0","3153.615000017453","","","","","pos","GS","abstract","3","category3/wang.png","21","targets/13.png","direct","",""
"","image-slider-response","99","478948","0.0-8.0-0.9","a2lvo6ypua","one_one","1","direct_first","1","nn06el18","0","22","1","1","3","1","","0","1","0","6081.264999986161","","","","","neg","CS","CS","2","category2/CS10.png","14","targets/21.png","direct","",""
"","image-slider-response","100","483520","0.0-8.0-0.10","a2lvo6ypua","one_one","1","direct_first","1","nn06el18","0","22","1","1","3","1","","0","1","0","4567.954999976791","","","","","pos","GS","GSold","3","category3/CS9.png","-9","targets/6.png","direct","",""
"","image-slider-response","101","486285","0.0-8.0-0.11","a2lvo6ypua","one_one","1","direct_first","1","nn06el18","0","22","1","1","3","1","","0","1","0","2759.9349999800324","","","","","pos","CS","CS","3","category3/CS1.png","28","targets/40.png","direct","",""
"","image-slider-response","102","489766","0.0-8.0-0.12","a2lvo6ypua","one_one","1","direct_first","1","nn06el18","0","22","1","1","3","1","","0","1","0","3477.1900000050664","","","","","pos","GS","GSold","3","category3/CS4.png","-1","targets/35.png","direct","",""
"","image-slider-response","103","494638","0.0-8.0-0.13","a2lvo6ypua","one_one","1","direct_first","1","nn06el18","0","22","1","1","3","1","","0","1","0","4867.0550000388175","","","","","pos","CS","CS","4","category4/CS3.png","23","targets/16.png","direct","",""
"","image-slider-response","104","498110","0.0-8.0-0.14","a2lvo6ypua","one_one","1","direct_first","1","nn06el18","0","22","1","1","3","1","","0","1","0","3468.704999948386","","","","","pos","GS","GSnew","3","category3/GS2.png","20","targets/38.png","direct","",""
"","image-slider-response","105","501906","0.0-8.0-0.15","a2lvo6ypua","one_one","1","direct_first","1","nn06el18","0","22","1","1","3","1","","0","1","0","3792.3350000055507","","","","","neg","GS","GSnew","1","category1/GS1.png","13","targets/32.png","direct","",""
"","image-slider-response","106","506464","0.0-8.0-0.16","a2lvo6ypua","one_one","1","direct_first","1","nn06el18","0","22","1","1","3","1","","0","1","0","4553.330000024289","","","","","neg","CS","CS","1","category1/CS9.png","42","targets/14.png","direct","",""
"","image-slider-response","107","510031","0.0-8.0-0.17","a2lvo6ypua","one_one","1","direct_first","1","nn06el18","0","22","1","1","3","1","","0","1","0","3561.249999969732","","","","","neg","GS","GSold","2","category2/CS5.png","-22","targets/2.png","direct","",""
"","image-slider-response","108","513601","0.0-8.0-0.18","a2lvo6ypua","one_one","1","direct_first","1","nn06el18","0","22","1","1","3","1","","0","1","0","3566.2850000080653","","","","","neg","GS","GSnew","2","category2/GS1.png","-22","targets/25.png","direct","",""
"","image-slider-response","109","519529","0.0-8.0-0.19","a2lvo6ypua","one_one","1","direct_first","1","nn06el18","0","22","1","1","3","1","","0","1","0","5926.269999996293","","","","","neg","GS","abstract","1","category1/ma.png","15","targets/8.png","direct","",""
"","image-slider-response","110","523072","0.0-8.0-0.20","a2lvo6ypua","one_one","1","direct_first","1","nn06el18","0","22","1","1","3","1","","0","1","0","3537.2150000184774","","","","","pos","GS","GSnew","4","category4/GS1.png","22","targets/22.png","direct","",""
"","image-slider-response","111","527545","0.0-8.0-0.21","a2lvo6ypua","one_one","1","direct_first","1","nn06el18","0","22","1","1","3","1","","0","1","0","4467.780000006314","","","","","neg","GS","GSnew","1","category1/GS3.png","29","targets/4.png","direct","",""
"","image-slider-response","112","531687","0.0-8.0-0.22","a2lvo6ypua","one_one","1","direct_first","1","nn06el18","0","22","1","1","3","1","","0","1","0","4139.134999946691","","","","","pos","GS","GSold","4","category4/CS4.png","-2","targets/15.png","direct","",""
"","image-slider-response","113","542837","0.0-8.0-0.23","a2lvo6ypua","one_one","1","direct_first","1","nn06el18","0","22","1","1","3","1","","0","1","0","11146.215000015218","","","","","pos","GS","GSnew","3","category3/GS3.png","-6","targets/46.png","direct","",""
"","image-slider-response","114","550569","0.0-8.0-0.24","a2lvo6ypua","one_one","1","direct_first","1","nn06el18","0","22","1","1","3","1","","0","1","0","7728.5899999551475","","","","","pos","GS","GSold","3","category3/CS7.png","-36","targets/42.png","direct","",""
"","image-slider-response","115","555681","0.0-8.0-0.25","a2lvo6ypua","one_one","1","direct_first","1","nn06el18","0","22","1","1","3","1","","0","1","0","5109.360000002198","","","","","neg","GS","GSold","1","category1/CS4.png","14","targets/47.png","direct","",""
"","image-slider-response","116","561518","0.0-8.0-0.26","a2lvo6ypua","one_one","1","direct_first","1","nn06el18","0","22","1","1","3","1","","0","1","0","5833.53000000352","","","","","pos","GS","GSold","4","category4/CS9.png","10","targets/37.png","direct","",""
"","image-slider-response","117","564099","0.0-8.0-0.27","a2lvo6ypua","one_one","1","direct_first","1","nn06el18","0","22","1","1","3","1","","0","1","0","2577.380000031553","","","","","neg","GS","GSold","1","category1/CS7.png","28","targets/1.png","direct","",""
"","image-slider-response","118","569456","0.0-8.0-0.28","a2lvo6ypua","one_one","1","direct_first","1","nn06el18","0","22","1","1","3","1","","0","1","0","5354.565000045113","","","","","neg","GS","GSold","2","category2/CS6.png","14","targets/17.png","direct","",""
"","image-slider-response","119","573623","0.0-8.0-0.29","a2lvo6ypua","one_one","1","direct_first","1","nn06el18","0","22","1","1","3","1","","0","1","0","4163.705000013579","","","","","neg","GS","GSnew","2","category2/GS2.png","-39","targets/7.png","direct","",""
"","image-slider-response","120","576257","0.0-8.0-0.30","a2lvo6ypua","one_one","1","direct_first","1","nn06el18","0","22","1","1","3","1","","0","1","0","2629.460000025574","","","","","neg","GS","GSold","1","category1/CS5.png","32","targets/20.png","direct","",""
"","image-slider-response","121","579505","0.0-8.0-0.31","a2lvo6ypua","one_one","1","direct_first","1","nn06el18","0","22","1","1","3","1","","0","1","0","3245.1799999689683","","","","","neg","GS","abstract","2","category2/men.png","-32","targets/43.png","direct","",""
"","html-keyboard-response","122","621562","0.0-9.0","a2lvo6ypua","one_one","1","direct_first","1","nn06el18","0","22","1","1","3","1","","0","1","0","42053.56500000926","","","<p>Sie sehen nun die chinesischen Zeichen nur ganz kurz. Danach sehen Sie die jeweilige Aussprache der Zeichen als Silbe auf dem Bildschrim. Ihre Aufgabe ist es, für jede Silbe anzugeben, ob diese etwas angenehmes, oder unangenehmes bedeuten könnte. Verlassen Sie sich hier vor allem auf Ihre Intuition.<br><br>Die Zeichen werden nur zur Orientierung dargestellt, beachten Sie sie deshalb nicht. Konzentrieren Sie sich vor allem auf die Silben. <br>Reagieren Sie mit folgenden zwei Tasten: <br><br><b>'D' </b> wenn die Silbe etwas <b>unangenehmes</b> bedeuten könnte. <br><b>'K'</b> wenn die Silbe etwas <b>angenehmes</b> bedeuten könnte. <br><br>Bitte legen Sie nun den Zeigefinger der linken Hand auf die Taste 'D' und den Zeigefinger der rechten Hand auf die Taste 'K'. <br>Reagieren Sie auf jede Silbe so schnell wie möglich. Uns interessiert Ihre spontane Reaktion. <br> <br> <br>Drücken Sie 'D' oder 'K', um die nächste Aufgabe zu starten. </p>","68","","","","","","","","","",""
"","html-keyboard-response","123","624565","0.0-10.0-0.0","a2lvo6ypua","one_one","1","direct_first","1","nn06el18","0","22","1","1","3","1","","0","1","0","null","","","<div style=""font-size:60px;"">+</div>","null","","","","","","","","","",""
"","html-keyboard-response","124","624658","0.0-10.0-1.0","a2lvo6ypua","one_one","1","direct_first","1","nn06el18","0","22","1","1","3","1","","0","1","0","null","","","<img src = 'category2/CS10.png' width = '100%;'>","null","","","","","","","","","",""
"","html-keyboard-response","125","624910","0.0-10.0-2.0","a2lvo6ypua","one_one","1","direct_first","1","nn06el18","0","22","1","1","3","1","","0","1","0","null","","","<img src = 'targets/21.png' width = '100%;'>","null","","","","","","","","","",""
"","html-keyboard-response","126","628414","0.0-10.0-3.0","a2lvo6ypua","one_one","1","direct_first","1","nn06el18","0","22","1","1","3","1","","0","1","0","3499.680000008084","","","<img src = 'targets/mask.png' width = '100%;'>","68","neg","CS","CS","2","category2/CS10.png","","targets/21.png","indirect","0","0"
"","html-keyboard-response","127","629918","0.0-10.0-0.1","a2lvo6ypua","one_one","1","direct_first","1","nn06el18","0","22","1","1","3","1","","0","1","0","null","","","<div style=""font-size:60px;"">+</div>","null","","","","","","","","","",""
"","html-keyboard-response","128","630011","0.0-10.0-1.1","a2lvo6ypua","one_one","1","direct_first","1","nn06el18","0","22","1","1","3","1","","0","1","0","null","","","<img src = 'category1/CS9.png' width = '100%;'>","null","","","","","","","","","",""
"","html-keyboard-response","129","630265","0.0-10.0-2.1","a2lvo6ypua","one_one","1","direct_first","1","nn06el18","0","22","1","1","3","1","","0","1","0","null","","","<img src = 'targets/14.png' width = '100%;'>","null","","","","","","","","","",""
"","html-keyboard-response","130","633567","0.0-10.0-3.1","a2lvo6ypua","one_one","1","direct_first","1","nn06el18","0","22","1","1","3","1","","0","1","0","3299.895000003744","","","<img src = 'targets/mask.png' width = '100%;'>","75","neg","CS","CS","1","category1/CS9.png","","targets/14.png","indirect","1","1"
"","html-keyboard-response","131","635070","0.0-10.0-0.2","a2lvo6ypua","one_one","1","direct_first","1","nn06el18","0","22","1","1","3","1","","0","1","0","null","","","<div style=""font-size:60px;"">+</div>","null","","","","","","","","","",""
"","html-keyboard-response","132","635163","0.0-10.0-1.2","a2lvo6ypua","one_one","1","direct_first","1","nn06el18","0","22","1","1","3","1","","0","1","0","null","","","<img src = 'category4/CS3.png' width = '100%;'>","null","","","","","","","","","",""
"","html-keyboard-response","133","635416","0.0-10.0-2.2","a2lvo6ypua","one_one","1","direct_first","1","nn06el18","0","22","1","1","3","1","","0","1","0","null","","","<img src = 'targets/16.png' width = '100%;'>","null","","","","","","","","","",""
"","html-keyboard-response","134","637900","0.0-10.0-3.2","a2lvo6ypua","one_one","1","direct_first","1","nn06el18","0","22","1","1","3","1","","0","1","0","2480.775000003632","","","<img src = 'targets/mask.png' width = '100%;'>","68","pos","CS","CS","4","category4/CS3.png","","targets/16.png","indirect","0","2"
"","html-keyboard-response","135","639403","0.0-10.0-0.3","a2lvo6ypua","one_one","1","direct_first","1","nn06el18","0","22","1","1","3","1","","0","1","0","null","","","<div style=""font-size:60px;"">+</div>","null","","","","","","","","","",""
"","html-keyboard-response","136","639496","0.0-10.0-1.3","a2lvo6ypua","one_one","1","direct_first","1","nn06el18","0","22","1","1","3","1","","0","1","0","null","","","<img src = 'category4/CS9.png' width = '100%;'>","null","","","","","","","","","",""
"","html-keyboard-response","137","639750","0.0-10.0-2.3","a2lvo6ypua","one_one","1","direct_first","1","nn06el18","0","22","1","1","3","1","","0","1","0","null","","","<img src = 'targets/37.png' width = '100%;'>","null","","","","","","","","","",""
"","html-keyboard-response","138","640790","0.0-10.0-3.3","a2lvo6ypua","one_one","1","direct_first","1","nn06el18","0","22","1","1","3","1","","0","1","0","1036.7850000038743","","","<img src = 'targets/mask.png' width = '100%;'>","75","pos","GS","GSold","4","category4/CS9.png","","targets/37.png","indirect","1","3"
"","html-keyboard-response","139","642291","0.0-10.0-0.4","a2lvo6ypua","one_one","1","direct_first","1","nn06el18","0","22","1","1","3","1","","0","1","0","null","","","<div style=""font-size:60px;"">+</div>","null","","","","","","","","","",""
"","html-keyboard-response","140","642385","0.0-10.0-1.4","a2lvo6ypua","one_one","1","direct_first","1","nn06el18","0","22","1","1","3","1","","0","1","0","null","","","<img src = 'category4/CS4.png' width = '100%;'>","null","","","","","","","","","",""
"","html-keyboard-response","141","642638","0.0-10.0-2.4","a2lvo6ypua","one_one","1","direct_first","1","nn06el18","0","22","1","1","3","1","","0","1","0","null","","","<img src = 'targets/15.png' width = '100%;'>","null","","","","","","","","","",""
"","html-keyboard-response","142","643385","0.0-10.0-3.4","a2lvo6ypua","one_one","1","direct_first","1","nn06el18","0","22","1","1","3","1","","0","1","0","745.1299999956973","","","<img src = 'targets/mask.png' width = '100%;'>","68","pos","GS","GSold","4","category4/CS4.png","","targets/15.png","indirect","0","4"
"","html-keyboard-response","143","644887","0.0-10.0-0.5","a2lvo6ypua","one_one","1","direct_first","1","nn06el18","0","22","1","1","3","1","","0","1","0","null","","","<div style=""font-size:60px;"">+</div>","null","","","","","","","","","",""
"","html-keyboard-response","144","644980","0.0-10.0-1.5","a2lvo6ypua","one_one","1","direct_first","1","nn06el18","0","22","1","1","3","1","","0","1","0","null","","","<img src = 'category4/CS1.png' width = '100%;'>","null","","","","","","","","","",""
"","html-keyboard-response","145","645233","0.0-10.0-2.5","a2lvo6ypua","one_one","1","direct_first","1","nn06el18","0","22","1","1","3","1","","0","1","0","null","","","<img src = 'targets/9.png' width = '100%;'>","null","","","","","","","","","",""
"","html-keyboard-response","146","645868","0.0-10.0-3.5","a2lvo6ypua","one_one","1","direct_first","1","nn06el18","0","22","1","1","3","1","","0","1","0","632.6000000117347","","","<img src = 'targets/mask.png' width = '100%;'>","68","pos","GS","GSold","4","category4/CS1.png","","targets/9.png","indirect","0","5"
"","html-keyboard-response","147","647372","0.0-10.0-0.6","a2lvo6ypua","one_one","1","direct_first","1","nn06el18","0","22","1","1","3","1","","0","1","0","null","","","<div style=""font-size:60px;"">+</div>","null","","","","","","","","","",""
"","html-keyboard-response","148","647464","0.0-10.0-1.6","a2lvo6ypua","one_one","1","direct_first","1","nn06el18","0","22","1","1","3","1","","0","1","0","null","","","<img src = 'category3/CS9.png' width = '100%;'>","null","","","","","","","","","",""
"","html-keyboard-response","149","647716","0.0-10.0-2.6","a2lvo6ypua","one_one","1","direct_first","1","nn06el18","0","22","1","1","3","1","","0","1","0","null","","","<img src = 'targets/6.png' width = '100%;'>","null","","","","","","","","","",""
"","html-keyboard-response","150","648391","0.0-10.0-3.6","a2lvo6ypua","one_one","1","direct_first","1","nn06el18","0","22","1","1","3","1","","0","1","0","672.1749999560416","","","<img src = 'targets/mask.png' width = '100%;'>","75","pos","GS","GSold","3","category3/CS9.png","","targets/6.png","indirect","1","6"
"","html-keyboard-response","151","649894","0.0-10.0-0.7","a2lvo6ypua","one_one","1","direct_first","1","nn06el18","0","22","1","1","3","1","","0","1","0","null","","","<div style=""font-size:60px;"">+</div>","null","","","","","","","","","",""
"","html-keyboard-response","152","649986","0.0-10.0-1.7","a2lvo6ypua","one_one","1","direct_first","1","nn06el18","0","22","1","1","3","1","","0","1","0","null","","","<img src = 'category1/CS7.png' width = '100%;'>","null","","","","","","","","","",""
"","html-keyboard-response","153","650239","0.0-10.0-2.7","a2lvo6ypua","one_one","1","direct_first","1","nn06el18","0","22","1","1","3","1","","0","1","0","null","","","<img src = 'targets/1.png' width = '100%;'>","null","","","","","","","","","",""
"","html-keyboard-response","154","653132","0.0-10.0-3.7","a2lvo6ypua","one_one","1","direct_first","1","nn06el18","0","22","1","1","3","1","","0","1","0","2890.674999973271","","","<img src = 'targets/mask.png' width = '100%;'>","75","neg","GS","GSold","1","category1/CS7.png","","targets/1.png","indirect","1","7"
"","html-keyboard-response","155","654634","0.0-10.0-0.8","a2lvo6ypua","one_one","1","direct_first","1","nn06el18","0","22","1","1","3","1","","0","1","0","null","","","<div style=""font-size:60px;"">+</div>","null","","","","","","","","","",""
"","html-keyboard-response","156","654727","0.0-10.0-1.8","a2lvo6ypua","one_one","1","direct_first","1","nn06el18","0","22","1","1","3","1","","0","1","0","null","","","<img src = 'category1/CS5.png' width = '100%;'>","null","","","","","","","","","",""
"","html-keyboard-response","157","654981","0.0-10.0-2.8","a2lvo6ypua","one_one","1","direct_first","1","nn06el18","0","22","1","1","3","1","","0","1","0","null","","","<img src = 'targets/20.png' width = '100%;'>","null","","","","","","","","","",""
"","html-keyboard-response","158","657250","0.0-10.0-3.8","a2lvo6ypua","one_one","1","direct_first","1","nn06el18","0","22","1","1","3","1","","0","1","0","2265.849999967031","","","<img src = 'targets/mask.png' width = '100%;'>","75","neg","GS","GSold","1","category1/CS5.png","","targets/20.png","indirect","1","8"
"","html-keyboard-response","159","658753","0.0-10.0-0.9","a2lvo6ypua","one_one","1","direct_first","1","nn06el18","0","22","1","1","3","1","","0","1","0","null","","","<div style=""font-size:60px;"">+</div>","null","","","","","","","","","",""
"","html-keyboard-response","160","658847","0.0-10.0-1.9","a2lvo6ypua","one_one","1","direct_first","1","nn06el18","0","22","1","1","3","1","","0","1","0","null","","","<img src = 'category2/CS6.png' width = '100%;'>","null","","","","","","","","","",""
"","html-keyboard-response","161","659101","0.0-10.0-2.9","a2lvo6ypua","one_one","1","direct_first","1","nn06el18","0","22","1","1","3","1","","0","1","0","null","","","<img src = 'targets/17.png' width = '100%;'>","null","","","","","","","","","",""
"","html-keyboard-response","162","660432","0.0-10.0-3.9","a2lvo6ypua","one_one","1","direct_first","1","nn06el18","0","22","1","1","3","1","","0","1","0","1328.1899999710731","","","<img src = 'targets/mask.png' width = '100%;'>","68","neg","GS","GSold","2","category2/CS6.png","","targets/17.png","indirect","0","9"
"","html-keyboard-response","163","661935","0.0-10.0-0.10","a2lvo6ypua","one_one","1","direct_first","1","nn06el18","0","22","1","1","3","1","","0","1","0","null","","","<div style=""font-size:60px;"">+</div>","null","","","","","","","","","",""
"","html-keyboard-response","164","662028","0.0-10.0-1.10","a2lvo6ypua","one_one","1","direct_first","1","nn06el18","0","22","1","1","3","1","","0","1","0","null","","","<img src = 'category3/CS4.png' width = '100%;'>","null","","","","","","","","","",""
"","html-keyboard-response","165","662282","0.0-10.0-2.10","a2lvo6ypua","one_one","1","direct_first","1","nn06el18","0","22","1","1","3","1","","0","1","0","null","","","<img src = 'targets/35.png' width = '100%;'>","null","","","","","","","","","",""
"","html-keyboard-response","166","663580","0.0-10.0-3.10","a2lvo6ypua","one_one","1","direct_first","1","nn06el18","0","22","1","1","3","1","","0","1","0","1295.574999996461","","","<img src = 'targets/mask.png' width = '100%;'>","68","pos","GS","GSold","3","category3/CS4.png","","targets/35.png","indirect","0","10"
"","html-keyboard-response","167","665085","0.0-10.0-0.11","a2lvo6ypua","one_one","1","direct_first","1","nn06el18","0","22","1","1","3","1","","0","1","0","null","","","<div style=""font-size:60px;"">+</div>","null","","","","","","","","","",""
"","html-keyboard-response","168","665177","0.0-10.0-1.11","a2lvo6ypua","one_one","1","direct_first","1","nn06el18","0","22","1","1","3","1","","0","1","0","null","","","<img src = 'category1/CS4.png' width = '100%;'>","null","","","","","","","","","",""
"","html-keyboard-response","169","665431","0.0-10.0-2.11","a2lvo6ypua","one_one","1","direct_first","1","nn06el18","0","22","1","1","3","1","","0","1","0","null","","","<img src = 'targets/47.png' width = '100%;'>","null","","","","","","","","","",""
"","html-keyboard-response","170","666090","0.0-10.0-3.11","a2lvo6ypua","one_one","1","direct_first","1","nn06el18","0","22","1","1","3","1","","0","1","0","657.100000011269","","","<img src = 'targets/mask.png' width = '100%;'>","68","neg","GS","GSold","1","category1/CS4.png","","targets/47.png","indirect","0","11"
"","html-keyboard-response","171","667592","0.0-10.0-0.12","a2lvo6ypua","one_one","1","direct_first","1","nn06el18","0","22","1","1","3","1","","0","1","0","null","","","<div style=""font-size:60px;"">+</div>","null","","","","","","","","","",""
"","html-keyboard-response","172","667685","0.0-10.0-1.12","a2lvo6ypua","one_one","1","direct_first","1","nn06el18","0","22","1","1","3","1","","0","1","0","null","","","<img src = 'category3/CS1.png' width = '100%;'>","null","","","","","","","","","",""
"","html-keyboard-response","173","667938","0.0-10.0-2.12","a2lvo6ypua","one_one","1","direct_first","1","nn06el18","0","22","1","1","3","1","","0","1","0","null","","","<img src = 'targets/40.png' width = '100%;'>","null","","","","","","","","","",""
"","html-keyboard-response","174","671083","0.0-10.0-3.12","a2lvo6ypua","one_one","1","direct_first","1","nn06el18","0","22","1","1","3","1","","0","1","0","3143.290000036359","","","<img src = 'targets/mask.png' width = '100%;'>","68","pos","CS","CS","3","category3/CS1.png","","targets/40.png","indirect","0","12"
"","html-keyboard-response","175","672586","0.0-10.0-0.13","a2lvo6ypua","one_one","1","direct_first","1","nn06el18","0","22","1","1","3","1","","0","1","0","null","","","<div style=""font-size:60px;"">+</div>","null","","","","","","","","","",""
"","html-keyboard-response","176","672678","0.0-10.0-1.13","a2lvo6ypua","one_one","1","direct_first","1","nn06el18","0","22","1","1","3","1","","0","1","0","null","","","<img src = 'category2/CS3.png' width = '100%;'>","null","","","","","","","","","",""
"","html-keyboard-response","177","672931","0.0-10.0-2.13","a2lvo6ypua","one_one","1","direct_first","1","nn06el18","0","22","1","1","3","1","","0","1","0","null","","","<img src = 'targets/3.png' width = '100%;'>","null","","","","","","","","","",""
"","html-keyboard-response","178","674017","0.0-10.0-3.13","a2lvo6ypua","one_one","1","direct_first","1","nn06el18","0","22","1","1","3","1","","0","1","0","1084.514999995008","","","<img src = 'targets/mask.png' width = '100%;'>","75","neg","GS","GSold","2","category2/CS3.png","","targets/3.png","indirect","1","13"
"","html-keyboard-response","179","675520","0.0-10.0-0.14","a2lvo6ypua","one_one","1","direct_first","1","nn06el18","0","22","1","1","3","1","","0","1","0","null","","","<div style=""font-size:60px;"">+</div>","null","","","","","","","","","",""
"","html-keyboard-response","180","675612","0.0-10.0-1.14","a2lvo6ypua","one_one","1","direct_first","1","nn06el18","0","22","1","1","3","1","","0","1","0","null","","","<img src = 'category2/CS5.png' width = '100%;'>","null","","","","","","","","","",""
"","html-keyboard-response","181","675867","0.0-10.0-2.14","a2lvo6ypua","one_one","1","direct_first","1","nn06el18","0","22","1","1","3","1","","0","1","0","null","","","<img src = 'targets/2.png' width = '100%;'>","null","","","","","","","","","",""
"","html-keyboard-response","182","677529","0.0-10.0-3.14","a2lvo6ypua","one_one","1","direct_first","1","nn06el18","0","22","1","1","3","1","","0","1","0","1660.1249999948777","","","<img src = 'targets/mask.png' width = '100%;'>","75","neg","GS","GSold","2","category2/CS5.png","","targets/2.png","indirect","1","14"
"","html-keyboard-response","183","679031","0.0-10.0-0.15","a2lvo6ypua","one_one","1","direct_first","1","nn06el18","0","22","1","1","3","1","","0","1","0","null","","","<div style=""font-size:60px;"">+</div>","null","","","","","","","","","",""
"","html-keyboard-response","184","679125","0.0-10.0-1.15","a2lvo6ypua","one_one","1","direct_first","1","nn06el18","0","22","1","1","3","1","","0","1","0","null","","","<img src = 'category3/CS7.png' width = '100%;'>","null","","","","","","","","","",""
"","html-keyboard-response","185","679378","0.0-10.0-2.15","a2lvo6ypua","one_one","1","direct_first","1","nn06el18","0","22","1","1","3","1","","0","1","0","null","","","<img src = 'targets/42.png' width = '100%;'>","null","","","","","","","","","",""
"","html-keyboard-response","186","680210","0.0-10.0-3.15","a2lvo6ypua","one_one","1","direct_first","1","nn06el18","0","22","1","1","3","1","","0","1","0","830.3600000217557","","","<img src = 'targets/mask.png' width = '100%;'>","75","pos","GS","GSold","3","category3/CS7.png","","targets/42.png","indirect","1","15"
"","survey-html-form","187","687212","0.0-11.0","a2lvo6ypua","one_one","1","direct_first","1","nn06el18","0","22","1","1","3","1","","0","1","0","6500.490000005811","","{}","","","","","","","","","","","",""
"","html-keyboard-response","188","690215","0.0-12.0-0.0","a2lvo6ypua","one_one","1","direct_first","1","nn06el18","0","22","1","1","3","1","","0","1","0","null","","","<div style=""font-size:60px;"">+</div>","null","","","","","","","","","",""
"","html-keyboard-response","189","690308","0.0-12.0-1.0","a2lvo6ypua","one_one","1","direct_first","1","nn06el18","0","22","1","1","3","1","","0","1","0","null","","","<img src = 'category3/wang.png' width = '100%;'>","null","","","","","","","","","",""
"","html-keyboard-response","190","690562","0.0-12.0-2.0","a2lvo6ypua","one_one","1","direct_first","1","nn06el18","0","22","1","1","3","1","","0","1","0","null","","","<img src = 'targets/13.png' width = '100%;'>","null","","","","","","","","","",""
"","html-keyboard-response","191","691607","0.0-12.0-3.0","a2lvo6ypua","one_one","1","direct_first","1","nn06el18","0","22","1","1","3","1","","0","1","0","1043.100000009872","","","<img src = 'targets/mask.png' width = '100%;'>","75","pos","GS","abstract","3","category3/wang.png","","targets/13.png","indirect","1","16"
"","html-keyboard-response","192","693109","0.0-12.0-0.1","a2lvo6ypua","one_one","1","direct_first","1","nn06el18","0","22","1","1","3","1","","0","1","0","null","","","<div style=""font-size:60px;"">+</div>","null","","","","","","","","","",""
"","html-keyboard-response","193","693202","0.0-12.0-1.1","a2lvo6ypua","one_one","1","direct_first","1","nn06el18","0","22","1","1","3","1","","0","1","0","null","","","<img src = 'category2/GS1.png' width = '100%;'>","null","","","","","","","","","",""
"","html-keyboard-response","194","693455","0.0-12.0-2.1","a2lvo6ypua","one_one","1","direct_first","1","nn06el18","0","22","1","1","3","1","","0","1","0","null","","","<img src = 'targets/25.png' width = '100%;'>","null","","","","","","","","","",""
"","html-keyboard-response","195","694510","0.0-12.0-3.1","a2lvo6ypua","one_one","1","direct_first","1","nn06el18","0","22","1","1","3","1","","0","1","0","1053.10499999905","","","<img src = 'targets/mask.png' width = '100%;'>","75","neg","GS","GSnew","2","category2/GS1.png","","targets/25.png","indirect","1","17"
"","html-keyboard-response","196","696012","0.0-12.0-0.2","a2lvo6ypua","one_one","1","direct_first","1","nn06el18","0","22","1","1","3","1","","0","1","0","null","","","<div style=""font-size:60px;"">+</div>","null","","","","","","","","","",""
"","html-keyboard-response","197","696105","0.0-12.0-1.2","a2lvo6ypua","one_one","1","direct_first","1","nn06el18","0","22","1","1","3","1","","0","1","0","null","","","<img src = 'category2/GS2.png' width = '100%;'>","null","","","","","","","","","",""
"","html-keyboard-response","198","696359","0.0-12.0-2.2","a2lvo6ypua","one_one","1","direct_first","1","nn06el18","0","22","1","1","3","1","","0","1","0","null","","","<img src = 'targets/7.png' width = '100%;'>","null","","","","","","","","","",""
"","html-keyboard-response","199","696981","0.0-12.0-3.2","a2lvo6ypua","one_one","1","direct_first","1","nn06el18","0","22","1","1","3","1","","0","1","0","620.3999999561347","","","<img src = 'targets/mask.png' width = '100%;'>","68","neg","GS","GSnew","2","category2/GS2.png","","targets/7.png","indirect","0","18"
"","html-keyboard-response","200","698484","0.0-12.0-0.3","a2lvo6ypua","one_one","1","direct_first","1","nn06el18","0","22","1","1","3","1","","0","1","0","null","","","<div style=""font-size:60px;"">+</div>","null","","","","","","","","","",""
"","html-keyboard-response","201","698578","0.0-12.0-1.3","a2lvo6ypua","one_one","1","direct_first","1","nn06el18","0","22","1","1","3","1","","0","1","0","null","","","<img src = 'category3/GS3.png' width = '100%;'>","null","","","","","","","","","",""
"","html-keyboard-response","202","698830","0.0-12.0-2.3","a2lvo6ypua","one_one","1","direct_first","1","nn06el18","0","22","1","1","3","1","","0","1","0","null","","","<img src = 'targets/46.png' width = '100%;'>","null","","","","","","","","","",""
"","html-keyboard-response","203","699486","0.0-12.0-3.3","a2lvo6ypua","one_one","1","direct_first","1","nn06el18","0","22","1","1","3","1","","0","1","0","653.2700000097975","","","<img src = 'targets/mask.png' width = '100%;'>","75","pos","GS","GSnew","3","category3/GS3.png","","targets/46.png","indirect","1","19"
"","html-keyboard-response","204","700990","0.0-12.0-0.4","a2lvo6ypua","one_one","1","direct_first","1","nn06el18","0","22","1","1","3","1","","0","1","0","null","","","<div style=""font-size:60px;"">+</div>","null","","","","","","","","","",""
"","html-keyboard-response","205","701083","0.0-12.0-1.4","a2lvo6ypua","one_one","1","direct_first","1","nn06el18","0","22","1","1","3","1","","0","1","0","null","","","<img src = 'category4/lin.png' width = '100%;'>","null","","","","","","","","","",""
"","html-keyboard-response","206","701336","0.0-12.0-2.4","a2lvo6ypua","one_one","1","direct_first","1","nn06el18","0","22","1","1","3","1","","0","1","0","null","","","<img src = 'targets/24.png' width = '100%;'>","null","","","","","","","","","",""
"","html-keyboard-response","207","701864","0.0-12.0-3.4","a2lvo6ypua","one_one","1","direct_first","1","nn06el18","0","22","1","1","3","1","","0","1","0","525.8349999785423","","","<img src = 'targets/mask.png' width = '100%;'>","68","pos","GS","abstract","4","category4/lin.png","","targets/24.png","indirect","0","20"
"","html-keyboard-response","208","703367","0.0-12.0-0.5","a2lvo6ypua","one_one","1","direct_first","1","nn06el18","0","22","1","1","3","1","","0","1","0","null","","","<div style=""font-size:60px;"">+</div>","null","","","","","","","","","",""
"","html-keyboard-response","209","703461","0.0-12.0-1.5","a2lvo6ypua","one_one","1","direct_first","1","nn06el18","0","22","1","1","3","1","","0","1","0","null","","","<img src = 'category2/men.png' width = '100%;'>","null","","","","","","","","","",""
"","html-keyboard-response","210","703714","0.0-12.0-2.5","a2lvo6ypua","one_one","1","direct_first","1","nn06el18","0","22","1","1","3","1","","0","1","0","null","","","<img src = 'targets/43.png' width = '100%;'>","null","","","","","","","","","",""
"","html-keyboard-response","211","706741","0.0-12.0-3.5","a2lvo6ypua","one_one","1","direct_first","1","nn06el18","0","22","1","1","3","1","","0","1","0","3025.614999991376","","","<img src = 'targets/mask.png' width = '100%;'>","75","neg","GS","abstract","2","category2/men.png","","targets/43.png","indirect","1","21"
"","html-keyboard-response","212","708245","0.0-12.0-0.6","a2lvo6ypua","one_one","1","direct_first","1","nn06el18","0","22","1","1","3","1","","0","1","0","null","","","<div style=""font-size:60px;"">+</div>","null","","","","","","","","","",""
"","html-keyboard-response","213","708338","0.0-12.0-1.6","a2lvo6ypua","one_one","1","direct_first","1","nn06el18","0","22","1","1","3","1","","0","1","0","null","","","<img src = 'category3/GS1.png' width = '100%;'>","null","","","","","","","","","",""
"","html-keyboard-response","214","708591","0.0-12.0-2.6","a2lvo6ypua","one_one","1","direct_first","1","nn06el18","0","22","1","1","3","1","","0","1","0","null","","","<img src = 'targets/18.png' width = '100%;'>","null","","","","","","","","","",""
"","html-keyboard-response","215","710069","0.0-12.0-3.6","a2lvo6ypua","one_one","1","direct_first","1","nn06el18","0","22","1","1","3","1","","0","1","0","1474.545000004582","","","<img src = 'targets/mask.png' width = '100%;'>","68","pos","GS","GSnew","3","category3/GS1.png","","targets/18.png","indirect","0","22"
"","html-keyboard-response","216","711574","0.0-12.0-0.7","a2lvo6ypua","one_one","1","direct_first","1","nn06el18","0","22","1","1","3","1","","0","1","0","null","","","<div style=""font-size:60px;"">+</div>","null","","","","","","","","","",""
"","html-keyboard-response","217","711666","0.0-12.0-1.7","a2lvo6ypua","one_one","1","direct_first","1","nn06el18","0","22","1","1","3","1","","0","1","0","null","","","<img src = 'category1/GS2.png' width = '100%;'>","null","","","","","","","","","",""
"","html-keyboard-response","218","711918","0.0-12.0-2.7","a2lvo6ypua","one_one","1","direct_first","1","nn06el18","0","22","1","1","3","1","","0","1","0","null","","","<img src = 'targets/30.png' width = '100%;'>","null","","","","","","","","","",""
"","html-keyboard-response","219","713021","0.0-12.0-3.7","a2lvo6ypua","one_one","1","direct_first","1","nn06el18","0","22","1","1","3","1","","0","1","0","1100.574999989476","","","<img src = 'targets/mask.png' width = '100%;'>","75","neg","GS","GSnew","1","category1/GS2.png","","targets/30.png","indirect","1","23"
"","html-keyboard-response","220","714524","0.0-12.0-0.8","a2lvo6ypua","one_one","1","direct_first","1","nn06el18","0","22","1","1","3","1","","0","1","0","null","","","<div style=""font-size:60px;"">+</div>","null","","","","","","","","","",""
"","html-keyboard-response","221","714616","0.0-12.0-1.8","a2lvo6ypua","one_one","1","direct_first","1","nn06el18","0","22","1","1","3","1","","0","1","0","null","","","<img src = 'category1/GS1.png' width = '100%;'>","null","","","","","","","","","",""
"","html-keyboard-response","222","714870","0.0-12.0-2.8","a2lvo6ypua","one_one","1","direct_first","1","nn06el18","0","22","1","1","3","1","","0","1","0","null","","","<img src = 'targets/32.png' width = '100%;'>","null","","","","","","","","","",""
"","html-keyboard-response","223","716434","0.0-12.0-3.8","a2lvo6ypua","one_one","1","direct_first","1","nn06el18","0","22","1","1","3","1","","0","1","0","1561.1100000096485","","","<img src = 'targets/mask.png' width = '100%;'>","75","neg","GS","GSnew","1","category1/GS1.png","","targets/32.png","indirect","1","24"
"","html-keyboard-response","224","717936","0.0-12.0-0.9","a2lvo6ypua","one_one","1","direct_first","1","nn06el18","0","22","1","1","3","1","","0","1","0","null","","","<div style=""font-size:60px;"">+</div>","null","","","","","","","","","",""
"","html-keyboard-response","225","718029","0.0-12.0-1.9","a2lvo6ypua","one_one","1","direct_first","1","nn06el18","0","22","1","1","3","1","","0","1","0","null","","","<img src = 'category2/GS3.png' width = '100%;'>","null","","","","","","","","","",""
"","html-keyboard-response","226","718281","0.0-12.0-2.9","a2lvo6ypua","one_one","1","direct_first","1","nn06el18","0","22","1","1","3","1","","0","1","0","null","","","<img src = 'targets/48.png' width = '100%;'>","null","","","","","","","","","",""
"","html-keyboard-response","227","719051","0.0-12.0-3.9","a2lvo6ypua","one_one","1","direct_first","1","nn06el18","0","22","1","1","3","1","","0","1","0","767.8749999613501","","","<img src = 'targets/mask.png' width = '100%;'>","75","neg","GS","GSnew","2","category2/GS3.png","","targets/48.png","indirect","1","25"
"","html-keyboard-response","228","720553","0.0-12.0-0.10","a2lvo6ypua","one_one","1","direct_first","1","nn06el18","0","22","1","1","3","1","","0","1","0","null","","","<div style=""font-size:60px;"">+</div>","null","","","","","","","","","",""
"","html-keyboard-response","229","720646","0.0-12.0-1.10","a2lvo6ypua","one_one","1","direct_first","1","nn06el18","0","22","1","1","3","1","","0","1","0","null","","","<img src = 'category3/GS2.png' width = '100%;'>","null","","","","","","","","","",""
"","html-keyboard-response","230","720898","0.0-12.0-2.10","a2lvo6ypua","one_one","1","direct_first","1","nn06el18","0","22","1","1","3","1","","0","1","0","null","","","<img src = 'targets/38.png' width = '100%;'>","null","","","","","","","","","",""
"","html-keyboard-response","231","721575","0.0-12.0-3.10","a2lvo6ypua","one_one","1","direct_first","1","nn06el18","0","22","1","1","3","1","","0","1","0","673.9250000100583","","","<img src = 'targets/mask.png' width = '100%;'>","75","pos","GS","GSnew","3","category3/GS2.png","","targets/38.png","indirect","1","26"
"","html-keyboard-response","232","723079","0.0-12.0-0.11","a2lvo6ypua","one_one","1","direct_first","1","nn06el18","0","22","1","1","3","1","","0","1","0","null","","","<div style=""font-size:60px;"">+</div>","null","","","","","","","","","",""
"","html-keyboard-response","233","723171","0.0-12.0-1.11","a2lvo6ypua","one_one","1","direct_first","1","nn06el18","0","22","1","1","3","1","","0","1","0","null","","","<img src = 'category4/GS1.png' width = '100%;'>","null","","","","","","","","","",""
"","html-keyboard-response","234","723423","0.0-12.0-2.11","a2lvo6ypua","one_one","1","direct_first","1","nn06el18","0","22","1","1","3","1","","0","1","0","null","","","<img src = 'targets/22.png' width = '100%;'>","null","","","","","","","","","",""
"","html-keyboard-response","235","723937","0.0-12.0-3.11","a2lvo6ypua","one_one","1","direct_first","1","nn06el18","0","22","1","1","3","1","","0","1","0","511.30000001285225","","","<img src = 'targets/mask.png' width = '100%;'>","68","pos","GS","GSnew","4","category4/GS1.png","","targets/22.png","indirect","0","27"
"","html-keyboard-response","236","725440","0.0-12.0-0.12","a2lvo6ypua","one_one","1","direct_first","1","nn06el18","0","22","1","1","3","1","","0","1","0","null","","","<div style=""font-size:60px;"">+</div>","null","","","","","","","","","",""
"","html-keyboard-response","237","725532","0.0-12.0-1.12","a2lvo6ypua","one_one","1","direct_first","1","nn06el18","0","22","1","1","3","1","","0","1","0","null","","","<img src = 'category1/ma.png' width = '100%;'>","null","","","","","","","","","",""
"","html-keyboard-response","238","725784","0.0-12.0-2.12","a2lvo6ypua","one_one","1","direct_first","1","nn06el18","0","22","1","1","3","1","","0","1","0","null","","","<img src = 'targets/8.png' width = '100%;'>","null","","","","","","","","","",""
"","html-keyboard-response","239","726706","0.0-12.0-3.12","a2lvo6ypua","one_one","1","direct_first","1","nn06el18","0","22","1","1","3","1","","0","1","0","920.0500000151806","","","<img src = 'targets/mask.png' width = '100%;'>","75","neg","GS","abstract","1","category1/ma.png","","targets/8.png","indirect","1","28"
"","html-keyboard-response","240","728208","0.0-12.0-0.13","a2lvo6ypua","one_one","1","direct_first","1","nn06el18","0","22","1","1","3","1","","0","1","0","null","","","<div style=""font-size:60px;"">+</div>","null","","","","","","","","","",""
"","html-keyboard-response","241","728301","0.0-12.0-1.13","a2lvo6ypua","one_one","1","direct_first","1","nn06el18","0","22","1","1","3","1","","0","1","0","null","","","<img src = 'category4/GS2.png' width = '100%;'>","null","","","","","","","","","",""
"","html-keyboard-response","242","728556","0.0-12.0-2.13","a2lvo6ypua","one_one","1","direct_first","1","nn06el18","0","22","1","1","3","1","","0","1","0","null","","","<img src = 'targets/31.png' width = '100%;'>","null","","","","","","","","","",""
"","html-keyboard-response","243","729346","0.0-12.0-3.13","a2lvo6ypua","one_one","1","direct_first","1","nn06el18","0","22","1","1","3","1","","0","1","0","788.2600000011735","","","<img src = 'targets/mask.png' width = '100%;'>","75","pos","GS","GSnew","4","category4/GS2.png","","targets/31.png","indirect","1","29"
"","html-keyboard-response","244","730849","0.0-12.0-0.14","a2lvo6ypua","one_one","1","direct_first","1","nn06el18","0","22","1","1","3","1","","0","1","0","null","","","<div style=""font-size:60px;"">+</div>","null","","","","","","","","","",""
"","html-keyboard-response","245","730943","0.0-12.0-1.14","a2lvo6ypua","one_one","1","direct_first","1","nn06el18","0","22","1","1","3","1","","0","1","0","null","","","<img src = 'category4/GS3.png' width = '100%;'>","null","","","","","","","","","",""
"","html-keyboard-response","246","731196","0.0-12.0-2.14","a2lvo6ypua","one_one","1","direct_first","1","nn06el18","0","22","1","1","3","1","","0","1","0","null","","","<img src = 'targets/11.png' width = '100%;'>","null","","","","","","","","","",""
"","html-keyboard-response","247","732458","0.0-12.0-3.14","a2lvo6ypua","one_one","1","direct_first","1","nn06el18","0","22","1","1","3","1","","0","1","0","1259.6350000239909","","","<img src = 'targets/mask.png' width = '100%;'>","75","pos","GS","GSnew","4","category4/GS3.png","","targets/11.png","indirect","1","30"
"","html-keyboard-response","248","733961","0.0-12.0-0.15","a2lvo6ypua","one_one","1","direct_first","1","nn06el18","0","22","1","1","3","1","","0","1","0","null","","","<div style=""font-size:60px;"">+</div>","null","","","","","","","","","",""
"","html-keyboard-response","249","734054","0.0-12.0-1.15","a2lvo6ypua","one_one","1","direct_first","1","nn06el18","0","22","1","1","3","1","","0","1","0","null","","","<img src = 'category1/GS3.png' width = '100%;'>","null","","","","","","","","","",""
"","html-keyboard-response","250","734307","0.0-12.0-2.15","a2lvo6ypua","one_one","1","direct_first","1","nn06el18","0","22","1","1","3","1","","0","1","0","null","","","<img src = 'targets/4.png' width = '100%;'>","null","","","","","","","","","",""
"","html-keyboard-response","251","734836","0.0-12.0-3.15","a2lvo6ypua","one_one","1","direct_first","1","nn06el18","0","22","1","1","3","1","","0","1","0","527.0100000197999","","","<img src = 'targets/mask.png' width = '100%;'>","75","neg","GS","GSnew","1","category1/GS3.png","","targets/4.png","indirect","1","31"
"","survey-html-form","252","746105","0.0-13.0","a2lvo6ypua","one_one","1","direct_first","1","nn06el18","0","22","1","1","3","1","","0","1","0","10766.245000006165","","{}","","","","","","","","","","","",""
"","image-slider-response","253","752777","0.0-14.0-0.0","a2lvo6ypua","one_one","1","direct_first","1","nn06el18","0","22","1","1","3","1","","0","1","0","5666.290000022855","","","","","neg","All","all","1","category1/ma_all.png","45","","all","",""
"","image-slider-response","254","757358","0.0-14.0-0.1","a2lvo6ypua","one_one","1","direct_first","1","nn06el18","0","22","1","1","3","1","","0","1","0","4577.545000007376","","","","","pos","All","all","4","category4/lin_all.png","-32","","all","",""
"","image-slider-response","255","761771","0.0-14.0-0.2","a2lvo6ypua","one_one","1","direct_first","1","nn06el18","0","22","1","1","3","1","","0","1","0","4409.310000017285","","","","","neg","All","all","2","category2/men_all.png","-15","","all","",""
"","image-slider-response","256","766214","0.0-14.0-0.3","a2lvo6ypua","one_one","1","direct_first","1","nn06el18","0","22","1","1","3","1","","0","1","0","4440.505000005942","","","","","pos","All","all","3","category3/wang_all.png","49","","all","",""
"","survey-text","257","770589","0.0-15.0","a2lvo6ypua","one_one","1","direct_first","1","nn06el18","0","22","1","1","3","1","","0","1","0","4322.89499999024","","{""comment"":""""}","","","","","","","","","","","",""
"","survey-html-form","258","791981","0.0-16.0","a2lvo6ypua","one_one","1","direct_first","1","nn06el18","0","22","1","1","3","1","","0","1","0","21387.364999973215","","{""hinschauen"":""0"",""ablenkung"":""1"",""gewissenhaft"":""0""}","","","","","","","","","","","",""
