"success","trial_type","trial_index","time_elapsed","internal_node_id","subject","condition","condition_code","measure","measure_code","codeword","gender","age","education","chinese","fach","handedness","rt","url","responses","stimulus","key_press","val","type","type_specific","category","cs_selected","response","target","task","indirect","nr_pres"
"true","fullscreen","0","4693","0.0-0.0","l37lnnhwa5","many_one","0","direct_first","1","er07an01","1","21","1","1","3","1","","","","","","","","","","","","","","",""
"","external-html","1","41198","0.0-1.0","l37lnnhwa5","many_one","0","direct_first","1","er07an01","1","21","1","1","3","1","36452","text/information.html","","","","","","","","","","","","",""
"","external-html","2","53459","0.0-2.0","l37lnnhwa5","many_one","0","direct_first","1","er07an01","1","21","1","1","3","1","12153","text/consent.html","","","","","","","","","","","","",""
"","survey-html-form","3","61926","0.0-3.0","l37lnnhwa5","many_one","0","direct_first","1","er07an01","1","21","1","1","3","1","8466","","{""codeword_enter"":""er07an01""}","","","","","","","","","","","",""
"","survey-html-form","4","83532","0.0-4.0","l37lnnhwa5","many_one","0","direct_first","1","er07an01","1","21","1","1","3","1","21600","","{""age"":""21"",""education"":""1"",""subject"":""3"",""gender"":""1"",""handedness"":""1"",""chinese"":""1""}","","","","","","","","","","","",""
"","survey-html-form","5","93464","0.0-5.0","l37lnnhwa5","many_one","0","direct_first","1","er07an01","1","21","1","1","3","1","9929","","{}","","","","","","","","","","","",""
"","html-keyboard-response","6","97471","0.0-6.0-0.0-0.0","l37lnnhwa5","many_one","0","direct_first","1","er07an01","1","21","1","1","3","1","null","","","<div class = 'row'><div class = 'column'><img src = 'category1/CS10.png' width = '70%;'></div><div class = 'column'><img src = 'uspos/4599.bmp' width = '100%;'></div></div>","null","pos","CS","CS","1","category1/CS10.png","","","","",""
"","html-keyboard-response","7","99977","0.0-6.0-0.0-0.1","l37lnnhwa5","many_one","0","direct_first","1","er07an01","1","21","1","1","3","1","null","","","<div class = 'row'><div class = 'column'><img src = 'usneg/9220.bmp' width = '100%;'></div><div class = 'column'><img src = 'category3/CS6.png' width = '70%;'></div></div>","null","neg","CS","CS","3","category3/CS6.png","","","","",""
"","html-keyboard-response","8","102482","0.0-6.0-0.0-0.2","l37lnnhwa5","many_one","0","direct_first","1","er07an01","1","21","1","1","3","1","null","","","<div class = 'row'><div class = 'column'><img src = 'category2/CS9.png' width = '70%;'></div><div class = 'column'><img src = 'usneg/9181.bmp' width = '100%;'></div></div>","null","neg","CS","CS","2","category2/CS9.png","","","","",""
"","html-keyboard-response","9","104987","0.0-6.0-0.0-0.3","l37lnnhwa5","many_one","0","direct_first","1","er07an01","1","21","1","1","3","1","null","","","<div class = 'row'><div class = 'column'><img src = 'category1/CS6.png' width = '70%;'></div><div class = 'column'><img src = 'uspos/1340.bmp' width = '100%;'></div></div>","null","pos","CS","CS","1","category1/CS6.png","","","","",""
"","html-keyboard-response","10","107493","0.0-6.0-0.0-0.4","l37lnnhwa5","many_one","0","direct_first","1","er07an01","1","21","1","1","3","1","null","","","<div class = 'row'><div class = 'column'><img src = 'uspos/5629.bmp' width = '100%;'></div><div class = 'column'><img src = 'category4/CS2.png' width = '70%;'></div></div>","null","pos","CS","CS","4","category4/CS2.png","","","","",""
"","html-keyboard-response","11","109997","0.0-6.0-0.0-0.5","l37lnnhwa5","many_one","0","direct_first","1","er07an01","1","21","1","1","3","1","null","","","<div class = 'row'><div class = 'column'><img src = 'category2/CS8.png' width = '70%;'></div><div class = 'column'><img src = 'usneg/9415.bmp' width = '100%;'></div></div>","null","neg","CS","CS","2","category2/CS8.png","","","","",""
"","html-keyboard-response","12","112502","0.0-6.0-0.0-0.6","l37lnnhwa5","many_one","0","direct_first","1","er07an01","1","21","1","1","3","1","null","","","<div class = 'row'><div class = 'column'><img src = 'usneg/9342.bmp' width = '100%;'></div><div class = 'column'><img src = 'category3/CS9.png' width = '70%;'></div></div>","null","neg","CS","CS","3","category3/CS9.png","","","","",""
"","html-keyboard-response","13","115007","0.0-6.0-0.0-0.7","l37lnnhwa5","many_one","0","direct_first","1","er07an01","1","21","1","1","3","1","null","","","<div class = 'row'><div class = 'column'><img src = 'category2/CS10.png' width = '70%;'></div><div class = 'column'><img src = 'usneg/6020.bmp' width = '100%;'></div></div>","null","neg","CS","CS","2","category2/CS10.png","","","","",""
"","html-keyboard-response","14","117511","0.0-6.0-0.0-0.8","l37lnnhwa5","many_one","0","direct_first","1","er07an01","1","21","1","1","3","1","null","","","<div class = 'row'><div class = 'column'><img src = 'usneg/9182.bmp' width = '100%;'></div><div class = 'column'><img src = 'category2/CS5.png' width = '70%;'></div></div>","null","neg","CS","CS","2","category2/CS5.png","","","","",""
"","html-keyboard-response","15","120015","0.0-6.0-0.0-0.9","l37lnnhwa5","many_one","0","direct_first","1","er07an01","1","21","1","1","3","1","null","","","<div class = 'row'><div class = 'column'><img src = 'category1/CS1.png' width = '70%;'></div><div class = 'column'><img src = 'uspos/2040.bmp' width = '100%;'></div></div>","null","pos","CS","CS","1","category1/CS1.png","","","","",""
"","html-keyboard-response","16","122521","0.0-6.0-0.0-0.10","l37lnnhwa5","many_one","0","direct_first","1","er07an01","1","21","1","1","3","1","null","","","<div class = 'row'><div class = 'column'><img src = 'category1/CS7.png' width = '70%;'></div><div class = 'column'><img src = 'uspos/5600.bmp' width = '100%;'></div></div>","null","pos","CS","CS","1","category1/CS7.png","","","","",""
"","html-keyboard-response","17","125028","0.0-6.0-0.0-0.11","l37lnnhwa5","many_one","0","direct_first","1","er07an01","1","21","1","1","3","1","null","","","<div class = 'row'><div class = 'column'><img src = 'category1/CS8.png' width = '70%;'></div><div class = 'column'><img src = 'uspos/1710.bmp' width = '100%;'></div></div>","null","pos","CS","CS","1","category1/CS8.png","","","","",""
"","html-keyboard-response","18","127532","0.0-6.0-0.0-0.12","l37lnnhwa5","many_one","0","direct_first","1","er07an01","1","21","1","1","3","1","null","","","<div class = 'row'><div class = 'column'><img src = 'category4/CS5.png' width = '70%;'></div><div class = 'column'><img src = 'uspos/5830.bmp' width = '100%;'></div></div>","null","pos","CS","CS","4","category4/CS5.png","","","","",""
"","html-keyboard-response","19","130037","0.0-6.0-0.0-0.13","l37lnnhwa5","many_one","0","direct_first","1","er07an01","1","21","1","1","3","1","null","","","<div class = 'row'><div class = 'column'><img src = 'category4/CS6.png' width = '70%;'></div><div class = 'column'><img src = 'uspos/2341.bmp' width = '100%;'></div></div>","null","pos","CS","CS","4","category4/CS6.png","","","","",""
"","html-keyboard-response","20","132538","0.0-6.0-0.0-0.14","l37lnnhwa5","many_one","0","direct_first","1","er07an01","1","21","1","1","3","1","null","","","<div class = 'row'><div class = 'column'><img src = 'category3/CS3.png' width = '70%;'></div><div class = 'column'><img src = 'usneg/7380.bmp' width = '100%;'></div></div>","null","neg","CS","CS","3","category3/CS3.png","","","","",""
"","html-keyboard-response","21","135044","0.0-6.0-0.0-0.15","l37lnnhwa5","many_one","0","direct_first","1","er07an01","1","21","1","1","3","1","null","","","<div class = 'row'><div class = 'column'><img src = 'category2/CS1.png' width = '70%;'></div><div class = 'column'><img src = 'usneg/2900.bmp' width = '100%;'></div></div>","null","neg","CS","CS","2","category2/CS1.png","","","","",""
"","html-keyboard-response","22","137548","0.0-6.0-0.0-0.16","l37lnnhwa5","many_one","0","direct_first","1","er07an01","1","21","1","1","3","1","null","","","<div class = 'row'><div class = 'column'><img src = 'usneg/9584.bmp' width = '100%;'></div><div class = 'column'><img src = 'category3/CS2.png' width = '70%;'></div></div>","null","neg","CS","CS","3","category3/CS2.png","","","","",""
"","html-keyboard-response","23","140051","0.0-6.0-0.0-0.17","l37lnnhwa5","many_one","0","direct_first","1","er07an01","1","21","1","1","3","1","null","","","<div class = 'row'><div class = 'column'><img src = 'category4/CS4.png' width = '70%;'></div><div class = 'column'><img src = 'uspos/1440.bmp' width = '100%;'></div></div>","null","pos","CS","CS","4","category4/CS4.png","","","","",""
"","html-keyboard-response","24","142554","0.0-6.0-0.0-0.18","l37lnnhwa5","many_one","0","direct_first","1","er07an01","1","21","1","1","3","1","null","","","<div class = 'row'><div class = 'column'><img src = 'category4/CS8.png' width = '70%;'></div><div class = 'column'><img src = 'uspos/8350.bmp' width = '100%;'></div></div>","null","pos","CS","CS","4","category4/CS8.png","","","","",""
"","html-keyboard-response","25","145060","0.0-6.0-0.0-0.19","l37lnnhwa5","many_one","0","direct_first","1","er07an01","1","21","1","1","3","1","null","","","<div class = 'row'><div class = 'column'><img src = 'category3/CS5.png' width = '70%;'></div><div class = 'column'><img src = 'usneg/6212.bmp' width = '100%;'></div></div>","null","neg","CS","CS","3","category3/CS5.png","","","","",""
"","survey-html-form","26","148159","0.0-6.0-1.0","l37lnnhwa5","many_one","0","direct_first","1","er07an01","1","21","1","1","3","1","2597","","{}","","","","","","","","","","","",""
"","html-keyboard-response","27","152164","0.0-6.0-2.0-0.0","l37lnnhwa5","many_one","0","direct_first","1","er07an01","1","21","1","1","3","1","null","","","<div class = 'row'><div class = 'column'><img src = 'usneg/9415.bmp' width = '100%;'></div><div class = 'column'><img src = 'category2/CS8.png' width = '70%;'></div></div>","null","neg","CS","CS","2","category2/CS8.png","","","","",""
"","html-keyboard-response","28","154669","0.0-6.0-2.0-0.1","l37lnnhwa5","many_one","0","direct_first","1","er07an01","1","21","1","1","3","1","null","","","<div class = 'row'><div class = 'column'><img src = 'category4/CS5.png' width = '70%;'></div><div class = 'column'><img src = 'uspos/5830.bmp' width = '100%;'></div></div>","null","pos","CS","CS","4","category4/CS5.png","","","","",""
"","html-keyboard-response","29","157174","0.0-6.0-2.0-0.2","l37lnnhwa5","many_one","0","direct_first","1","er07an01","1","21","1","1","3","1","null","","","<div class = 'row'><div class = 'column'><img src = 'category3/CS6.png' width = '70%;'></div><div class = 'column'><img src = 'usneg/9220.bmp' width = '100%;'></div></div>","null","neg","CS","CS","3","category3/CS6.png","","","","",""
"","html-keyboard-response","30","159677","0.0-6.0-2.0-0.3","l37lnnhwa5","many_one","0","direct_first","1","er07an01","1","21","1","1","3","1","null","","","<div class = 'row'><div class = 'column'><img src = 'usneg/9181.bmp' width = '100%;'></div><div class = 'column'><img src = 'category2/CS9.png' width = '70%;'></div></div>","null","neg","CS","CS","2","category2/CS9.png","","","","",""
"","html-keyboard-response","31","162181","0.0-6.0-2.0-0.4","l37lnnhwa5","many_one","0","direct_first","1","er07an01","1","21","1","1","3","1","null","","","<div class = 'row'><div class = 'column'><img src = 'category1/CS8.png' width = '70%;'></div><div class = 'column'><img src = 'uspos/1710.bmp' width = '100%;'></div></div>","null","pos","CS","CS","1","category1/CS8.png","","","","",""
"","html-keyboard-response","32","164686","0.0-6.0-2.0-0.5","l37lnnhwa5","many_one","0","direct_first","1","er07an01","1","21","1","1","3","1","null","","","<div class = 'row'><div class = 'column'><img src = 'category2/CS1.png' width = '70%;'></div><div class = 'column'><img src = 'usneg/2900.bmp' width = '100%;'></div></div>","null","neg","CS","CS","2","category2/CS1.png","","","","",""
"","html-keyboard-response","33","167189","0.0-6.0-2.0-0.6","l37lnnhwa5","many_one","0","direct_first","1","er07an01","1","21","1","1","3","1","null","","","<div class = 'row'><div class = 'column'><img src = 'uspos/5600.bmp' width = '100%;'></div><div class = 'column'><img src = 'category1/CS7.png' width = '70%;'></div></div>","null","pos","CS","CS","1","category1/CS7.png","","","","",""
"","html-keyboard-response","34","169692","0.0-6.0-2.0-0.7","l37lnnhwa5","many_one","0","direct_first","1","er07an01","1","21","1","1","3","1","null","","","<div class = 'row'><div class = 'column'><img src = 'category2/CS10.png' width = '70%;'></div><div class = 'column'><img src = 'usneg/6020.bmp' width = '100%;'></div></div>","null","neg","CS","CS","2","category2/CS10.png","","","","",""
"","html-keyboard-response","35","172194","0.0-6.0-2.0-0.8","l37lnnhwa5","many_one","0","direct_first","1","er07an01","1","21","1","1","3","1","null","","","<div class = 'row'><div class = 'column'><img src = 'usneg/9182.bmp' width = '100%;'></div><div class = 'column'><img src = 'category2/CS5.png' width = '70%;'></div></div>","null","neg","CS","CS","2","category2/CS5.png","","","","",""
"","html-keyboard-response","36","174697","0.0-6.0-2.0-0.9","l37lnnhwa5","many_one","0","direct_first","1","er07an01","1","21","1","1","3","1","null","","","<div class = 'row'><div class = 'column'><img src = 'category4/CS2.png' width = '70%;'></div><div class = 'column'><img src = 'uspos/5629.bmp' width = '100%;'></div></div>","null","pos","CS","CS","4","category4/CS2.png","","","","",""
"","html-keyboard-response","37","177200","0.0-6.0-2.0-0.10","l37lnnhwa5","many_one","0","direct_first","1","er07an01","1","21","1","1","3","1","null","","","<div class = 'row'><div class = 'column'><img src = 'category3/CS9.png' width = '70%;'></div><div class = 'column'><img src = 'usneg/9342.bmp' width = '100%;'></div></div>","null","neg","CS","CS","3","category3/CS9.png","","","","",""
"","html-keyboard-response","38","179707","0.0-6.0-2.0-0.11","l37lnnhwa5","many_one","0","direct_first","1","er07an01","1","21","1","1","3","1","null","","","<div class = 'row'><div class = 'column'><img src = 'uspos/2341.bmp' width = '100%;'></div><div class = 'column'><img src = 'category4/CS6.png' width = '70%;'></div></div>","null","pos","CS","CS","4","category4/CS6.png","","","","",""
"","html-keyboard-response","39","182210","0.0-6.0-2.0-0.12","l37lnnhwa5","many_one","0","direct_first","1","er07an01","1","21","1","1","3","1","null","","","<div class = 'row'><div class = 'column'><img src = 'category4/CS4.png' width = '70%;'></div><div class = 'column'><img src = 'uspos/1440.bmp' width = '100%;'></div></div>","null","pos","CS","CS","4","category4/CS4.png","","","","",""
"","html-keyboard-response","40","184715","0.0-6.0-2.0-0.13","l37lnnhwa5","many_one","0","direct_first","1","er07an01","1","21","1","1","3","1","null","","","<div class = 'row'><div class = 'column'><img src = 'usneg/9584.bmp' width = '100%;'></div><div class = 'column'><img src = 'category3/CS2.png' width = '70%;'></div></div>","null","neg","CS","CS","3","category3/CS2.png","","","","",""
"","html-keyboard-response","41","187219","0.0-6.0-2.0-0.14","l37lnnhwa5","many_one","0","direct_first","1","er07an01","1","21","1","1","3","1","null","","","<div class = 'row'><div class = 'column'><img src = 'category4/CS8.png' width = '70%;'></div><div class = 'column'><img src = 'uspos/8350.bmp' width = '100%;'></div></div>","null","pos","CS","CS","4","category4/CS8.png","","","","",""
"","html-keyboard-response","42","189724","0.0-6.0-2.0-0.15","l37lnnhwa5","many_one","0","direct_first","1","er07an01","1","21","1","1","3","1","null","","","<div class = 'row'><div class = 'column'><img src = 'category1/CS6.png' width = '70%;'></div><div class = 'column'><img src = 'uspos/1340.bmp' width = '100%;'></div></div>","null","pos","CS","CS","1","category1/CS6.png","","","","",""
"","html-keyboard-response","43","192230","0.0-6.0-2.0-0.16","l37lnnhwa5","many_one","0","direct_first","1","er07an01","1","21","1","1","3","1","null","","","<div class = 'row'><div class = 'column'><img src = 'category3/CS3.png' width = '70%;'></div><div class = 'column'><img src = 'usneg/7380.bmp' width = '100%;'></div></div>","null","neg","CS","CS","3","category3/CS3.png","","","","",""
"","html-keyboard-response","44","194732","0.0-6.0-2.0-0.17","l37lnnhwa5","many_one","0","direct_first","1","er07an01","1","21","1","1","3","1","null","","","<div class = 'row'><div class = 'column'><img src = 'uspos/2040.bmp' width = '100%;'></div><div class = 'column'><img src = 'category1/CS1.png' width = '70%;'></div></div>","null","pos","CS","CS","1","category1/CS1.png","","","","",""
"","html-keyboard-response","45","197235","0.0-6.0-2.0-0.18","l37lnnhwa5","many_one","0","direct_first","1","er07an01","1","21","1","1","3","1","null","","","<div class = 'row'><div class = 'column'><img src = 'category3/CS5.png' width = '70%;'></div><div class = 'column'><img src = 'usneg/6212.bmp' width = '100%;'></div></div>","null","neg","CS","CS","3","category3/CS5.png","","","","",""
"","html-keyboard-response","46","199737","0.0-6.0-2.0-0.19","l37lnnhwa5","many_one","0","direct_first","1","er07an01","1","21","1","1","3","1","null","","","<div class = 'row'><div class = 'column'><img src = 'uspos/4599.bmp' width = '100%;'></div><div class = 'column'><img src = 'category1/CS10.png' width = '70%;'></div></div>","null","pos","CS","CS","1","category1/CS10.png","","","","",""
"","survey-html-form","47","204277","0.0-6.0-3.0","l37lnnhwa5","many_one","0","direct_first","1","er07an01","1","21","1","1","3","1","4039","","{}","","","","","","","","","","","",""
"","html-keyboard-response","48","208283","0.0-6.0-4.0-0.0","l37lnnhwa5","many_one","0","direct_first","1","er07an01","1","21","1","1","3","1","null","","","<div class = 'row'><div class = 'column'><img src = 'category4/CS8.png' width = '70%;'></div><div class = 'column'><img src = 'uspos/8350.bmp' width = '100%;'></div></div>","null","pos","CS","CS","4","category4/CS8.png","","","","",""
"","html-keyboard-response","49","210787","0.0-6.0-4.0-0.1","l37lnnhwa5","many_one","0","direct_first","1","er07an01","1","21","1","1","3","1","null","","","<div class = 'row'><div class = 'column'><img src = 'category1/CS6.png' width = '70%;'></div><div class = 'column'><img src = 'uspos/1340.bmp' width = '100%;'></div></div>","null","pos","CS","CS","1","category1/CS6.png","","","","",""
"","html-keyboard-response","50","213290","0.0-6.0-4.0-0.2","l37lnnhwa5","many_one","0","direct_first","1","er07an01","1","21","1","1","3","1","null","","","<div class = 'row'><div class = 'column'><img src = 'category2/CS1.png' width = '70%;'></div><div class = 'column'><img src = 'usneg/2900.bmp' width = '100%;'></div></div>","null","neg","CS","CS","2","category2/CS1.png","","","","",""
"","html-keyboard-response","51","215794","0.0-6.0-4.0-0.3","l37lnnhwa5","many_one","0","direct_first","1","er07an01","1","21","1","1","3","1","null","","","<div class = 'row'><div class = 'column'><img src = 'category1/CS8.png' width = '70%;'></div><div class = 'column'><img src = 'uspos/1710.bmp' width = '100%;'></div></div>","null","pos","CS","CS","1","category1/CS8.png","","","","",""
"","html-keyboard-response","52","218298","0.0-6.0-4.0-0.4","l37lnnhwa5","many_one","0","direct_first","1","er07an01","1","21","1","1","3","1","null","","","<div class = 'row'><div class = 'column'><img src = 'category2/CS8.png' width = '70%;'></div><div class = 'column'><img src = 'usneg/9415.bmp' width = '100%;'></div></div>","null","neg","CS","CS","2","category2/CS8.png","","","","",""
"","html-keyboard-response","53","220804","0.0-6.0-4.0-0.5","l37lnnhwa5","many_one","0","direct_first","1","er07an01","1","21","1","1","3","1","null","","","<div class = 'row'><div class = 'column'><img src = 'uspos/2040.bmp' width = '100%;'></div><div class = 'column'><img src = 'category1/CS1.png' width = '70%;'></div></div>","null","pos","CS","CS","1","category1/CS1.png","","","","",""
"","html-keyboard-response","54","223308","0.0-6.0-4.0-0.6","l37lnnhwa5","many_one","0","direct_first","1","er07an01","1","21","1","1","3","1","null","","","<div class = 'row'><div class = 'column'><img src = 'category3/CS9.png' width = '70%;'></div><div class = 'column'><img src = 'usneg/9342.bmp' width = '100%;'></div></div>","null","neg","CS","CS","3","category3/CS9.png","","","","",""
"","html-keyboard-response","55","225813","0.0-6.0-4.0-0.7","l37lnnhwa5","many_one","0","direct_first","1","er07an01","1","21","1","1","3","1","null","","","<div class = 'row'><div class = 'column'><img src = 'category2/CS5.png' width = '70%;'></div><div class = 'column'><img src = 'usneg/9182.bmp' width = '100%;'></div></div>","null","neg","CS","CS","2","category2/CS5.png","","","","",""
"","html-keyboard-response","56","228318","0.0-6.0-4.0-0.8","l37lnnhwa5","many_one","0","direct_first","1","er07an01","1","21","1","1","3","1","null","","","<div class = 'row'><div class = 'column'><img src = 'category1/CS7.png' width = '70%;'></div><div class = 'column'><img src = 'uspos/5600.bmp' width = '100%;'></div></div>","null","pos","CS","CS","1","category1/CS7.png","","","","",""
"","html-keyboard-response","57","230823","0.0-6.0-4.0-0.9","l37lnnhwa5","many_one","0","direct_first","1","er07an01","1","21","1","1","3","1","null","","","<div class = 'row'><div class = 'column'><img src = 'category3/CS5.png' width = '70%;'></div><div class = 'column'><img src = 'usneg/6212.bmp' width = '100%;'></div></div>","null","neg","CS","CS","3","category3/CS5.png","","","","",""
"","html-keyboard-response","58","233327","0.0-6.0-4.0-0.10","l37lnnhwa5","many_one","0","direct_first","1","er07an01","1","21","1","1","3","1","null","","","<div class = 'row'><div class = 'column'><img src = 'usneg/9181.bmp' width = '100%;'></div><div class = 'column'><img src = 'category2/CS9.png' width = '70%;'></div></div>","null","neg","CS","CS","2","category2/CS9.png","","","","",""
"","html-keyboard-response","59","235833","0.0-6.0-4.0-0.11","l37lnnhwa5","many_one","0","direct_first","1","er07an01","1","21","1","1","3","1","null","","","<div class = 'row'><div class = 'column'><img src = 'uspos/1440.bmp' width = '100%;'></div><div class = 'column'><img src = 'category4/CS4.png' width = '70%;'></div></div>","null","pos","CS","CS","4","category4/CS4.png","","","","",""
"","html-keyboard-response","60","238337","0.0-6.0-4.0-0.12","l37lnnhwa5","many_one","0","direct_first","1","er07an01","1","21","1","1","3","1","null","","","<div class = 'row'><div class = 'column'><img src = 'usneg/9220.bmp' width = '100%;'></div><div class = 'column'><img src = 'category3/CS6.png' width = '70%;'></div></div>","null","neg","CS","CS","3","category3/CS6.png","","","","",""
"","html-keyboard-response","61","240841","0.0-6.0-4.0-0.13","l37lnnhwa5","many_one","0","direct_first","1","er07an01","1","21","1","1","3","1","null","","","<div class = 'row'><div class = 'column'><img src = 'uspos/5629.bmp' width = '100%;'></div><div class = 'column'><img src = 'category4/CS2.png' width = '70%;'></div></div>","null","pos","CS","CS","4","category4/CS2.png","","","","",""
"","html-keyboard-response","62","243344","0.0-6.0-4.0-0.14","l37lnnhwa5","many_one","0","direct_first","1","er07an01","1","21","1","1","3","1","null","","","<div class = 'row'><div class = 'column'><img src = 'category1/CS10.png' width = '70%;'></div><div class = 'column'><img src = 'uspos/4599.bmp' width = '100%;'></div></div>","null","pos","CS","CS","1","category1/CS10.png","","","","",""
"","html-keyboard-response","63","245849","0.0-6.0-4.0-0.15","l37lnnhwa5","many_one","0","direct_first","1","er07an01","1","21","1","1","3","1","null","","","<div class = 'row'><div class = 'column'><img src = 'uspos/5830.bmp' width = '100%;'></div><div class = 'column'><img src = 'category4/CS5.png' width = '70%;'></div></div>","null","pos","CS","CS","4","category4/CS5.png","","","","",""
"","html-keyboard-response","64","248355","0.0-6.0-4.0-0.16","l37lnnhwa5","many_one","0","direct_first","1","er07an01","1","21","1","1","3","1","null","","","<div class = 'row'><div class = 'column'><img src = 'category3/CS2.png' width = '70%;'></div><div class = 'column'><img src = 'usneg/9584.bmp' width = '100%;'></div></div>","null","neg","CS","CS","3","category3/CS2.png","","","","",""
"","html-keyboard-response","65","250859","0.0-6.0-4.0-0.17","l37lnnhwa5","many_one","0","direct_first","1","er07an01","1","21","1","1","3","1","null","","","<div class = 'row'><div class = 'column'><img src = 'usneg/7380.bmp' width = '100%;'></div><div class = 'column'><img src = 'category3/CS3.png' width = '70%;'></div></div>","null","neg","CS","CS","3","category3/CS3.png","","","","",""
"","html-keyboard-response","66","253363","0.0-6.0-4.0-0.18","l37lnnhwa5","many_one","0","direct_first","1","er07an01","1","21","1","1","3","1","null","","","<div class = 'row'><div class = 'column'><img src = 'category2/CS10.png' width = '70%;'></div><div class = 'column'><img src = 'usneg/6020.bmp' width = '100%;'></div></div>","null","neg","CS","CS","2","category2/CS10.png","","","","",""
"","html-keyboard-response","67","255868","0.0-6.0-4.0-0.19","l37lnnhwa5","many_one","0","direct_first","1","er07an01","1","21","1","1","3","1","null","","","<div class = 'row'><div class = 'column'><img src = 'uspos/2341.bmp' width = '100%;'></div><div class = 'column'><img src = 'category4/CS6.png' width = '70%;'></div></div>","null","pos","CS","CS","4","category4/CS6.png","","","","",""
"","survey-html-form","68","261832","0.0-6.0-5.0","l37lnnhwa5","many_one","0","direct_first","1","er07an01","1","21","1","1","3","1","5462","","{}","","","","","","","","","","","",""
"","html-keyboard-response","69","265838","0.0-6.0-6.0-0.0","l37lnnhwa5","many_one","0","direct_first","1","er07an01","1","21","1","1","3","1","null","","","<div class = 'row'><div class = 'column'><img src = 'uspos/8350.bmp' width = '100%;'></div><div class = 'column'><img src = 'category4/CS8.png' width = '70%;'></div></div>","null","pos","CS","CS","4","category4/CS8.png","","","","",""
"","html-keyboard-response","70","268343","0.0-6.0-6.0-0.1","l37lnnhwa5","many_one","0","direct_first","1","er07an01","1","21","1","1","3","1","null","","","<div class = 'row'><div class = 'column'><img src = 'category2/CS8.png' width = '70%;'></div><div class = 'column'><img src = 'usneg/9415.bmp' width = '100%;'></div></div>","null","neg","CS","CS","2","category2/CS8.png","","","","",""
"","html-keyboard-response","71","270849","0.0-6.0-6.0-0.2","l37lnnhwa5","many_one","0","direct_first","1","er07an01","1","21","1","1","3","1","null","","","<div class = 'row'><div class = 'column'><img src = 'category3/CS5.png' width = '70%;'></div><div class = 'column'><img src = 'usneg/6212.bmp' width = '100%;'></div></div>","null","neg","CS","CS","3","category3/CS5.png","","","","",""
"","html-keyboard-response","72","273355","0.0-6.0-6.0-0.3","l37lnnhwa5","many_one","0","direct_first","1","er07an01","1","21","1","1","3","1","null","","","<div class = 'row'><div class = 'column'><img src = 'category1/CS8.png' width = '70%;'></div><div class = 'column'><img src = 'uspos/1710.bmp' width = '100%;'></div></div>","null","pos","CS","CS","1","category1/CS8.png","","","","",""
"","html-keyboard-response","73","275859","0.0-6.0-6.0-0.4","l37lnnhwa5","many_one","0","direct_first","1","er07an01","1","21","1","1","3","1","null","","","<div class = 'row'><div class = 'column'><img src = 'category2/CS5.png' width = '70%;'></div><div class = 'column'><img src = 'usneg/9182.bmp' width = '100%;'></div></div>","null","neg","CS","CS","2","category2/CS5.png","","","","",""
"","html-keyboard-response","74","278364","0.0-6.0-6.0-0.5","l37lnnhwa5","many_one","0","direct_first","1","er07an01","1","21","1","1","3","1","null","","","<div class = 'row'><div class = 'column'><img src = 'category1/CS1.png' width = '70%;'></div><div class = 'column'><img src = 'uspos/2040.bmp' width = '100%;'></div></div>","null","pos","CS","CS","1","category1/CS1.png","","","","",""
"","html-keyboard-response","75","280868","0.0-6.0-6.0-0.6","l37lnnhwa5","many_one","0","direct_first","1","er07an01","1","21","1","1","3","1","null","","","<div class = 'row'><div class = 'column'><img src = 'uspos/5830.bmp' width = '100%;'></div><div class = 'column'><img src = 'category4/CS5.png' width = '70%;'></div></div>","null","pos","CS","CS","4","category4/CS5.png","","","","",""
"","html-keyboard-response","76","283374","0.0-6.0-6.0-0.7","l37lnnhwa5","many_one","0","direct_first","1","er07an01","1","21","1","1","3","1","null","","","<div class = 'row'><div class = 'column'><img src = 'category1/CS10.png' width = '70%;'></div><div class = 'column'><img src = 'uspos/4599.bmp' width = '100%;'></div></div>","null","pos","CS","CS","1","category1/CS10.png","","","","",""
"","html-keyboard-response","77","285878","0.0-6.0-6.0-0.8","l37lnnhwa5","many_one","0","direct_first","1","er07an01","1","21","1","1","3","1","null","","","<div class = 'row'><div class = 'column'><img src = 'usneg/7380.bmp' width = '100%;'></div><div class = 'column'><img src = 'category3/CS3.png' width = '70%;'></div></div>","null","neg","CS","CS","3","category3/CS3.png","","","","",""
"","html-keyboard-response","78","288383","0.0-6.0-6.0-0.9","l37lnnhwa5","many_one","0","direct_first","1","er07an01","1","21","1","1","3","1","null","","","<div class = 'row'><div class = 'column'><img src = 'usneg/9181.bmp' width = '100%;'></div><div class = 'column'><img src = 'category2/CS9.png' width = '70%;'></div></div>","null","neg","CS","CS","2","category2/CS9.png","","","","",""
"","html-keyboard-response","79","290887","0.0-6.0-6.0-0.10","l37lnnhwa5","many_one","0","direct_first","1","er07an01","1","21","1","1","3","1","null","","","<div class = 'row'><div class = 'column'><img src = 'uspos/2341.bmp' width = '100%;'></div><div class = 'column'><img src = 'category4/CS6.png' width = '70%;'></div></div>","null","pos","CS","CS","4","category4/CS6.png","","","","",""
"","html-keyboard-response","80","293390","0.0-6.0-6.0-0.11","l37lnnhwa5","many_one","0","direct_first","1","er07an01","1","21","1","1","3","1","null","","","<div class = 'row'><div class = 'column'><img src = 'usneg/6020.bmp' width = '100%;'></div><div class = 'column'><img src = 'category2/CS10.png' width = '70%;'></div></div>","null","neg","CS","CS","2","category2/CS10.png","","","","",""
"","html-keyboard-response","81","295896","0.0-6.0-6.0-0.12","l37lnnhwa5","many_one","0","direct_first","1","er07an01","1","21","1","1","3","1","null","","","<div class = 'row'><div class = 'column'><img src = 'uspos/5600.bmp' width = '100%;'></div><div class = 'column'><img src = 'category1/CS7.png' width = '70%;'></div></div>","null","pos","CS","CS","1","category1/CS7.png","","","","",""
"","html-keyboard-response","82","298401","0.0-6.0-6.0-0.13","l37lnnhwa5","many_one","0","direct_first","1","er07an01","1","21","1","1","3","1","null","","","<div class = 'row'><div class = 'column'><img src = 'uspos/1340.bmp' width = '100%;'></div><div class = 'column'><img src = 'category1/CS6.png' width = '70%;'></div></div>","null","pos","CS","CS","1","category1/CS6.png","","","","",""
"","html-keyboard-response","83","300906","0.0-6.0-6.0-0.14","l37lnnhwa5","many_one","0","direct_first","1","er07an01","1","21","1","1","3","1","null","","","<div class = 'row'><div class = 'column'><img src = 'usneg/2900.bmp' width = '100%;'></div><div class = 'column'><img src = 'category2/CS1.png' width = '70%;'></div></div>","null","neg","CS","CS","2","category2/CS1.png","","","","",""
"","html-keyboard-response","84","303411","0.0-6.0-6.0-0.15","l37lnnhwa5","many_one","0","direct_first","1","er07an01","1","21","1","1","3","1","null","","","<div class = 'row'><div class = 'column'><img src = 'category4/CS4.png' width = '70%;'></div><div class = 'column'><img src = 'uspos/1440.bmp' width = '100%;'></div></div>","null","pos","CS","CS","4","category4/CS4.png","","","","",""
"","html-keyboard-response","85","305917","0.0-6.0-6.0-0.16","l37lnnhwa5","many_one","0","direct_first","1","er07an01","1","21","1","1","3","1","null","","","<div class = 'row'><div class = 'column'><img src = 'category3/CS2.png' width = '70%;'></div><div class = 'column'><img src = 'usneg/9584.bmp' width = '100%;'></div></div>","null","neg","CS","CS","3","category3/CS2.png","","","","",""
"","html-keyboard-response","86","308421","0.0-6.0-6.0-0.17","l37lnnhwa5","many_one","0","direct_first","1","er07an01","1","21","1","1","3","1","null","","","<div class = 'row'><div class = 'column'><img src = 'category3/CS6.png' width = '70%;'></div><div class = 'column'><img src = 'usneg/9220.bmp' width = '100%;'></div></div>","null","neg","CS","CS","3","category3/CS6.png","","","","",""
"","html-keyboard-response","87","310925","0.0-6.0-6.0-0.18","l37lnnhwa5","many_one","0","direct_first","1","er07an01","1","21","1","1","3","1","null","","","<div class = 'row'><div class = 'column'><img src = 'uspos/5629.bmp' width = '100%;'></div><div class = 'column'><img src = 'category4/CS2.png' width = '70%;'></div></div>","null","pos","CS","CS","4","category4/CS2.png","","","","",""
"","html-keyboard-response","88","313429","0.0-6.0-6.0-0.19","l37lnnhwa5","many_one","0","direct_first","1","er07an01","1","21","1","1","3","1","null","","","<div class = 'row'><div class = 'column'><img src = 'category3/CS9.png' width = '70%;'></div><div class = 'column'><img src = 'usneg/9342.bmp' width = '100%;'></div></div>","null","neg","CS","CS","3","category3/CS9.png","","","","",""
"","survey-html-form","89","327305","0.0-7.0","l37lnnhwa5","many_one","0","direct_first","1","er07an01","1","21","1","1","3","1","13375","","{}","","","","","","","","","","","",""
"","image-slider-response","90","337082","0.0-8.0-0.0","l37lnnhwa5","many_one","0","direct_first","1","er07an01","1","21","1","1","3","1","7757","","","","","pos","CS","CS","1","category1/CS8.png","21","targets/28.png","direct","",""
"","image-slider-response","91","351073","0.0-8.0-0.1","l37lnnhwa5","many_one","0","direct_first","1","er07an01","1","21","1","1","3","1","13988","","","","","neg","CS","CS","2","category2/CS5.png","-2","targets/37.png","direct","",""
"","image-slider-response","92","368473","0.0-8.0-0.2","l37lnnhwa5","many_one","0","direct_first","1","er07an01","1","21","1","1","3","1","17397","","","","","neg","GS","GSold","2","category2/CS7.png","-25","targets/6.png","direct","",""
"","image-slider-response","93","372961","0.0-8.0-0.3","l37lnnhwa5","many_one","0","direct_first","1","er07an01","1","21","1","1","3","1","4486","","","","","neg","GS","GSnew","2","category2/GS3.png","-49","targets/31.png","direct","",""
"","image-slider-response","94","376000","0.0-8.0-0.4","l37lnnhwa5","many_one","0","direct_first","1","er07an01","1","21","1","1","3","1","3037","","","","","pos","CS","CS","1","category1/CS6.png","-32","targets/42.png","direct","",""
"","image-slider-response","95","379105","0.0-8.0-0.5","l37lnnhwa5","many_one","0","direct_first","1","er07an01","1","21","1","1","3","1","3102","","","","","neg","GS","GSnew","3","category3/GS2.png","-72","targets/47.png","direct","",""
"","image-slider-response","96","381761","0.0-8.0-0.6","l37lnnhwa5","many_one","0","direct_first","1","er07an01","1","21","1","1","3","1","2652","","","","","pos","GS","GSnew","4","category4/GS1.png","-58","targets/11.png","direct","",""
"","image-slider-response","97","385176","0.0-8.0-0.7","l37lnnhwa5","many_one","0","direct_first","1","er07an01","1","21","1","1","3","1","3414","","","","","neg","GS","GSnew","3","category3/GS3.png","9","targets/21.png","direct","",""
"","image-slider-response","98","388344","0.0-8.0-0.8","l37lnnhwa5","many_one","0","direct_first","1","er07an01","1","21","1","1","3","1","3164","","","","","pos","CS","CS","1","category1/CS1.png","-16","targets/16.png","direct","",""
"","image-slider-response","99","394897","0.0-8.0-0.9","l37lnnhwa5","many_one","0","direct_first","1","er07an01","1","21","1","1","3","1","6550","","","","","pos","GS","GSold","4","category4/CS7.png","12","targets/14.png","direct","",""
"","image-slider-response","100","397905","0.0-8.0-0.10","l37lnnhwa5","many_one","0","direct_first","1","er07an01","1","21","1","1","3","1","3005","","","","","pos","CS","CS","4","category4/CS8.png","-74","targets/26.png","direct","",""
"","image-slider-response","101","402041","0.0-8.0-0.11","l37lnnhwa5","many_one","0","direct_first","1","er07an01","1","21","1","1","3","1","4132","","","","","neg","GS","abstract","3","category3/wang.png","-90","targets/10.png","direct","",""
"","image-slider-response","102","406826","0.0-8.0-0.12","l37lnnhwa5","many_one","0","direct_first","1","er07an01","1","21","1","1","3","1","4782","","","","","pos","GS","GSold","1","category1/CS3.png","-35","targets/23.png","direct","",""
"","image-slider-response","103","409441","0.0-8.0-0.13","l37lnnhwa5","many_one","0","direct_first","1","er07an01","1","21","1","1","3","1","2612","","","","","pos","GS","abstract","1","category1/ma.png","-54","targets/43.png","direct","",""
"","image-slider-response","104","413152","0.0-8.0-0.14","l37lnnhwa5","many_one","0","direct_first","1","er07an01","1","21","1","1","3","1","3709","","","","","pos","GS","GSnew","1","category1/GS3.png","-77","targets/29.png","direct","",""
"","image-slider-response","105","416969","0.0-8.0-0.15","l37lnnhwa5","many_one","0","direct_first","1","er07an01","1","21","1","1","3","1","3813","","","","","neg","CS","CS","3","category3/CS9.png","-58","targets/36.png","direct","",""
"","image-slider-response","106","421289","0.0-8.0-0.16","l37lnnhwa5","many_one","0","direct_first","1","er07an01","1","21","1","1","3","1","4318","","","","","pos","CS","CS","4","category4/CS4.png","24","targets/3.png","direct","",""
"","image-slider-response","107","426801","0.0-8.0-0.17","l37lnnhwa5","many_one","0","direct_first","1","er07an01","1","21","1","1","3","1","5509","","","","","pos","CS","CS","4","category4/CS2.png","-16","targets/19.png","direct","",""
"","image-slider-response","108","432033","0.0-8.0-0.18","l37lnnhwa5","many_one","0","direct_first","1","er07an01","1","21","1","1","3","1","5229","","","","","pos","GS","GSnew","4","category4/GS2.png","-5","targets/15.png","direct","",""
"","image-slider-response","109","435809","0.0-8.0-0.19","l37lnnhwa5","many_one","0","direct_first","1","er07an01","1","21","1","1","3","1","3774","","","","","neg","GS","GSnew","2","category2/GS2.png","-51","targets/35.png","direct","",""
"","image-slider-response","110","438488","0.0-8.0-0.20","l37lnnhwa5","many_one","0","direct_first","1","er07an01","1","21","1","1","3","1","2678","","","","","pos","GS","GSnew","1","category1/GS1.png","-29","targets/1.png","direct","",""
"","image-slider-response","111","442016","0.0-8.0-0.21","l37lnnhwa5","many_one","0","direct_first","1","er07an01","1","21","1","1","3","1","3526","","","","","pos","CS","CS","4","category4/CS6.png","-43","targets/18.png","direct","",""
"","image-slider-response","112","444992","0.0-8.0-0.22","l37lnnhwa5","many_one","0","direct_first","1","er07an01","1","21","1","1","3","1","2972","","","","","neg","CS","CS","3","category3/CS6.png","36","targets/12.png","direct","",""
"","image-slider-response","113","448129","0.0-8.0-0.23","l37lnnhwa5","many_one","0","direct_first","1","er07an01","1","21","1","1","3","1","3134","","","","","neg","GS","GSold","2","category2/CS3.png","20","targets/7.png","direct","",""
"","image-slider-response","114","451920","0.0-8.0-0.24","l37lnnhwa5","many_one","0","direct_first","1","er07an01","1","21","1","1","3","1","3788","","","","","pos","CS","CS","1","category1/CS10.png","-53","targets/30.png","direct","",""
"","image-slider-response","115","455280","0.0-8.0-0.25","l37lnnhwa5","many_one","0","direct_first","1","er07an01","1","21","1","1","3","1","3358","","","","","neg","CS","CS","2","category2/CS10.png","-11","targets/44.png","direct","",""
"","image-slider-response","116","457760","0.0-8.0-0.26","l37lnnhwa5","many_one","0","direct_first","1","er07an01","1","21","1","1","3","1","2476","","","","","pos","CS","CS","1","category1/CS7.png","-65","targets/8.png","direct","",""
"","image-slider-response","117","462337","0.0-8.0-0.27","l37lnnhwa5","many_one","0","direct_first","1","er07an01","1","21","1","1","3","1","4574","","","","","neg","CS","CS","3","category3/CS3.png","-40","targets/22.png","direct","",""
"","image-slider-response","118","464456","0.0-8.0-0.28","l37lnnhwa5","many_one","0","direct_first","1","er07an01","1","21","1","1","3","1","2116","","","","","neg","CS","CS","2","category2/CS1.png","-10","targets/40.png","direct","",""
"","image-slider-response","119","466921","0.0-8.0-0.29","l37lnnhwa5","many_one","0","direct_first","1","er07an01","1","21","1","1","3","1","2461","","","","","pos","GS","GSold","4","category4/CS10.png","25","targets/46.png","direct","",""
"","image-slider-response","120","469040","0.0-8.0-0.30","l37lnnhwa5","many_one","0","direct_first","1","er07an01","1","21","1","1","3","1","2117","","","","","pos","GS","GSnew","1","category1/GS2.png","43","targets/39.png","direct","",""
"","image-slider-response","121","471225","0.0-8.0-0.31","l37lnnhwa5","many_one","0","direct_first","1","er07an01","1","21","1","1","3","1","2183","","","","","pos","GS","abstract","4","category4/lin.png","-12","targets/38.png","direct","",""
"","image-slider-response","122","473203","0.0-8.0-0.32","l37lnnhwa5","many_one","0","direct_first","1","er07an01","1","21","1","1","3","1","1975","","","","","neg","CS","CS","3","category3/CS5.png","-30","targets/5.png","direct","",""
"","image-slider-response","123","476769","0.0-8.0-0.33","l37lnnhwa5","many_one","0","direct_first","1","er07an01","1","21","1","1","3","1","3565","","","","","pos","GS","GSold","4","category4/CS9.png","18","targets/13.png","direct","",""
"","image-slider-response","124","480817","0.0-8.0-0.34","l37lnnhwa5","many_one","0","direct_first","1","er07an01","1","21","1","1","3","1","4046","","","","","pos","GS","GSold","1","category1/CS2.png","10","targets/4.png","direct","",""
"","image-slider-response","125","488825","0.0-8.0-0.35","l37lnnhwa5","many_one","0","direct_first","1","er07an01","1","21","1","1","3","1","8005","","","","","neg","GS","GSnew","3","category3/GS1.png","25","targets/20.png","direct","",""
"","image-slider-response","126","491864","0.0-8.0-0.36","l37lnnhwa5","many_one","0","direct_first","1","er07an01","1","21","1","1","3","1","3037","","","","","neg","GS","GSold","3","category3/CS1.png","26","targets/32.png","direct","",""
"","image-slider-response","127","493985","0.0-8.0-0.37","l37lnnhwa5","many_one","0","direct_first","1","er07an01","1","21","1","1","3","1","2118","","","","","neg","GS","GSold","2","category2/CS4.png","-32","targets/41.png","direct","",""
"","image-slider-response","128","496816","0.0-8.0-0.38","l37lnnhwa5","many_one","0","direct_first","1","er07an01","1","21","1","1","3","1","2828","","","","","neg","GS","GSnew","2","category2/GS1.png","9","targets/25.png","direct","",""
"","image-slider-response","129","499848","0.0-8.0-0.39","l37lnnhwa5","many_one","0","direct_first","1","er07an01","1","21","1","1","3","1","3029","","","","","neg","CS","CS","3","category3/CS2.png","-21","targets/2.png","direct","",""
"","image-slider-response","130","502393","0.0-8.0-0.40","l37lnnhwa5","many_one","0","direct_first","1","er07an01","1","21","1","1","3","1","2542","","","","","pos","GS","GSnew","4","category4/GS3.png","24","targets/48.png","direct","",""
"","image-slider-response","131","505865","0.0-8.0-0.41","l37lnnhwa5","many_one","0","direct_first","1","er07an01","1","21","1","1","3","1","3470","","","","","neg","CS","CS","2","category2/CS8.png","30","targets/33.png","direct","",""
"","image-slider-response","132","507993","0.0-8.0-0.42","l37lnnhwa5","many_one","0","direct_first","1","er07an01","1","21","1","1","3","1","2125","","","","","neg","CS","CS","2","category2/CS9.png","-31","targets/17.png","direct","",""
"","image-slider-response","133","510929","0.0-8.0-0.43","l37lnnhwa5","many_one","0","direct_first","1","er07an01","1","21","1","1","3","1","2934","","","","","neg","GS","abstract","2","category2/men.png","-94","targets/27.png","direct","",""
"","image-slider-response","134","513593","0.0-8.0-0.44","l37lnnhwa5","many_one","0","direct_first","1","er07an01","1","21","1","1","3","1","2660","","","","","neg","GS","GSold","3","category3/CS4.png","-28","targets/24.png","direct","",""
"","image-slider-response","135","516794","0.0-8.0-0.45","l37lnnhwa5","many_one","0","direct_first","1","er07an01","1","21","1","1","3","1","3198","","","","","neg","GS","GSold","3","category3/CS7.png","-10","targets/9.png","direct","",""
"","image-slider-response","136","520177","0.0-8.0-0.46","l37lnnhwa5","many_one","0","direct_first","1","er07an01","1","21","1","1","3","1","3380","","","","","pos","GS","GSold","1","category1/CS5.png","-9","targets/45.png","direct","",""
"","image-slider-response","137","523417","0.0-8.0-0.47","l37lnnhwa5","many_one","0","direct_first","1","er07an01","1","21","1","1","3","1","3237","","","","","pos","CS","CS","4","category4/CS5.png","-29","targets/34.png","direct","",""
"","html-keyboard-response","138","564703","0.0-9.0","l37lnnhwa5","many_one","0","direct_first","1","er07an01","1","21","1","1","3","1","41283","","","<p>Sie sehen nun die chinesischen Zeichen nur ganz kurz. Danach sehen Sie die jeweilige Aussprache der Zeichen als Silbe auf dem Bildschrim. Ihre Aufgabe ist es, für jede Silbe anzugeben, ob diese etwas angenehmes, oder unangenehmes bedeuten könnte. Verlassen Sie sich hier vor allem auf Ihre Intuition.<br><br>Die Zeichen werden nur zur Orientierung dargestellt, beachten Sie sie deshalb nicht. Konzentrieren Sie sich vor allem auf die Silben. <br>Reagieren Sie mit folgenden zwei Tasten: <br><br><b>'D' </b> wenn die Silbe etwas <b>unangenehmes</b> bedeuten könnte. <br><b>'K'</b> wenn die Silbe etwas <b>angenehmes</b> bedeuten könnte. <br><br>Bitte legen Sie nun den Zeigefinger der linken Hand auf die Taste 'D' und den Zeigefinger der rechten Hand auf die Taste 'K'. <br>Reagieren Sie auf jede Silbe so schnell wie möglich. Uns interessiert Ihre spontane Reaktion. <br> <br> <br>Drücken Sie 'D' oder 'K', um die nächste Aufgabe zu starten. </p>","75","","","","","","","","","",""
"","html-keyboard-response","139","567706","0.0-10.0-0.0","l37lnnhwa5","many_one","0","direct_first","1","er07an01","1","21","1","1","3","1","null","","","<div style=""font-size:60px;"">+</div>","null","","","","","","","","","",""
"","html-keyboard-response","140","567799","0.0-10.0-1.0","l37lnnhwa5","many_one","0","direct_first","1","er07an01","1","21","1","1","3","1","null","","","<img src = 'category1/CS6.png' width = '100%;'>","null","","","","","","","","","",""
"","html-keyboard-response","141","568052","0.0-10.0-2.0","l37lnnhwa5","many_one","0","direct_first","1","er07an01","1","21","1","1","3","1","null","","","<img src = 'targets/42.png' width = '100%;'>","null","","","","","","","","","",""
"","html-keyboard-response","142","569887","0.0-10.0-3.0","l37lnnhwa5","many_one","0","direct_first","1","er07an01","1","21","1","1","3","1","1833","","","<img src = 'targets/mask.png' width = '100%;'>","75","pos","CS","CS","1","category1/CS6.png","","targets/42.png","indirect","1","0"
"","html-keyboard-response","143","571390","0.0-10.0-0.1","l37lnnhwa5","many_one","0","direct_first","1","er07an01","1","21","1","1","3","1","null","","","<div style=""font-size:60px;"">+</div>","null","","","","","","","","","",""
"","html-keyboard-response","144","571483","0.0-10.0-1.1","l37lnnhwa5","many_one","0","direct_first","1","er07an01","1","21","1","1","3","1","null","","","<img src = 'category4/CS2.png' width = '100%;'>","null","","","","","","","","","",""
"","html-keyboard-response","145","571737","0.0-10.0-2.1","l37lnnhwa5","many_one","0","direct_first","1","er07an01","1","21","1","1","3","1","null","","","<img src = 'targets/19.png' width = '100%;'>","null","","","","","","","","","",""
"","html-keyboard-response","146","572841","0.0-10.0-3.1","l37lnnhwa5","many_one","0","direct_first","1","er07an01","1","21","1","1","3","1","1103","","","<img src = 'targets/mask.png' width = '100%;'>","68","pos","CS","CS","4","category4/CS2.png","","targets/19.png","indirect","0","1"
"","html-keyboard-response","147","574346","0.0-10.0-0.2","l37lnnhwa5","many_one","0","direct_first","1","er07an01","1","21","1","1","3","1","null","","","<div style=""font-size:60px;"">+</div>","null","","","","","","","","","",""
"","html-keyboard-response","148","574438","0.0-10.0-1.2","l37lnnhwa5","many_one","0","direct_first","1","er07an01","1","21","1","1","3","1","null","","","<img src = 'category1/CS7.png' width = '100%;'>","null","","","","","","","","","",""
"","html-keyboard-response","149","574692","0.0-10.0-2.2","l37lnnhwa5","many_one","0","direct_first","1","er07an01","1","21","1","1","3","1","null","","","<img src = 'targets/8.png' width = '100%;'>","null","","","","","","","","","",""
"","html-keyboard-response","150","575529","0.0-10.0-3.2","l37lnnhwa5","many_one","0","direct_first","1","er07an01","1","21","1","1","3","1","834","","","<img src = 'targets/mask.png' width = '100%;'>","75","pos","CS","CS","1","category1/CS7.png","","targets/8.png","indirect","1","2"
"","html-keyboard-response","151","577033","0.0-10.0-0.3","l37lnnhwa5","many_one","0","direct_first","1","er07an01","1","21","1","1","3","1","null","","","<div style=""font-size:60px;"">+</div>","null","","","","","","","","","",""
"","html-keyboard-response","152","577125","0.0-10.0-1.3","l37lnnhwa5","many_one","0","direct_first","1","er07an01","1","21","1","1","3","1","null","","","<img src = 'category3/CS6.png' width = '100%;'>","null","","","","","","","","","",""
"","html-keyboard-response","153","577379","0.0-10.0-2.3","l37lnnhwa5","many_one","0","direct_first","1","er07an01","1","21","1","1","3","1","null","","","<img src = 'targets/12.png' width = '100%;'>","null","","","","","","","","","",""
"","html-keyboard-response","154","578077","0.0-10.0-3.3","l37lnnhwa5","many_one","0","direct_first","1","er07an01","1","21","1","1","3","1","698","","","<img src = 'targets/mask.png' width = '100%;'>","75","neg","CS","CS","3","category3/CS6.png","","targets/12.png","indirect","1","3"
"","html-keyboard-response","155","579581","0.0-10.0-0.4","l37lnnhwa5","many_one","0","direct_first","1","er07an01","1","21","1","1","3","1","null","","","<div style=""font-size:60px;"">+</div>","null","","","","","","","","","",""
"","html-keyboard-response","156","579674","0.0-10.0-1.4","l37lnnhwa5","many_one","0","direct_first","1","er07an01","1","21","1","1","3","1","null","","","<img src = 'category2/CS8.png' width = '100%;'>","null","","","","","","","","","",""
"","html-keyboard-response","157","579928","0.0-10.0-2.4","l37lnnhwa5","many_one","0","direct_first","1","er07an01","1","21","1","1","3","1","null","","","<img src = 'targets/33.png' width = '100%;'>","null","","","","","","","","","",""
"","html-keyboard-response","158","580592","0.0-10.0-3.4","l37lnnhwa5","many_one","0","direct_first","1","er07an01","1","21","1","1","3","1","663","","","<img src = 'targets/mask.png' width = '100%;'>","68","neg","CS","CS","2","category2/CS8.png","","targets/33.png","indirect","0","4"
"","html-keyboard-response","159","582094","0.0-10.0-0.5","l37lnnhwa5","many_one","0","direct_first","1","er07an01","1","21","1","1","3","1","null","","","<div style=""font-size:60px;"">+</div>","null","","","","","","","","","",""
"","html-keyboard-response","160","582186","0.0-10.0-1.5","l37lnnhwa5","many_one","0","direct_first","1","er07an01","1","21","1","1","3","1","null","","","<img src = 'category3/CS2.png' width = '100%;'>","null","","","","","","","","","",""
"","html-keyboard-response","161","582441","0.0-10.0-2.5","l37lnnhwa5","many_one","0","direct_first","1","er07an01","1","21","1","1","3","1","null","","","<img src = 'targets/2.png' width = '100%;'>","null","","","","","","","","","",""
"","html-keyboard-response","162","583271","0.0-10.0-3.5","l37lnnhwa5","many_one","0","direct_first","1","er07an01","1","21","1","1","3","1","829","","","<img src = 'targets/mask.png' width = '100%;'>","68","neg","CS","CS","3","category3/CS2.png","","targets/2.png","indirect","0","5"
"","html-keyboard-response","163","584776","0.0-10.0-0.6","l37lnnhwa5","many_one","0","direct_first","1","er07an01","1","21","1","1","3","1","null","","","<div style=""font-size:60px;"">+</div>","null","","","","","","","","","",""
"","html-keyboard-response","164","584869","0.0-10.0-1.6","l37lnnhwa5","many_one","0","direct_first","1","er07an01","1","21","1","1","3","1","null","","","<img src = 'category2/CS5.png' width = '100%;'>","null","","","","","","","","","",""
"","html-keyboard-response","165","585121","0.0-10.0-2.6","l37lnnhwa5","many_one","0","direct_first","1","er07an01","1","21","1","1","3","1","null","","","<img src = 'targets/37.png' width = '100%;'>","null","","","","","","","","","",""
"","html-keyboard-response","166","585904","0.0-10.0-3.6","l37lnnhwa5","many_one","0","direct_first","1","er07an01","1","21","1","1","3","1","781","","","<img src = 'targets/mask.png' width = '100%;'>","68","neg","CS","CS","2","category2/CS5.png","","targets/37.png","indirect","0","6"
"","html-keyboard-response","167","587408","0.0-10.0-0.7","l37lnnhwa5","many_one","0","direct_first","1","er07an01","1","21","1","1","3","1","null","","","<div style=""font-size:60px;"">+</div>","null","","","","","","","","","",""
"","html-keyboard-response","168","587502","0.0-10.0-1.7","l37lnnhwa5","many_one","0","direct_first","1","er07an01","1","21","1","1","3","1","null","","","<img src = 'category1/CS2.png' width = '100%;'>","null","","","","","","","","","",""
"","html-keyboard-response","169","587757","0.0-10.0-2.7","l37lnnhwa5","many_one","0","direct_first","1","er07an01","1","21","1","1","3","1","null","","","<img src = 'targets/4.png' width = '100%;'>","null","","","","","","","","","",""
"","html-keyboard-response","170","588357","0.0-10.0-3.7","l37lnnhwa5","many_one","0","direct_first","1","er07an01","1","21","1","1","3","1","601","","","<img src = 'targets/mask.png' width = '100%;'>","68","pos","GS","GSold","1","category1/CS2.png","","targets/4.png","indirect","0","7"
"","html-keyboard-response","171","589860","0.0-10.0-0.8","l37lnnhwa5","many_one","0","direct_first","1","er07an01","1","21","1","1","3","1","null","","","<div style=""font-size:60px;"">+</div>","null","","","","","","","","","",""
"","html-keyboard-response","172","589952","0.0-10.0-1.8","l37lnnhwa5","many_one","0","direct_first","1","er07an01","1","21","1","1","3","1","null","","","<img src = 'category2/CS10.png' width = '100%;'>","null","","","","","","","","","",""
"","html-keyboard-response","173","590206","0.0-10.0-2.8","l37lnnhwa5","many_one","0","direct_first","1","er07an01","1","21","1","1","3","1","null","","","<img src = 'targets/44.png' width = '100%;'>","null","","","","","","","","","",""
"","html-keyboard-response","174","590977","0.0-10.0-3.8","l37lnnhwa5","many_one","0","direct_first","1","er07an01","1","21","1","1","3","1","771","","","<img src = 'targets/mask.png' width = '100%;'>","68","neg","CS","CS","2","category2/CS10.png","","targets/44.png","indirect","0","8"
"","html-keyboard-response","175","592482","0.0-10.0-0.9","l37lnnhwa5","many_one","0","direct_first","1","er07an01","1","21","1","1","3","1","null","","","<div style=""font-size:60px;"">+</div>","null","","","","","","","","","",""
"","html-keyboard-response","176","592574","0.0-10.0-1.9","l37lnnhwa5","many_one","0","direct_first","1","er07an01","1","21","1","1","3","1","null","","","<img src = 'category2/CS3.png' width = '100%;'>","null","","","","","","","","","",""
"","html-keyboard-response","177","592827","0.0-10.0-2.9","l37lnnhwa5","many_one","0","direct_first","1","er07an01","1","21","1","1","3","1","null","","","<img src = 'targets/7.png' width = '100%;'>","null","","","","","","","","","",""
"","html-keyboard-response","178","593496","0.0-10.0-3.9","l37lnnhwa5","many_one","0","direct_first","1","er07an01","1","21","1","1","3","1","667","","","<img src = 'targets/mask.png' width = '100%;'>","75","neg","GS","GSold","2","category2/CS3.png","","targets/7.png","indirect","1","9"
"","html-keyboard-response","179","594999","0.0-10.0-0.10","l37lnnhwa5","many_one","0","direct_first","1","er07an01","1","21","1","1","3","1","null","","","<div style=""font-size:60px;"">+</div>","null","","","","","","","","","",""
"","html-keyboard-response","180","595091","0.0-10.0-1.10","l37lnnhwa5","many_one","0","direct_first","1","er07an01","1","21","1","1","3","1","null","","","<img src = 'category4/CS5.png' width = '100%;'>","null","","","","","","","","","",""
"","html-keyboard-response","181","595345","0.0-10.0-2.10","l37lnnhwa5","many_one","0","direct_first","1","er07an01","1","21","1","1","3","1","null","","","<img src = 'targets/34.png' width = '100%;'>","null","","","","","","","","","",""
"","html-keyboard-response","182","596190","0.0-10.0-3.10","l37lnnhwa5","many_one","0","direct_first","1","er07an01","1","21","1","1","3","1","845","","","<img src = 'targets/mask.png' width = '100%;'>","68","pos","CS","CS","4","category4/CS5.png","","targets/34.png","indirect","0","10"
"","html-keyboard-response","183","597695","0.0-10.0-0.11","l37lnnhwa5","many_one","0","direct_first","1","er07an01","1","21","1","1","3","1","null","","","<div style=""font-size:60px;"">+</div>","null","","","","","","","","","",""
"","html-keyboard-response","184","597788","0.0-10.0-1.11","l37lnnhwa5","many_one","0","direct_first","1","er07an01","1","21","1","1","3","1","null","","","<img src = 'category3/CS3.png' width = '100%;'>","null","","","","","","","","","",""
"","html-keyboard-response","185","598042","0.0-10.0-2.11","l37lnnhwa5","many_one","0","direct_first","1","er07an01","1","21","1","1","3","1","null","","","<img src = 'targets/22.png' width = '100%;'>","null","","","","","","","","","",""
"","html-keyboard-response","186","598744","0.0-10.0-3.11","l37lnnhwa5","many_one","0","direct_first","1","er07an01","1","21","1","1","3","1","702","","","<img src = 'targets/mask.png' width = '100%;'>","75","neg","CS","CS","3","category3/CS3.png","","targets/22.png","indirect","1","11"
"","html-keyboard-response","187","600247","0.0-10.0-0.12","l37lnnhwa5","many_one","0","direct_first","1","er07an01","1","21","1","1","3","1","null","","","<div style=""font-size:60px;"">+</div>","null","","","","","","","","","",""
"","html-keyboard-response","188","600337","0.0-10.0-1.12","l37lnnhwa5","many_one","0","direct_first","1","er07an01","1","21","1","1","3","1","null","","","<img src = 'category3/CS5.png' width = '100%;'>","null","","","","","","","","","",""
"","html-keyboard-response","189","600590","0.0-10.0-2.12","l37lnnhwa5","many_one","0","direct_first","1","er07an01","1","21","1","1","3","1","null","","","<img src = 'targets/5.png' width = '100%;'>","null","","","","","","","","","",""
"","html-keyboard-response","190","601314","0.0-10.0-3.12","l37lnnhwa5","many_one","0","direct_first","1","er07an01","1","21","1","1","3","1","723","","","<img src = 'targets/mask.png' width = '100%;'>","68","neg","CS","CS","3","category3/CS5.png","","targets/5.png","indirect","0","12"
"","html-keyboard-response","191","602818","0.0-10.0-0.13","l37lnnhwa5","many_one","0","direct_first","1","er07an01","1","21","1","1","3","1","null","","","<div style=""font-size:60px;"">+</div>","null","","","","","","","","","",""
"","html-keyboard-response","192","602911","0.0-10.0-1.13","l37lnnhwa5","many_one","0","direct_first","1","er07an01","1","21","1","1","3","1","null","","","<img src = 'category1/CS1.png' width = '100%;'>","null","","","","","","","","","",""
"","html-keyboard-response","193","603164","0.0-10.0-2.13","l37lnnhwa5","many_one","0","direct_first","1","er07an01","1","21","1","1","3","1","null","","","<img src = 'targets/16.png' width = '100%;'>","null","","","","","","","","","",""
"","html-keyboard-response","194","604066","0.0-10.0-3.13","l37lnnhwa5","many_one","0","direct_first","1","er07an01","1","21","1","1","3","1","901","","","<img src = 'targets/mask.png' width = '100%;'>","75","pos","CS","CS","1","category1/CS1.png","","targets/16.png","indirect","1","13"
"","html-keyboard-response","195","605570","0.0-10.0-0.14","l37lnnhwa5","many_one","0","direct_first","1","er07an01","1","21","1","1","3","1","null","","","<div style=""font-size:60px;"">+</div>","null","","","","","","","","","",""
"","html-keyboard-response","196","605663","0.0-10.0-1.14","l37lnnhwa5","many_one","0","direct_first","1","er07an01","1","21","1","1","3","1","null","","","<img src = 'category2/CS1.png' width = '100%;'>","null","","","","","","","","","",""
"","html-keyboard-response","197","605917","0.0-10.0-2.14","l37lnnhwa5","many_one","0","direct_first","1","er07an01","1","21","1","1","3","1","null","","","<img src = 'targets/40.png' width = '100%;'>","null","","","","","","","","","",""
"","html-keyboard-response","198","606757","0.0-10.0-3.14","l37lnnhwa5","many_one","0","direct_first","1","er07an01","1","21","1","1","3","1","840","","","<img src = 'targets/mask.png' width = '100%;'>","75","neg","CS","CS","2","category2/CS1.png","","targets/40.png","indirect","1","14"
"","html-keyboard-response","199","608260","0.0-10.0-0.15","l37lnnhwa5","many_one","0","direct_first","1","er07an01","1","21","1","1","3","1","null","","","<div style=""font-size:60px;"">+</div>","null","","","","","","","","","",""
"","html-keyboard-response","200","608352","0.0-10.0-1.15","l37lnnhwa5","many_one","0","direct_first","1","er07an01","1","21","1","1","3","1","null","","","<img src = 'category4/CS4.png' width = '100%;'>","null","","","","","","","","","",""
"","html-keyboard-response","201","608606","0.0-10.0-2.15","l37lnnhwa5","many_one","0","direct_first","1","er07an01","1","21","1","1","3","1","null","","","<img src = 'targets/3.png' width = '100%;'>","null","","","","","","","","","",""
"","html-keyboard-response","202","609419","0.0-10.0-3.15","l37lnnhwa5","many_one","0","direct_first","1","er07an01","1","21","1","1","3","1","812","","","<img src = 'targets/mask.png' width = '100%;'>","68","pos","CS","CS","4","category4/CS4.png","","targets/3.png","indirect","0","15"
"","html-keyboard-response","203","610923","0.0-10.0-0.16","l37lnnhwa5","many_one","0","direct_first","1","er07an01","1","21","1","1","3","1","null","","","<div style=""font-size:60px;"">+</div>","null","","","","","","","","","",""
"","html-keyboard-response","204","611015","0.0-10.0-1.16","l37lnnhwa5","many_one","0","direct_first","1","er07an01","1","21","1","1","3","1","null","","","<img src = 'category2/CS4.png' width = '100%;'>","null","","","","","","","","","",""
"","html-keyboard-response","205","611269","0.0-10.0-2.16","l37lnnhwa5","many_one","0","direct_first","1","er07an01","1","21","1","1","3","1","null","","","<img src = 'targets/41.png' width = '100%;'>","null","","","","","","","","","",""
"","html-keyboard-response","206","612390","0.0-10.0-3.16","l37lnnhwa5","many_one","0","direct_first","1","er07an01","1","21","1","1","3","1","1121","","","<img src = 'targets/mask.png' width = '100%;'>","68","neg","GS","GSold","2","category2/CS4.png","","targets/41.png","indirect","0","16"
"","html-keyboard-response","207","613893","0.0-10.0-0.17","l37lnnhwa5","many_one","0","direct_first","1","er07an01","1","21","1","1","3","1","null","","","<div style=""font-size:60px;"">+</div>","null","","","","","","","","","",""
"","html-keyboard-response","208","613985","0.0-10.0-1.17","l37lnnhwa5","many_one","0","direct_first","1","er07an01","1","21","1","1","3","1","null","","","<img src = 'category4/CS8.png' width = '100%;'>","null","","","","","","","","","",""
"","html-keyboard-response","209","614236","0.0-10.0-2.17","l37lnnhwa5","many_one","0","direct_first","1","er07an01","1","21","1","1","3","1","null","","","<img src = 'targets/26.png' width = '100%;'>","null","","","","","","","","","",""
"","html-keyboard-response","210","615425","0.0-10.0-3.17","l37lnnhwa5","many_one","0","direct_first","1","er07an01","1","21","1","1","3","1","1186","","","<img src = 'targets/mask.png' width = '100%;'>","75","pos","CS","CS","4","category4/CS8.png","","targets/26.png","indirect","1","17"
"","html-keyboard-response","211","616926","0.0-10.0-0.18","l37lnnhwa5","many_one","0","direct_first","1","er07an01","1","21","1","1","3","1","null","","","<div style=""font-size:60px;"">+</div>","null","","","","","","","","","",""
"","html-keyboard-response","212","617018","0.0-10.0-1.18","l37lnnhwa5","many_one","0","direct_first","1","er07an01","1","21","1","1","3","1","null","","","<img src = 'category4/CS6.png' width = '100%;'>","null","","","","","","","","","",""
"","html-keyboard-response","213","617271","0.0-10.0-2.18","l37lnnhwa5","many_one","0","direct_first","1","er07an01","1","21","1","1","3","1","null","","","<img src = 'targets/18.png' width = '100%;'>","null","","","","","","","","","",""
"","html-keyboard-response","214","618323","0.0-10.0-3.18","l37lnnhwa5","many_one","0","direct_first","1","er07an01","1","21","1","1","3","1","1050","","","<img src = 'targets/mask.png' width = '100%;'>","68","pos","CS","CS","4","category4/CS6.png","","targets/18.png","indirect","0","18"
"","html-keyboard-response","215","619827","0.0-10.0-0.19","l37lnnhwa5","many_one","0","direct_first","1","er07an01","1","21","1","1","3","1","null","","","<div style=""font-size:60px;"">+</div>","null","","","","","","","","","",""
"","html-keyboard-response","216","619921","0.0-10.0-1.19","l37lnnhwa5","many_one","0","direct_first","1","er07an01","1","21","1","1","3","1","null","","","<img src = 'category3/CS9.png' width = '100%;'>","null","","","","","","","","","",""
"","html-keyboard-response","217","620173","0.0-10.0-2.19","l37lnnhwa5","many_one","0","direct_first","1","er07an01","1","21","1","1","3","1","null","","","<img src = 'targets/36.png' width = '100%;'>","null","","","","","","","","","",""
"","html-keyboard-response","218","620826","0.0-10.0-3.19","l37lnnhwa5","many_one","0","direct_first","1","er07an01","1","21","1","1","3","1","650","","","<img src = 'targets/mask.png' width = '100%;'>","68","neg","CS","CS","3","category3/CS9.png","","targets/36.png","indirect","0","19"
"","html-keyboard-response","219","622329","0.0-10.0-0.20","l37lnnhwa5","many_one","0","direct_first","1","er07an01","1","21","1","1","3","1","null","","","<div style=""font-size:60px;"">+</div>","null","","","","","","","","","",""
"","html-keyboard-response","220","622420","0.0-10.0-1.20","l37lnnhwa5","many_one","0","direct_first","1","er07an01","1","21","1","1","3","1","null","","","<img src = 'category2/CS7.png' width = '100%;'>","null","","","","","","","","","",""
"","html-keyboard-response","221","622675","0.0-10.0-2.20","l37lnnhwa5","many_one","0","direct_first","1","er07an01","1","21","1","1","3","1","null","","","<img src = 'targets/6.png' width = '100%;'>","null","","","","","","","","","",""
"","html-keyboard-response","222","623431","0.0-10.0-3.20","l37lnnhwa5","many_one","0","direct_first","1","er07an01","1","21","1","1","3","1","753","","","<img src = 'targets/mask.png' width = '100%;'>","68","neg","GS","GSold","2","category2/CS7.png","","targets/6.png","indirect","0","20"
"","html-keyboard-response","223","624935","0.0-10.0-0.21","l37lnnhwa5","many_one","0","direct_first","1","er07an01","1","21","1","1","3","1","null","","","<div style=""font-size:60px;"">+</div>","null","","","","","","","","","",""
"","html-keyboard-response","224","625027","0.0-10.0-1.21","l37lnnhwa5","many_one","0","direct_first","1","er07an01","1","21","1","1","3","1","null","","","<img src = 'category2/CS9.png' width = '100%;'>","null","","","","","","","","","",""
"","html-keyboard-response","225","625283","0.0-10.0-2.21","l37lnnhwa5","many_one","0","direct_first","1","er07an01","1","21","1","1","3","1","null","","","<img src = 'targets/17.png' width = '100%;'>","null","","","","","","","","","",""
"","html-keyboard-response","226","625822","0.0-10.0-3.21","l37lnnhwa5","many_one","0","direct_first","1","er07an01","1","21","1","1","3","1","538","","","<img src = 'targets/mask.png' width = '100%;'>","68","neg","CS","CS","2","category2/CS9.png","","targets/17.png","indirect","0","21"
"","html-keyboard-response","227","627324","0.0-10.0-0.22","l37lnnhwa5","many_one","0","direct_first","1","er07an01","1","21","1","1","3","1","null","","","<div style=""font-size:60px;"">+</div>","null","","","","","","","","","",""
"","html-keyboard-response","228","627416","0.0-10.0-1.22","l37lnnhwa5","many_one","0","direct_first","1","er07an01","1","21","1","1","3","1","null","","","<img src = 'category1/CS10.png' width = '100%;'>","null","","","","","","","","","",""
"","html-keyboard-response","229","627671","0.0-10.0-2.22","l37lnnhwa5","many_one","0","direct_first","1","er07an01","1","21","1","1","3","1","null","","","<img src = 'targets/30.png' width = '100%;'>","null","","","","","","","","","",""
"","html-keyboard-response","230","628376","0.0-10.0-3.22","l37lnnhwa5","many_one","0","direct_first","1","er07an01","1","21","1","1","3","1","703","","","<img src = 'targets/mask.png' width = '100%;'>","75","pos","CS","CS","1","category1/CS10.png","","targets/30.png","indirect","1","22"
"","html-keyboard-response","231","629879","0.0-10.0-0.23","l37lnnhwa5","many_one","0","direct_first","1","er07an01","1","21","1","1","3","1","null","","","<div style=""font-size:60px;"">+</div>","null","","","","","","","","","",""
"","html-keyboard-response","232","629973","0.0-10.0-1.23","l37lnnhwa5","many_one","0","direct_first","1","er07an01","1","21","1","1","3","1","null","","","<img src = 'category1/CS8.png' width = '100%;'>","null","","","","","","","","","",""
"","html-keyboard-response","233","630226","0.0-10.0-2.23","l37lnnhwa5","many_one","0","direct_first","1","er07an01","1","21","1","1","3","1","null","","","<img src = 'targets/28.png' width = '100%;'>","null","","","","","","","","","",""
"","html-keyboard-response","234","630879","0.0-10.0-3.23","l37lnnhwa5","many_one","0","direct_first","1","er07an01","1","21","1","1","3","1","652","","","<img src = 'targets/mask.png' width = '100%;'>","68","pos","CS","CS","1","category1/CS8.png","","targets/28.png","indirect","0","23"
"","survey-html-form","235","634700","0.0-11.0","l37lnnhwa5","many_one","0","direct_first","1","er07an01","1","21","1","1","3","1","3318","","{}","","","","","","","","","","","",""
"","html-keyboard-response","236","637705","0.0-12.0-0.0","l37lnnhwa5","many_one","0","direct_first","1","er07an01","1","21","1","1","3","1","null","","","<div style=""font-size:60px;"">+</div>","null","","","","","","","","","",""
"","html-keyboard-response","237","637798","0.0-12.0-1.0","l37lnnhwa5","many_one","0","direct_first","1","er07an01","1","21","1","1","3","1","null","","","<img src = 'category2/men.png' width = '100%;'>","null","","","","","","","","","",""
"","html-keyboard-response","238","638050","0.0-12.0-2.0","l37lnnhwa5","many_one","0","direct_first","1","er07an01","1","21","1","1","3","1","null","","","<img src = 'targets/27.png' width = '100%;'>","null","","","","","","","","","",""
"","html-keyboard-response","239","638625","0.0-12.0-3.0","l37lnnhwa5","many_one","0","direct_first","1","er07an01","1","21","1","1","3","1","573","","","<img src = 'targets/mask.png' width = '100%;'>","75","neg","GS","abstract","2","category2/men.png","","targets/27.png","indirect","1","24"
"","html-keyboard-response","240","640129","0.0-12.0-0.1","l37lnnhwa5","many_one","0","direct_first","1","er07an01","1","21","1","1","3","1","null","","","<div style=""font-size:60px;"">+</div>","null","","","","","","","","","",""
"","html-keyboard-response","241","640222","0.0-12.0-1.1","l37lnnhwa5","many_one","0","direct_first","1","er07an01","1","21","1","1","3","1","null","","","<img src = 'category2/GS1.png' width = '100%;'>","null","","","","","","","","","",""
"","html-keyboard-response","242","640475","0.0-12.0-2.1","l37lnnhwa5","many_one","0","direct_first","1","er07an01","1","21","1","1","3","1","null","","","<img src = 'targets/25.png' width = '100%;'>","null","","","","","","","","","",""
"","html-keyboard-response","243","641005","0.0-12.0-3.1","l37lnnhwa5","many_one","0","direct_first","1","er07an01","1","21","1","1","3","1","529","","","<img src = 'targets/mask.png' width = '100%;'>","68","neg","GS","GSnew","2","category2/GS1.png","","targets/25.png","indirect","0","25"
"","html-keyboard-response","244","642507","0.0-12.0-0.2","l37lnnhwa5","many_one","0","direct_first","1","er07an01","1","21","1","1","3","1","null","","","<div style=""font-size:60px;"">+</div>","null","","","","","","","","","",""
"","html-keyboard-response","245","642601","0.0-12.0-1.2","l37lnnhwa5","many_one","0","direct_first","1","er07an01","1","21","1","1","3","1","null","","","<img src = 'category4/GS1.png' width = '100%;'>","null","","","","","","","","","",""
"","html-keyboard-response","246","642854","0.0-12.0-2.2","l37lnnhwa5","many_one","0","direct_first","1","er07an01","1","21","1","1","3","1","null","","","<img src = 'targets/11.png' width = '100%;'>","null","","","","","","","","","",""
"","html-keyboard-response","247","643684","0.0-12.0-3.2","l37lnnhwa5","many_one","0","direct_first","1","er07an01","1","21","1","1","3","1","829","","","<img src = 'targets/mask.png' width = '100%;'>","68","pos","GS","GSnew","4","category4/GS1.png","","targets/11.png","indirect","0","26"
"","html-keyboard-response","248","645188","0.0-12.0-0.3","l37lnnhwa5","many_one","0","direct_first","1","er07an01","1","21","1","1","3","1","null","","","<div style=""font-size:60px;"">+</div>","null","","","","","","","","","",""
"","html-keyboard-response","249","645281","0.0-12.0-1.3","l37lnnhwa5","many_one","0","direct_first","1","er07an01","1","21","1","1","3","1","null","","","<img src = 'category2/GS2.png' width = '100%;'>","null","","","","","","","","","",""
"","html-keyboard-response","250","645535","0.0-12.0-2.3","l37lnnhwa5","many_one","0","direct_first","1","er07an01","1","21","1","1","3","1","null","","","<img src = 'targets/35.png' width = '100%;'>","null","","","","","","","","","",""
"","html-keyboard-response","251","646079","0.0-12.0-3.3","l37lnnhwa5","many_one","0","direct_first","1","er07an01","1","21","1","1","3","1","542","","","<img src = 'targets/mask.png' width = '100%;'>","75","neg","GS","GSnew","2","category2/GS2.png","","targets/35.png","indirect","1","27"
"","html-keyboard-response","252","647583","0.0-12.0-0.4","l37lnnhwa5","many_one","0","direct_first","1","er07an01","1","21","1","1","3","1","null","","","<div style=""font-size:60px;"">+</div>","null","","","","","","","","","",""
"","html-keyboard-response","253","647676","0.0-12.0-1.4","l37lnnhwa5","many_one","0","direct_first","1","er07an01","1","21","1","1","3","1","null","","","<img src = 'category3/GS3.png' width = '100%;'>","null","","","","","","","","","",""
"","html-keyboard-response","254","647928","0.0-12.0-2.4","l37lnnhwa5","many_one","0","direct_first","1","er07an01","1","21","1","1","3","1","null","","","<img src = 'targets/21.png' width = '100%;'>","null","","","","","","","","","",""
"","html-keyboard-response","255","648768","0.0-12.0-3.4","l37lnnhwa5","many_one","0","direct_first","1","er07an01","1","21","1","1","3","1","839","","","<img src = 'targets/mask.png' width = '100%;'>","68","neg","GS","GSnew","3","category3/GS3.png","","targets/21.png","indirect","0","28"
"","html-keyboard-response","256","650273","0.0-12.0-0.5","l37lnnhwa5","many_one","0","direct_first","1","er07an01","1","21","1","1","3","1","null","","","<div style=""font-size:60px;"">+</div>","null","","","","","","","","","",""
"","html-keyboard-response","257","650366","0.0-12.0-1.5","l37lnnhwa5","many_one","0","direct_first","1","er07an01","1","21","1","1","3","1","null","","","<img src = 'category4/lin.png' width = '100%;'>","null","","","","","","","","","",""
"","html-keyboard-response","258","650617","0.0-12.0-2.5","l37lnnhwa5","many_one","0","direct_first","1","er07an01","1","21","1","1","3","1","null","","","<img src = 'targets/38.png' width = '100%;'>","null","","","","","","","","","",""
"","html-keyboard-response","259","651304","0.0-12.0-3.5","l37lnnhwa5","many_one","0","direct_first","1","er07an01","1","21","1","1","3","1","685","","","<img src = 'targets/mask.png' width = '100%;'>","68","pos","GS","abstract","4","category4/lin.png","","targets/38.png","indirect","0","29"
"","html-keyboard-response","260","652808","0.0-12.0-0.6","l37lnnhwa5","many_one","0","direct_first","1","er07an01","1","21","1","1","3","1","null","","","<div style=""font-size:60px;"">+</div>","null","","","","","","","","","",""
"","html-keyboard-response","261","652900","0.0-12.0-1.6","l37lnnhwa5","many_one","0","direct_first","1","er07an01","1","21","1","1","3","1","null","","","<img src = 'category1/CS3.png' width = '100%;'>","null","","","","","","","","","",""
"","html-keyboard-response","262","653156","0.0-12.0-2.6","l37lnnhwa5","many_one","0","direct_first","1","er07an01","1","21","1","1","3","1","null","","","<img src = 'targets/23.png' width = '100%;'>","null","","","","","","","","","",""
"","html-keyboard-response","263","654036","0.0-12.0-3.6","l37lnnhwa5","many_one","0","direct_first","1","er07an01","1","21","1","1","3","1","879","","","<img src = 'targets/mask.png' width = '100%;'>","68","pos","GS","GSold","1","category1/CS3.png","","targets/23.png","indirect","0","30"
"","html-keyboard-response","264","655540","0.0-12.0-0.7","l37lnnhwa5","many_one","0","direct_first","1","er07an01","1","21","1","1","3","1","null","","","<div style=""font-size:60px;"">+</div>","null","","","","","","","","","",""
"","html-keyboard-response","265","655633","0.0-12.0-1.7","l37lnnhwa5","many_one","0","direct_first","1","er07an01","1","21","1","1","3","1","null","","","<img src = 'category4/CS7.png' width = '100%;'>","null","","","","","","","","","",""
"","html-keyboard-response","266","655886","0.0-12.0-2.7","l37lnnhwa5","many_one","0","direct_first","1","er07an01","1","21","1","1","3","1","null","","","<img src = 'targets/14.png' width = '100%;'>","null","","","","","","","","","",""
"","html-keyboard-response","267","656526","0.0-12.0-3.7","l37lnnhwa5","many_one","0","direct_first","1","er07an01","1","21","1","1","3","1","639","","","<img src = 'targets/mask.png' width = '100%;'>","75","pos","GS","GSold","4","category4/CS7.png","","targets/14.png","indirect","1","31"
"","html-keyboard-response","268","658030","0.0-12.0-0.8","l37lnnhwa5","many_one","0","direct_first","1","er07an01","1","21","1","1","3","1","null","","","<div style=""font-size:60px;"">+</div>","null","","","","","","","","","",""
"","html-keyboard-response","269","658124","0.0-12.0-1.8","l37lnnhwa5","many_one","0","direct_first","1","er07an01","1","21","1","1","3","1","null","","","<img src = 'category3/CS1.png' width = '100%;'>","null","","","","","","","","","",""
"","html-keyboard-response","270","658377","0.0-12.0-2.8","l37lnnhwa5","many_one","0","direct_first","1","er07an01","1","21","1","1","3","1","null","","","<img src = 'targets/32.png' width = '100%;'>","null","","","","","","","","","",""
"","html-keyboard-response","271","659345","0.0-12.0-3.8","l37lnnhwa5","many_one","0","direct_first","1","er07an01","1","21","1","1","3","1","965","","","<img src = 'targets/mask.png' width = '100%;'>","68","neg","GS","GSold","3","category3/CS1.png","","targets/32.png","indirect","0","32"
"","html-keyboard-response","272","660848","0.0-12.0-0.9","l37lnnhwa5","many_one","0","direct_first","1","er07an01","1","21","1","1","3","1","null","","","<div style=""font-size:60px;"">+</div>","null","","","","","","","","","",""
"","html-keyboard-response","273","660940","0.0-12.0-1.9","l37lnnhwa5","many_one","0","direct_first","1","er07an01","1","21","1","1","3","1","null","","","<img src = 'category1/GS2.png' width = '100%;'>","null","","","","","","","","","",""
"","html-keyboard-response","274","661194","0.0-12.0-2.9","l37lnnhwa5","many_one","0","direct_first","1","er07an01","1","21","1","1","3","1","null","","","<img src = 'targets/39.png' width = '100%;'>","null","","","","","","","","","",""
"","html-keyboard-response","275","661840","0.0-12.0-3.9","l37lnnhwa5","many_one","0","direct_first","1","er07an01","1","21","1","1","3","1","646","","","<img src = 'targets/mask.png' width = '100%;'>","75","pos","GS","GSnew","1","category1/GS2.png","","targets/39.png","indirect","1","33"
"","html-keyboard-response","276","663344","0.0-12.0-0.10","l37lnnhwa5","many_one","0","direct_first","1","er07an01","1","21","1","1","3","1","null","","","<div style=""font-size:60px;"">+</div>","null","","","","","","","","","",""
"","html-keyboard-response","277","663437","0.0-12.0-1.10","l37lnnhwa5","many_one","0","direct_first","1","er07an01","1","21","1","1","3","1","null","","","<img src = 'category1/GS3.png' width = '100%;'>","null","","","","","","","","","",""
"","html-keyboard-response","278","663689","0.0-12.0-2.10","l37lnnhwa5","many_one","0","direct_first","1","er07an01","1","21","1","1","3","1","null","","","<img src = 'targets/29.png' width = '100%;'>","null","","","","","","","","","",""
"","html-keyboard-response","279","664410","0.0-12.0-3.10","l37lnnhwa5","many_one","0","direct_first","1","er07an01","1","21","1","1","3","1","719","","","<img src = 'targets/mask.png' width = '100%;'>","68","pos","GS","GSnew","1","category1/GS3.png","","targets/29.png","indirect","0","34"
"","html-keyboard-response","280","665914","0.0-12.0-0.11","l37lnnhwa5","many_one","0","direct_first","1","er07an01","1","21","1","1","3","1","null","","","<div style=""font-size:60px;"">+</div>","null","","","","","","","","","",""
"","html-keyboard-response","281","666005","0.0-12.0-1.11","l37lnnhwa5","many_one","0","direct_first","1","er07an01","1","21","1","1","3","1","null","","","<img src = 'category1/ma.png' width = '100%;'>","null","","","","","","","","","",""
"","html-keyboard-response","282","666259","0.0-12.0-2.11","l37lnnhwa5","many_one","0","direct_first","1","er07an01","1","21","1","1","3","1","null","","","<img src = 'targets/43.png' width = '100%;'>","null","","","","","","","","","",""
"","html-keyboard-response","283","666776","0.0-12.0-3.11","l37lnnhwa5","many_one","0","direct_first","1","er07an01","1","21","1","1","3","1","515","","","<img src = 'targets/mask.png' width = '100%;'>","68","pos","GS","abstract","1","category1/ma.png","","targets/43.png","indirect","0","35"
"","html-keyboard-response","284","668279","0.0-12.0-0.12","l37lnnhwa5","many_one","0","direct_first","1","er07an01","1","21","1","1","3","1","null","","","<div style=""font-size:60px;"">+</div>","null","","","","","","","","","",""
"","html-keyboard-response","285","668372","0.0-12.0-1.12","l37lnnhwa5","many_one","0","direct_first","1","er07an01","1","21","1","1","3","1","null","","","<img src = 'category3/GS2.png' width = '100%;'>","null","","","","","","","","","",""
"","html-keyboard-response","286","668626","0.0-12.0-2.12","l37lnnhwa5","many_one","0","direct_first","1","er07an01","1","21","1","1","3","1","null","","","<img src = 'targets/47.png' width = '100%;'>","null","","","","","","","","","",""
"","html-keyboard-response","287","669140","0.0-12.0-3.12","l37lnnhwa5","many_one","0","direct_first","1","er07an01","1","21","1","1","3","1","513","","","<img src = 'targets/mask.png' width = '100%;'>","75","neg","GS","GSnew","3","category3/GS2.png","","targets/47.png","indirect","1","36"
"","html-keyboard-response","288","670645","0.0-12.0-0.13","l37lnnhwa5","many_one","0","direct_first","1","er07an01","1","21","1","1","3","1","null","","","<div style=""font-size:60px;"">+</div>","null","","","","","","","","","",""
"","html-keyboard-response","289","670737","0.0-12.0-1.13","l37lnnhwa5","many_one","0","direct_first","1","er07an01","1","21","1","1","3","1","null","","","<img src = 'category4/CS10.png' width = '100%;'>","null","","","","","","","","","",""
"","html-keyboard-response","290","670989","0.0-12.0-2.13","l37lnnhwa5","many_one","0","direct_first","1","er07an01","1","21","1","1","3","1","null","","","<img src = 'targets/46.png' width = '100%;'>","null","","","","","","","","","",""
"","html-keyboard-response","291","671920","0.0-12.0-3.13","l37lnnhwa5","many_one","0","direct_first","1","er07an01","1","21","1","1","3","1","930","","","<img src = 'targets/mask.png' width = '100%;'>","75","pos","GS","GSold","4","category4/CS10.png","","targets/46.png","indirect","1","37"
"","html-keyboard-response","292","673426","0.0-12.0-0.14","l37lnnhwa5","many_one","0","direct_first","1","er07an01","1","21","1","1","3","1","null","","","<div style=""font-size:60px;"">+</div>","null","","","","","","","","","",""
"","html-keyboard-response","293","673518","0.0-12.0-1.14","l37lnnhwa5","many_one","0","direct_first","1","er07an01","1","21","1","1","3","1","null","","","<img src = 'category2/GS3.png' width = '100%;'>","null","","","","","","","","","",""
"","html-keyboard-response","294","673771","0.0-12.0-2.14","l37lnnhwa5","many_one","0","direct_first","1","er07an01","1","21","1","1","3","1","null","","","<img src = 'targets/31.png' width = '100%;'>","null","","","","","","","","","",""
"","html-keyboard-response","295","674397","0.0-12.0-3.14","l37lnnhwa5","many_one","0","direct_first","1","er07an01","1","21","1","1","3","1","623","","","<img src = 'targets/mask.png' width = '100%;'>","68","neg","GS","GSnew","2","category2/GS3.png","","targets/31.png","indirect","0","38"
"","html-keyboard-response","296","675899","0.0-12.0-0.15","l37lnnhwa5","many_one","0","direct_first","1","er07an01","1","21","1","1","3","1","null","","","<div style=""font-size:60px;"">+</div>","null","","","","","","","","","",""
"","html-keyboard-response","297","675992","0.0-12.0-1.15","l37lnnhwa5","many_one","0","direct_first","1","er07an01","1","21","1","1","3","1","null","","","<img src = 'category4/CS9.png' width = '100%;'>","null","","","","","","","","","",""
"","html-keyboard-response","298","676246","0.0-12.0-2.15","l37lnnhwa5","many_one","0","direct_first","1","er07an01","1","21","1","1","3","1","null","","","<img src = 'targets/13.png' width = '100%;'>","null","","","","","","","","","",""
"","html-keyboard-response","299","676893","0.0-12.0-3.15","l37lnnhwa5","many_one","0","direct_first","1","er07an01","1","21","1","1","3","1","646","","","<img src = 'targets/mask.png' width = '100%;'>","75","pos","GS","GSold","4","category4/CS9.png","","targets/13.png","indirect","1","39"
"","html-keyboard-response","300","678399","0.0-12.0-0.16","l37lnnhwa5","many_one","0","direct_first","1","er07an01","1","21","1","1","3","1","null","","","<div style=""font-size:60px;"">+</div>","null","","","","","","","","","",""
"","html-keyboard-response","301","678490","0.0-12.0-1.16","l37lnnhwa5","many_one","0","direct_first","1","er07an01","1","21","1","1","3","1","null","","","<img src = 'category4/GS2.png' width = '100%;'>","null","","","","","","","","","",""
"","html-keyboard-response","302","678745","0.0-12.0-2.16","l37lnnhwa5","many_one","0","direct_first","1","er07an01","1","21","1","1","3","1","null","","","<img src = 'targets/15.png' width = '100%;'>","null","","","","","","","","","",""
"","html-keyboard-response","303","679508","0.0-12.0-3.16","l37lnnhwa5","many_one","0","direct_first","1","er07an01","1","21","1","1","3","1","762","","","<img src = 'targets/mask.png' width = '100%;'>","68","pos","GS","GSnew","4","category4/GS2.png","","targets/15.png","indirect","0","40"
"","html-keyboard-response","304","681013","0.0-12.0-0.17","l37lnnhwa5","many_one","0","direct_first","1","er07an01","1","21","1","1","3","1","null","","","<div style=""font-size:60px;"">+</div>","null","","","","","","","","","",""
"","html-keyboard-response","305","681106","0.0-12.0-1.17","l37lnnhwa5","many_one","0","direct_first","1","er07an01","1","21","1","1","3","1","null","","","<img src = 'category3/CS7.png' width = '100%;'>","null","","","","","","","","","",""
"","html-keyboard-response","306","681361","0.0-12.0-2.17","l37lnnhwa5","many_one","0","direct_first","1","er07an01","1","21","1","1","3","1","null","","","<img src = 'targets/9.png' width = '100%;'>","null","","","","","","","","","",""
"","html-keyboard-response","307","681968","0.0-12.0-3.17","l37lnnhwa5","many_one","0","direct_first","1","er07an01","1","21","1","1","3","1","607","","","<img src = 'targets/mask.png' width = '100%;'>","68","neg","GS","GSold","3","category3/CS7.png","","targets/9.png","indirect","0","41"
"","html-keyboard-response","308","683472","0.0-12.0-0.18","l37lnnhwa5","many_one","0","direct_first","1","er07an01","1","21","1","1","3","1","null","","","<div style=""font-size:60px;"">+</div>","null","","","","","","","","","",""
"","html-keyboard-response","309","683566","0.0-12.0-1.18","l37lnnhwa5","many_one","0","direct_first","1","er07an01","1","21","1","1","3","1","null","","","<img src = 'category3/GS1.png' width = '100%;'>","null","","","","","","","","","",""
"","html-keyboard-response","310","683819","0.0-12.0-2.18","l37lnnhwa5","many_one","0","direct_first","1","er07an01","1","21","1","1","3","1","null","","","<img src = 'targets/20.png' width = '100%;'>","null","","","","","","","","","",""
"","html-keyboard-response","311","684362","0.0-12.0-3.18","l37lnnhwa5","many_one","0","direct_first","1","er07an01","1","21","1","1","3","1","542","","","<img src = 'targets/mask.png' width = '100%;'>","75","neg","GS","GSnew","3","category3/GS1.png","","targets/20.png","indirect","1","42"
"","html-keyboard-response","312","685866","0.0-12.0-0.19","l37lnnhwa5","many_one","0","direct_first","1","er07an01","1","21","1","1","3","1","null","","","<div style=""font-size:60px;"">+</div>","null","","","","","","","","","",""
"","html-keyboard-response","313","685958","0.0-12.0-1.19","l37lnnhwa5","many_one","0","direct_first","1","er07an01","1","21","1","1","3","1","null","","","<img src = 'category3/wang.png' width = '100%;'>","null","","","","","","","","","",""
"","html-keyboard-response","314","686213","0.0-12.0-2.19","l37lnnhwa5","many_one","0","direct_first","1","er07an01","1","21","1","1","3","1","null","","","<img src = 'targets/10.png' width = '100%;'>","null","","","","","","","","","",""
"","html-keyboard-response","315","686853","0.0-12.0-3.19","l37lnnhwa5","many_one","0","direct_first","1","er07an01","1","21","1","1","3","1","637","","","<img src = 'targets/mask.png' width = '100%;'>","68","neg","GS","abstract","3","category3/wang.png","","targets/10.png","indirect","0","43"
"","html-keyboard-response","316","688358","0.0-12.0-0.20","l37lnnhwa5","many_one","0","direct_first","1","er07an01","1","21","1","1","3","1","null","","","<div style=""font-size:60px;"">+</div>","null","","","","","","","","","",""
"","html-keyboard-response","317","688451","0.0-12.0-1.20","l37lnnhwa5","many_one","0","direct_first","1","er07an01","1","21","1","1","3","1","null","","","<img src = 'category1/CS5.png' width = '100%;'>","null","","","","","","","","","",""
"","html-keyboard-response","318","688707","0.0-12.0-2.20","l37lnnhwa5","many_one","0","direct_first","1","er07an01","1","21","1","1","3","1","null","","","<img src = 'targets/45.png' width = '100%;'>","null","","","","","","","","","",""
"","html-keyboard-response","319","689284","0.0-12.0-3.20","l37lnnhwa5","many_one","0","direct_first","1","er07an01","1","21","1","1","3","1","575","","","<img src = 'targets/mask.png' width = '100%;'>","75","pos","GS","GSold","1","category1/CS5.png","","targets/45.png","indirect","1","44"
"","html-keyboard-response","320","690785","0.0-12.0-0.21","l37lnnhwa5","many_one","0","direct_first","1","er07an01","1","21","1","1","3","1","null","","","<div style=""font-size:60px;"">+</div>","null","","","","","","","","","",""
"","html-keyboard-response","321","690878","0.0-12.0-1.21","l37lnnhwa5","many_one","0","direct_first","1","er07an01","1","21","1","1","3","1","null","","","<img src = 'category1/GS1.png' width = '100%;'>","null","","","","","","","","","",""
"","html-keyboard-response","322","691133","0.0-12.0-2.21","l37lnnhwa5","many_one","0","direct_first","1","er07an01","1","21","1","1","3","1","null","","","<img src = 'targets/1.png' width = '100%;'>","null","","","","","","","","","",""
"","html-keyboard-response","323","692097","0.0-12.0-3.21","l37lnnhwa5","many_one","0","direct_first","1","er07an01","1","21","1","1","3","1","962","","","<img src = 'targets/mask.png' width = '100%;'>","68","pos","GS","GSnew","1","category1/GS1.png","","targets/1.png","indirect","0","45"
"","html-keyboard-response","324","693599","0.0-12.0-0.22","l37lnnhwa5","many_one","0","direct_first","1","er07an01","1","21","1","1","3","1","null","","","<div style=""font-size:60px;"">+</div>","null","","","","","","","","","",""
"","html-keyboard-response","325","693693","0.0-12.0-1.22","l37lnnhwa5","many_one","0","direct_first","1","er07an01","1","21","1","1","3","1","null","","","<img src = 'category4/GS3.png' width = '100%;'>","null","","","","","","","","","",""
"","html-keyboard-response","326","693945","0.0-12.0-2.22","l37lnnhwa5","many_one","0","direct_first","1","er07an01","1","21","1","1","3","1","null","","","<img src = 'targets/48.png' width = '100%;'>","null","","","","","","","","","",""
"","html-keyboard-response","327","694660","0.0-12.0-3.22","l37lnnhwa5","many_one","0","direct_first","1","er07an01","1","21","1","1","3","1","712","","","<img src = 'targets/mask.png' width = '100%;'>","68","pos","GS","GSnew","4","category4/GS3.png","","targets/48.png","indirect","0","46"
"","html-keyboard-response","328","696163","0.0-12.0-0.23","l37lnnhwa5","many_one","0","direct_first","1","er07an01","1","21","1","1","3","1","null","","","<div style=""font-size:60px;"">+</div>","null","","","","","","","","","",""
"","html-keyboard-response","329","696256","0.0-12.0-1.23","l37lnnhwa5","many_one","0","direct_first","1","er07an01","1","21","1","1","3","1","null","","","<img src = 'category3/CS4.png' width = '100%;'>","null","","","","","","","","","",""
"","html-keyboard-response","330","696508","0.0-12.0-2.23","l37lnnhwa5","many_one","0","direct_first","1","er07an01","1","21","1","1","3","1","null","","","<img src = 'targets/24.png' width = '100%;'>","null","","","","","","","","","",""
"","html-keyboard-response","331","697136","0.0-12.0-3.23","l37lnnhwa5","many_one","0","direct_first","1","er07an01","1","21","1","1","3","1","627","","","<img src = 'targets/mask.png' width = '100%;'>","75","neg","GS","GSold","3","category3/CS4.png","","targets/24.png","indirect","1","47"
"","survey-html-form","332","703924","0.0-13.0","l37lnnhwa5","many_one","0","direct_first","1","er07an01","1","21","1","1","3","1","6286","","{}","","","","","","","","","","","",""
"","image-slider-response","333","710313","0.0-14.0-0.0","l37lnnhwa5","many_one","0","direct_first","1","er07an01","1","21","1","1","3","1","5381","","","","","neg","All","all","2","category2/men_all.png","-15","","all","",""
"","image-slider-response","334","713737","0.0-14.0-0.1","l37lnnhwa5","many_one","0","direct_first","1","er07an01","1","21","1","1","3","1","3422","","","","","pos","All","all","4","category4/lin_all.png","-21","","all","",""
"","image-slider-response","335","716057","0.0-14.0-0.2","l37lnnhwa5","many_one","0","direct_first","1","er07an01","1","21","1","1","3","1","2317","","","","","pos","All","all","1","category1/ma_all.png","-65","","all","",""
"","image-slider-response","336","718128","0.0-14.0-0.3","l37lnnhwa5","many_one","0","direct_first","1","er07an01","1","21","1","1","3","1","2069","","","","","neg","All","all","3","category3/wang_all.png","-88","","all","",""
"","survey-text","337","797109","0.0-15.0","l37lnnhwa5","many_one","0","direct_first","1","er07an01","1","21","1","1","3","1","78958","","{""Q0"":""ich hatte das Gefühl überwiegend unangenehm zu beurteilen. Ich habe auch viele Silben mit \""deutschen\"" Wörtern verknüpft und unter einfluss von diesem Wissen geurteilt , vielleicht?\n""}","","","","","","","","","","","",""
