"success","trial_type","trial_index","time_elapsed","internal_node_id","subject","condition","condition_code","measure","measure_code","codeword","gender","age","education","chinese","fach","handedness","comment","hinschauen","ablenkung","gewissenhaft","rt","url","responses","stimulus","key_press","val","type","type_specific","category","cs_selected","response","target","task","indirect","nr_pres"
"true","fullscreen","0","3411","0.0-0.0","wpybw232ar","many_one","0","direct_first","1","NS06EL16","1","24","1","1","3","1","","0","1","0","","","","","","","","","","","","","","",""
"","external-html","1","7450","0.0-1.0","wpybw232ar","many_one","0","direct_first","1","NS06EL16","1","24","1","1","3","1","","0","1","0","4014.4100000616163","text/information.html","","","","","","","","","","","","",""
"","external-html","2","14802","0.0-2.0","wpybw232ar","many_one","0","direct_first","1","NS06EL16","1","24","1","1","3","1","","0","1","0","7307.615000056103","text/consent.html","","","","","","","","","","","","",""
"","survey-html-form","3","33168","0.0-3.0","wpybw232ar","many_one","0","direct_first","1","NS06EL16","1","24","1","1","3","1","","0","1","0","18363.559999968857","","{""codeword_enter"":""NS06EL16""}","","","","","","","","","","","",""
"","survey-html-form","4","52866","0.0-4.0","wpybw232ar","many_one","0","direct_first","1","NS06EL16","1","24","1","1","3","1","","0","1","0","19695.28999994509","","{""age"":""24"",""education"":""1"",""subject"":""3"",""gender"":""1"",""handedness"":""1"",""chinese"":""1""}","","","","","","","","","","","",""
"","survey-html-form","5","69647","0.0-5.0","wpybw232ar","many_one","0","direct_first","1","NS06EL16","1","24","1","1","3","1","","0","1","0","16778.66999991238","","{}","","","","","","","","","","","",""
"","html-keyboard-response","6","73664","0.0-6.0-0.0-0.0","wpybw232ar","many_one","0","direct_first","1","NS06EL16","1","24","1","1","3","1","","0","1","0","null","","","<div class = 'row'><div class = 'column'><img src = 'usneg/9041.bmp' width = '100%;'></div><div class = 'column'><img src = 'category3/CS2.png' width = '70%;'></div></div>","null","neg","CS","CS","3","category3/CS2.png","","","","",""
"","html-keyboard-response","7","76177","0.0-6.0-0.0-0.1","wpybw232ar","many_one","0","direct_first","1","NS06EL16","1","24","1","1","3","1","","0","1","0","null","","","<div class = 'row'><div class = 'column'><img src = 'category1/CS5.png' width = '70%;'></div><div class = 'column'><img src = 'uspos/1340.bmp' width = '100%;'></div></div>","null","pos","CS","CS","1","category1/CS5.png","","","","",""
"","html-keyboard-response","8","78695","0.0-6.0-0.0-0.2","wpybw232ar","many_one","0","direct_first","1","NS06EL16","1","24","1","1","3","1","","0","1","0","null","","","<div class = 'row'><div class = 'column'><img src = 'category2/CS8.png' width = '70%;'></div><div class = 'column'><img src = 'usneg/9220.bmp' width = '100%;'></div></div>","null","neg","CS","CS","2","category2/CS8.png","","","","",""
"","html-keyboard-response","9","81213","0.0-6.0-0.0-0.3","wpybw232ar","many_one","0","direct_first","1","NS06EL16","1","24","1","1","3","1","","0","1","0","null","","","<div class = 'row'><div class = 'column'><img src = 'usneg/9290.bmp' width = '100%;'></div><div class = 'column'><img src = 'category2/CS3.png' width = '70%;'></div></div>","null","neg","CS","CS","2","category2/CS3.png","","","","",""
"","html-keyboard-response","10","83734","0.0-6.0-0.0-0.4","wpybw232ar","many_one","0","direct_first","1","NS06EL16","1","24","1","1","3","1","","0","1","0","null","","","<div class = 'row'><div class = 'column'><img src = 'uspos/5760.bmp' width = '100%;'></div><div class = 'column'><img src = 'category4/CS5.png' width = '70%;'></div></div>","null","pos","CS","CS","4","category4/CS5.png","","","","",""
"","html-keyboard-response","11","86266","0.0-6.0-0.0-0.5","wpybw232ar","many_one","0","direct_first","1","NS06EL16","1","24","1","1","3","1","","0","1","0","null","","","<div class = 'row'><div class = 'column'><img src = 'uspos/5830.bmp' width = '100%;'></div><div class = 'column'><img src = 'category1/CS2.png' width = '70%;'></div></div>","null","pos","CS","CS","1","category1/CS2.png","","","","",""
"","html-keyboard-response","12","88782","0.0-6.0-0.0-0.6","wpybw232ar","many_one","0","direct_first","1","NS06EL16","1","24","1","1","3","1","","0","1","0","null","","","<div class = 'row'><div class = 'column'><img src = 'uspos/7580.bmp' width = '100%;'></div><div class = 'column'><img src = 'category1/CS6.png' width = '70%;'></div></div>","null","pos","CS","CS","1","category1/CS6.png","","","","",""
"","html-keyboard-response","13","91312","0.0-6.0-0.0-0.7","wpybw232ar","many_one","0","direct_first","1","NS06EL16","1","24","1","1","3","1","","0","1","0","null","","","<div class = 'row'><div class = 'column'><img src = 'category3/CS3.png' width = '70%;'></div><div class = 'column'><img src = 'usneg/9180.bmp' width = '100%;'></div></div>","null","neg","CS","CS","3","category3/CS3.png","","","","",""
"","html-keyboard-response","14","93835","0.0-6.0-0.0-0.8","wpybw232ar","many_one","0","direct_first","1","NS06EL16","1","24","1","1","3","1","","0","1","0","null","","","<div class = 'row'><div class = 'column'><img src = 'usneg/8485.bmp' width = '100%;'></div><div class = 'column'><img src = 'category3/CS10.png' width = '70%;'></div></div>","null","neg","CS","CS","3","category3/CS10.png","","","","",""
"","html-keyboard-response","15","96344","0.0-6.0-0.0-0.9","wpybw232ar","many_one","0","direct_first","1","NS06EL16","1","24","1","1","3","1","","0","1","0","null","","","<div class = 'row'><div class = 'column'><img src = 'category2/CS6.png' width = '70%;'></div><div class = 'column'><img src = 'usneg/9340.bmp' width = '100%;'></div></div>","null","neg","CS","CS","2","category2/CS6.png","","","","",""
"","html-keyboard-response","16","98857","0.0-6.0-0.0-0.10","wpybw232ar","many_one","0","direct_first","1","NS06EL16","1","24","1","1","3","1","","0","1","0","null","","","<div class = 'row'><div class = 'column'><img src = 'category1/CS7.png' width = '70%;'></div><div class = 'column'><img src = 'uspos/2160.bmp' width = '100%;'></div></div>","null","pos","CS","CS","1","category1/CS7.png","","","","",""
"","html-keyboard-response","17","101390","0.0-6.0-0.0-0.11","wpybw232ar","many_one","0","direct_first","1","NS06EL16","1","24","1","1","3","1","","0","1","0","null","","","<div class = 'row'><div class = 'column'><img src = 'category2/CS4.png' width = '70%;'></div><div class = 'column'><img src = 'usneg/3181.bmp' width = '100%;'></div></div>","null","neg","CS","CS","2","category2/CS4.png","","","","",""
"","html-keyboard-response","18","103902","0.0-6.0-0.0-0.12","wpybw232ar","many_one","0","direct_first","1","NS06EL16","1","24","1","1","3","1","","0","1","0","null","","","<div class = 'row'><div class = 'column'><img src = 'category4/CS10.png' width = '70%;'></div><div class = 'column'><img src = 'uspos/2040.bmp' width = '100%;'></div></div>","null","pos","CS","CS","4","category4/CS10.png","","","","",""
"","html-keyboard-response","19","106419","0.0-6.0-0.0-0.13","wpybw232ar","many_one","0","direct_first","1","NS06EL16","1","24","1","1","3","1","","0","1","0","null","","","<div class = 'row'><div class = 'column'><img src = 'category3/CS7.png' width = '70%;'></div><div class = 'column'><img src = 'usneg/6570.1.bmp' width = '100%;'></div></div>","null","neg","CS","CS","3","category3/CS7.png","","","","",""
"","html-keyboard-response","20","108925","0.0-6.0-0.0-0.14","wpybw232ar","many_one","0","direct_first","1","NS06EL16","1","24","1","1","3","1","","0","1","0","null","","","<div class = 'row'><div class = 'column'><img src = 'category3/CS1.png' width = '70%;'></div><div class = 'column'><img src = 'usneg/9280.bmp' width = '100%;'></div></div>","null","neg","CS","CS","3","category3/CS1.png","","","","",""
"","html-keyboard-response","21","111430","0.0-6.0-0.0-0.15","wpybw232ar","many_one","0","direct_first","1","NS06EL16","1","24","1","1","3","1","","0","1","0","null","","","<div class = 'row'><div class = 'column'><img src = 'uspos/7325.bmp' width = '100%;'></div><div class = 'column'><img src = 'category4/CS1.png' width = '70%;'></div></div>","null","pos","CS","CS","4","category4/CS1.png","","","","",""
"","html-keyboard-response","22","113947","0.0-6.0-0.0-0.16","wpybw232ar","many_one","0","direct_first","1","NS06EL16","1","24","1","1","3","1","","0","1","0","null","","","<div class = 'row'><div class = 'column'><img src = 'uspos/1710.bmp' width = '100%;'></div><div class = 'column'><img src = 'category1/CS1.png' width = '70%;'></div></div>","null","pos","CS","CS","1","category1/CS1.png","","","","",""
"","html-keyboard-response","23","116460","0.0-6.0-0.0-0.17","wpybw232ar","many_one","0","direct_first","1","NS06EL16","1","24","1","1","3","1","","0","1","0","null","","","<div class = 'row'><div class = 'column'><img src = 'uspos/2150.bmp' width = '100%;'></div><div class = 'column'><img src = 'category4/CS8.png' width = '70%;'></div></div>","null","pos","CS","CS","4","category4/CS8.png","","","","",""
"","html-keyboard-response","24","118968","0.0-6.0-0.0-0.18","wpybw232ar","many_one","0","direct_first","1","NS06EL16","1","24","1","1","3","1","","0","1","0","null","","","<div class = 'row'><div class = 'column'><img src = 'uspos/2057.bmp' width = '100%;'></div><div class = 'column'><img src = 'category4/CS3.png' width = '70%;'></div></div>","null","pos","CS","CS","4","category4/CS3.png","","","","",""
"","html-keyboard-response","25","121475","0.0-6.0-0.0-0.19","wpybw232ar","many_one","0","direct_first","1","NS06EL16","1","24","1","1","3","1","","0","1","0","null","","","<div class = 'row'><div class = 'column'><img src = 'usneg/9000.bmp' width = '100%;'></div><div class = 'column'><img src = 'category2/CS1.png' width = '70%;'></div></div>","null","neg","CS","CS","2","category2/CS1.png","","","","",""
"","survey-html-form","26","130754","0.0-6.0-1.0","wpybw232ar","many_one","0","direct_first","1","NS06EL16","1","24","1","1","3","1","","0","1","0","8774.379999842495","","{}","","","","","","","","","","","",""
"","html-keyboard-response","27","134776","0.0-6.0-2.0-0.0","wpybw232ar","many_one","0","direct_first","1","NS06EL16","1","24","1","1","3","1","","0","1","0","null","","","<div class = 'row'><div class = 'column'><img src = 'category3/CS10.png' width = '70%;'></div><div class = 'column'><img src = 'usneg/8485.bmp' width = '100%;'></div></div>","null","neg","CS","CS","3","category3/CS10.png","","","","",""
"","html-keyboard-response","28","137288","0.0-6.0-2.0-0.1","wpybw232ar","many_one","0","direct_first","1","NS06EL16","1","24","1","1","3","1","","0","1","0","null","","","<div class = 'row'><div class = 'column'><img src = 'category4/CS3.png' width = '70%;'></div><div class = 'column'><img src = 'uspos/2057.bmp' width = '100%;'></div></div>","null","pos","CS","CS","4","category4/CS3.png","","","","",""
"","html-keyboard-response","29","139795","0.0-6.0-2.0-0.2","wpybw232ar","many_one","0","direct_first","1","NS06EL16","1","24","1","1","3","1","","0","1","0","null","","","<div class = 'row'><div class = 'column'><img src = 'uspos/7580.bmp' width = '100%;'></div><div class = 'column'><img src = 'category1/CS6.png' width = '70%;'></div></div>","null","pos","CS","CS","1","category1/CS6.png","","","","",""
"","html-keyboard-response","30","142298","0.0-6.0-2.0-0.3","wpybw232ar","many_one","0","direct_first","1","NS06EL16","1","24","1","1","3","1","","0","1","0","null","","","<div class = 'row'><div class = 'column'><img src = 'category1/CS5.png' width = '70%;'></div><div class = 'column'><img src = 'uspos/1340.bmp' width = '100%;'></div></div>","null","pos","CS","CS","1","category1/CS5.png","","","","",""
"","html-keyboard-response","31","144829","0.0-6.0-2.0-0.4","wpybw232ar","many_one","0","direct_first","1","NS06EL16","1","24","1","1","3","1","","0","1","0","null","","","<div class = 'row'><div class = 'column'><img src = 'uspos/1710.bmp' width = '100%;'></div><div class = 'column'><img src = 'category1/CS1.png' width = '70%;'></div></div>","null","pos","CS","CS","1","category1/CS1.png","","","","",""
"","html-keyboard-response","32","147354","0.0-6.0-2.0-0.5","wpybw232ar","many_one","0","direct_first","1","NS06EL16","1","24","1","1","3","1","","0","1","0","null","","","<div class = 'row'><div class = 'column'><img src = 'category2/CS3.png' width = '70%;'></div><div class = 'column'><img src = 'usneg/9290.bmp' width = '100%;'></div></div>","null","neg","CS","CS","2","category2/CS3.png","","","","",""
"","html-keyboard-response","33","149873","0.0-6.0-2.0-0.6","wpybw232ar","many_one","0","direct_first","1","NS06EL16","1","24","1","1","3","1","","0","1","0","null","","","<div class = 'row'><div class = 'column'><img src = 'usneg/9280.bmp' width = '100%;'></div><div class = 'column'><img src = 'category3/CS1.png' width = '70%;'></div></div>","null","neg","CS","CS","3","category3/CS1.png","","","","",""
"","html-keyboard-response","34","152380","0.0-6.0-2.0-0.7","wpybw232ar","many_one","0","direct_first","1","NS06EL16","1","24","1","1","3","1","","0","1","0","null","","","<div class = 'row'><div class = 'column'><img src = 'usneg/9220.bmp' width = '100%;'></div><div class = 'column'><img src = 'category2/CS8.png' width = '70%;'></div></div>","null","neg","CS","CS","2","category2/CS8.png","","","","",""
"","html-keyboard-response","35","154900","0.0-6.0-2.0-0.8","wpybw232ar","many_one","0","direct_first","1","NS06EL16","1","24","1","1","3","1","","0","1","0","null","","","<div class = 'row'><div class = 'column'><img src = 'usneg/9340.bmp' width = '100%;'></div><div class = 'column'><img src = 'category2/CS6.png' width = '70%;'></div></div>","null","neg","CS","CS","2","category2/CS6.png","","","","",""
"","html-keyboard-response","36","157408","0.0-6.0-2.0-0.9","wpybw232ar","many_one","0","direct_first","1","NS06EL16","1","24","1","1","3","1","","0","1","0","null","","","<div class = 'row'><div class = 'column'><img src = 'category1/CS7.png' width = '70%;'></div><div class = 'column'><img src = 'uspos/2160.bmp' width = '100%;'></div></div>","null","pos","CS","CS","1","category1/CS7.png","","","","",""
"","html-keyboard-response","37","159936","0.0-6.0-2.0-0.10","wpybw232ar","many_one","0","direct_first","1","NS06EL16","1","24","1","1","3","1","","0","1","0","null","","","<div class = 'row'><div class = 'column'><img src = 'category3/CS7.png' width = '70%;'></div><div class = 'column'><img src = 'usneg/6570.1.bmp' width = '100%;'></div></div>","null","neg","CS","CS","3","category3/CS7.png","","","","",""
"","html-keyboard-response","38","162441","0.0-6.0-2.0-0.11","wpybw232ar","many_one","0","direct_first","1","NS06EL16","1","24","1","1","3","1","","0","1","0","null","","","<div class = 'row'><div class = 'column'><img src = 'category3/CS3.png' width = '70%;'></div><div class = 'column'><img src = 'usneg/9180.bmp' width = '100%;'></div></div>","null","neg","CS","CS","3","category3/CS3.png","","","","",""
"","html-keyboard-response","39","164966","0.0-6.0-2.0-0.12","wpybw232ar","many_one","0","direct_first","1","NS06EL16","1","24","1","1","3","1","","0","1","0","null","","","<div class = 'row'><div class = 'column'><img src = 'category3/CS2.png' width = '70%;'></div><div class = 'column'><img src = 'usneg/9041.bmp' width = '100%;'></div></div>","null","neg","CS","CS","3","category3/CS2.png","","","","",""
"","html-keyboard-response","40","167487","0.0-6.0-2.0-0.13","wpybw232ar","many_one","0","direct_first","1","NS06EL16","1","24","1","1","3","1","","0","1","0","null","","","<div class = 'row'><div class = 'column'><img src = 'category4/CS5.png' width = '70%;'></div><div class = 'column'><img src = 'uspos/5760.bmp' width = '100%;'></div></div>","null","pos","CS","CS","4","category4/CS5.png","","","","",""
"","html-keyboard-response","41","169998","0.0-6.0-2.0-0.14","wpybw232ar","many_one","0","direct_first","1","NS06EL16","1","24","1","1","3","1","","0","1","0","null","","","<div class = 'row'><div class = 'column'><img src = 'uspos/2150.bmp' width = '100%;'></div><div class = 'column'><img src = 'category4/CS8.png' width = '70%;'></div></div>","null","pos","CS","CS","4","category4/CS8.png","","","","",""
"","html-keyboard-response","42","172524","0.0-6.0-2.0-0.15","wpybw232ar","many_one","0","direct_first","1","NS06EL16","1","24","1","1","3","1","","0","1","0","null","","","<div class = 'row'><div class = 'column'><img src = 'category4/CS10.png' width = '70%;'></div><div class = 'column'><img src = 'uspos/2040.bmp' width = '100%;'></div></div>","null","pos","CS","CS","4","category4/CS10.png","","","","",""
"","html-keyboard-response","43","175046","0.0-6.0-2.0-0.16","wpybw232ar","many_one","0","direct_first","1","NS06EL16","1","24","1","1","3","1","","0","1","0","null","","","<div class = 'row'><div class = 'column'><img src = 'usneg/3181.bmp' width = '100%;'></div><div class = 'column'><img src = 'category2/CS4.png' width = '70%;'></div></div>","null","neg","CS","CS","2","category2/CS4.png","","","","",""
"","html-keyboard-response","44","177558","0.0-6.0-2.0-0.17","wpybw232ar","many_one","0","direct_first","1","NS06EL16","1","24","1","1","3","1","","0","1","0","null","","","<div class = 'row'><div class = 'column'><img src = 'uspos/7325.bmp' width = '100%;'></div><div class = 'column'><img src = 'category4/CS1.png' width = '70%;'></div></div>","null","pos","CS","CS","4","category4/CS1.png","","","","",""
"","html-keyboard-response","45","180084","0.0-6.0-2.0-0.18","wpybw232ar","many_one","0","direct_first","1","NS06EL16","1","24","1","1","3","1","","0","1","0","null","","","<div class = 'row'><div class = 'column'><img src = 'category1/CS2.png' width = '70%;'></div><div class = 'column'><img src = 'uspos/5830.bmp' width = '100%;'></div></div>","null","pos","CS","CS","1","category1/CS2.png","","","","",""
"","html-keyboard-response","46","182597","0.0-6.0-2.0-0.19","wpybw232ar","many_one","0","direct_first","1","NS06EL16","1","24","1","1","3","1","","0","1","0","null","","","<div class = 'row'><div class = 'column'><img src = 'category2/CS1.png' width = '70%;'></div><div class = 'column'><img src = 'usneg/9000.bmp' width = '100%;'></div></div>","null","neg","CS","CS","2","category2/CS1.png","","","","",""
"","survey-html-form","47","191603","0.0-6.0-3.0","wpybw232ar","many_one","0","direct_first","1","NS06EL16","1","24","1","1","3","1","","0","1","0","8502.45500006713","","{}","","","","","","","","","","","",""
"","html-keyboard-response","48","195616","0.0-6.0-4.0-0.0","wpybw232ar","many_one","0","direct_first","1","NS06EL16","1","24","1","1","3","1","","0","1","0","null","","","<div class = 'row'><div class = 'column'><img src = 'category2/CS6.png' width = '70%;'></div><div class = 'column'><img src = 'usneg/9340.bmp' width = '100%;'></div></div>","null","neg","CS","CS","2","category2/CS6.png","","","","",""
"","html-keyboard-response","49","198125","0.0-6.0-4.0-0.1","wpybw232ar","many_one","0","direct_first","1","NS06EL16","1","24","1","1","3","1","","0","1","0","null","","","<div class = 'row'><div class = 'column'><img src = 'category2/CS8.png' width = '70%;'></div><div class = 'column'><img src = 'usneg/9220.bmp' width = '100%;'></div></div>","null","neg","CS","CS","2","category2/CS8.png","","","","",""
"","html-keyboard-response","50","200639","0.0-6.0-4.0-0.2","wpybw232ar","many_one","0","direct_first","1","NS06EL16","1","24","1","1","3","1","","0","1","0","null","","","<div class = 'row'><div class = 'column'><img src = 'category2/CS4.png' width = '70%;'></div><div class = 'column'><img src = 'usneg/3181.bmp' width = '100%;'></div></div>","null","neg","CS","CS","2","category2/CS4.png","","","","",""
"","html-keyboard-response","51","203151","0.0-6.0-4.0-0.3","wpybw232ar","many_one","0","direct_first","1","NS06EL16","1","24","1","1","3","1","","0","1","0","null","","","<div class = 'row'><div class = 'column'><img src = 'uspos/7580.bmp' width = '100%;'></div><div class = 'column'><img src = 'category1/CS6.png' width = '70%;'></div></div>","null","pos","CS","CS","1","category1/CS6.png","","","","",""
"","html-keyboard-response","52","205664","0.0-6.0-4.0-0.4","wpybw232ar","many_one","0","direct_first","1","NS06EL16","1","24","1","1","3","1","","0","1","0","null","","","<div class = 'row'><div class = 'column'><img src = 'category3/CS7.png' width = '70%;'></div><div class = 'column'><img src = 'usneg/6570.1.bmp' width = '100%;'></div></div>","null","neg","CS","CS","3","category3/CS7.png","","","","",""
"","html-keyboard-response","53","208182","0.0-6.0-4.0-0.5","wpybw232ar","many_one","0","direct_first","1","NS06EL16","1","24","1","1","3","1","","0","1","0","null","","","<div class = 'row'><div class = 'column'><img src = 'category2/CS3.png' width = '70%;'></div><div class = 'column'><img src = 'usneg/9290.bmp' width = '100%;'></div></div>","null","neg","CS","CS","2","category2/CS3.png","","","","",""
"","html-keyboard-response","54","210690","0.0-6.0-4.0-0.6","wpybw232ar","many_one","0","direct_first","1","NS06EL16","1","24","1","1","3","1","","0","1","0","null","","","<div class = 'row'><div class = 'column'><img src = 'category4/CS3.png' width = '70%;'></div><div class = 'column'><img src = 'uspos/2057.bmp' width = '100%;'></div></div>","null","pos","CS","CS","4","category4/CS3.png","","","","",""
"","html-keyboard-response","55","213208","0.0-6.0-4.0-0.7","wpybw232ar","many_one","0","direct_first","1","NS06EL16","1","24","1","1","3","1","","0","1","0","null","","","<div class = 'row'><div class = 'column'><img src = 'category3/CS2.png' width = '70%;'></div><div class = 'column'><img src = 'usneg/9041.bmp' width = '100%;'></div></div>","null","neg","CS","CS","3","category3/CS2.png","","","","",""
"","html-keyboard-response","56","215724","0.0-6.0-4.0-0.8","wpybw232ar","many_one","0","direct_first","1","NS06EL16","1","24","1","1","3","1","","0","1","0","null","","","<div class = 'row'><div class = 'column'><img src = 'category1/CS7.png' width = '70%;'></div><div class = 'column'><img src = 'uspos/2160.bmp' width = '100%;'></div></div>","null","pos","CS","CS","1","category1/CS7.png","","","","",""
"","html-keyboard-response","57","218254","0.0-6.0-4.0-0.9","wpybw232ar","many_one","0","direct_first","1","NS06EL16","1","24","1","1","3","1","","0","1","0","null","","","<div class = 'row'><div class = 'column'><img src = 'category4/CS8.png' width = '70%;'></div><div class = 'column'><img src = 'uspos/2150.bmp' width = '100%;'></div></div>","null","pos","CS","CS","4","category4/CS8.png","","","","",""
"","html-keyboard-response","58","220766","0.0-6.0-4.0-0.10","wpybw232ar","many_one","0","direct_first","1","NS06EL16","1","24","1","1","3","1","","0","1","0","null","","","<div class = 'row'><div class = 'column'><img src = 'usneg/9180.bmp' width = '100%;'></div><div class = 'column'><img src = 'category3/CS3.png' width = '70%;'></div></div>","null","neg","CS","CS","3","category3/CS3.png","","","","",""
"","html-keyboard-response","59","223278","0.0-6.0-4.0-0.11","wpybw232ar","many_one","0","direct_first","1","NS06EL16","1","24","1","1","3","1","","0","1","0","null","","","<div class = 'row'><div class = 'column'><img src = 'usneg/8485.bmp' width = '100%;'></div><div class = 'column'><img src = 'category3/CS10.png' width = '70%;'></div></div>","null","neg","CS","CS","3","category3/CS10.png","","","","",""
"","html-keyboard-response","60","225791","0.0-6.0-4.0-0.12","wpybw232ar","many_one","0","direct_first","1","NS06EL16","1","24","1","1","3","1","","0","1","0","null","","","<div class = 'row'><div class = 'column'><img src = 'uspos/5760.bmp' width = '100%;'></div><div class = 'column'><img src = 'category4/CS5.png' width = '70%;'></div></div>","null","pos","CS","CS","4","category4/CS5.png","","","","",""
"","html-keyboard-response","61","228301","0.0-6.0-4.0-0.13","wpybw232ar","many_one","0","direct_first","1","NS06EL16","1","24","1","1","3","1","","0","1","0","null","","","<div class = 'row'><div class = 'column'><img src = 'category3/CS1.png' width = '70%;'></div><div class = 'column'><img src = 'usneg/9280.bmp' width = '100%;'></div></div>","null","neg","CS","CS","3","category3/CS1.png","","","","",""
"","html-keyboard-response","62","230820","0.0-6.0-4.0-0.14","wpybw232ar","many_one","0","direct_first","1","NS06EL16","1","24","1","1","3","1","","0","1","0","null","","","<div class = 'row'><div class = 'column'><img src = 'uspos/1710.bmp' width = '100%;'></div><div class = 'column'><img src = 'category1/CS1.png' width = '70%;'></div></div>","null","pos","CS","CS","1","category1/CS1.png","","","","",""
"","html-keyboard-response","63","233334","0.0-6.0-4.0-0.15","wpybw232ar","many_one","0","direct_first","1","NS06EL16","1","24","1","1","3","1","","0","1","0","null","","","<div class = 'row'><div class = 'column'><img src = 'uspos/7325.bmp' width = '100%;'></div><div class = 'column'><img src = 'category4/CS1.png' width = '70%;'></div></div>","null","pos","CS","CS","4","category4/CS1.png","","","","",""
"","html-keyboard-response","64","235854","0.0-6.0-4.0-0.16","wpybw232ar","many_one","0","direct_first","1","NS06EL16","1","24","1","1","3","1","","0","1","0","null","","","<div class = 'row'><div class = 'column'><img src = 'uspos/1340.bmp' width = '100%;'></div><div class = 'column'><img src = 'category1/CS5.png' width = '70%;'></div></div>","null","pos","CS","CS","1","category1/CS5.png","","","","",""
"","html-keyboard-response","65","238364","0.0-6.0-4.0-0.17","wpybw232ar","many_one","0","direct_first","1","NS06EL16","1","24","1","1","3","1","","0","1","0","null","","","<div class = 'row'><div class = 'column'><img src = 'category1/CS2.png' width = '70%;'></div><div class = 'column'><img src = 'uspos/5830.bmp' width = '100%;'></div></div>","null","pos","CS","CS","1","category1/CS2.png","","","","",""
"","html-keyboard-response","66","240884","0.0-6.0-4.0-0.18","wpybw232ar","many_one","0","direct_first","1","NS06EL16","1","24","1","1","3","1","","0","1","0","null","","","<div class = 'row'><div class = 'column'><img src = 'usneg/9000.bmp' width = '100%;'></div><div class = 'column'><img src = 'category2/CS1.png' width = '70%;'></div></div>","null","neg","CS","CS","2","category2/CS1.png","","","","",""
"","html-keyboard-response","67","243416","0.0-6.0-4.0-0.19","wpybw232ar","many_one","0","direct_first","1","NS06EL16","1","24","1","1","3","1","","0","1","0","null","","","<div class = 'row'><div class = 'column'><img src = 'uspos/2040.bmp' width = '100%;'></div><div class = 'column'><img src = 'category4/CS10.png' width = '70%;'></div></div>","null","pos","CS","CS","4","category4/CS10.png","","","","",""
"","survey-html-form","68","265151","0.0-6.0-5.0","wpybw232ar","many_one","0","direct_first","1","NS06EL16","1","24","1","1","3","1","","0","1","0","21232.184999855235","","{}","","","","","","","","","","","",""
"","html-keyboard-response","69","269172","0.0-6.0-6.0-0.0","wpybw232ar","many_one","0","direct_first","1","NS06EL16","1","24","1","1","3","1","","0","1","0","null","","","<div class = 'row'><div class = 'column'><img src = 'uspos/1340.bmp' width = '100%;'></div><div class = 'column'><img src = 'category1/CS5.png' width = '70%;'></div></div>","null","pos","CS","CS","1","category1/CS5.png","","","","",""
"","html-keyboard-response","70","271694","0.0-6.0-6.0-0.1","wpybw232ar","many_one","0","direct_first","1","NS06EL16","1","24","1","1","3","1","","0","1","0","null","","","<div class = 'row'><div class = 'column'><img src = 'category2/CS6.png' width = '70%;'></div><div class = 'column'><img src = 'usneg/9340.bmp' width = '100%;'></div></div>","null","neg","CS","CS","2","category2/CS6.png","","","","",""
"","html-keyboard-response","71","274210","0.0-6.0-6.0-0.2","wpybw232ar","many_one","0","direct_first","1","NS06EL16","1","24","1","1","3","1","","0","1","0","null","","","<div class = 'row'><div class = 'column'><img src = 'category3/CS2.png' width = '70%;'></div><div class = 'column'><img src = 'usneg/9041.bmp' width = '100%;'></div></div>","null","neg","CS","CS","3","category3/CS2.png","","","","",""
"","html-keyboard-response","72","276729","0.0-6.0-6.0-0.3","wpybw232ar","many_one","0","direct_first","1","NS06EL16","1","24","1","1","3","1","","0","1","0","null","","","<div class = 'row'><div class = 'column'><img src = 'category3/CS1.png' width = '70%;'></div><div class = 'column'><img src = 'usneg/9280.bmp' width = '100%;'></div></div>","null","neg","CS","CS","3","category3/CS1.png","","","","",""
"","html-keyboard-response","73","279239","0.0-6.0-6.0-0.4","wpybw232ar","many_one","0","direct_first","1","NS06EL16","1","24","1","1","3","1","","0","1","0","null","","","<div class = 'row'><div class = 'column'><img src = 'usneg/9220.bmp' width = '100%;'></div><div class = 'column'><img src = 'category2/CS8.png' width = '70%;'></div></div>","null","neg","CS","CS","2","category2/CS8.png","","","","",""
"","html-keyboard-response","74","281760","0.0-6.0-6.0-0.5","wpybw232ar","many_one","0","direct_first","1","NS06EL16","1","24","1","1","3","1","","0","1","0","null","","","<div class = 'row'><div class = 'column'><img src = 'category3/CS10.png' width = '70%;'></div><div class = 'column'><img src = 'usneg/8485.bmp' width = '100%;'></div></div>","null","neg","CS","CS","3","category3/CS10.png","","","","",""
"","html-keyboard-response","75","284277","0.0-6.0-6.0-0.6","wpybw232ar","many_one","0","direct_first","1","NS06EL16","1","24","1","1","3","1","","0","1","0","null","","","<div class = 'row'><div class = 'column'><img src = 'category1/CS6.png' width = '70%;'></div><div class = 'column'><img src = 'uspos/7580.bmp' width = '100%;'></div></div>","null","pos","CS","CS","1","category1/CS6.png","","","","",""
"","html-keyboard-response","76","286797","0.0-6.0-6.0-0.7","wpybw232ar","many_one","0","direct_first","1","NS06EL16","1","24","1","1","3","1","","0","1","0","null","","","<div class = 'row'><div class = 'column'><img src = 'uspos/1710.bmp' width = '100%;'></div><div class = 'column'><img src = 'category1/CS1.png' width = '70%;'></div></div>","null","pos","CS","CS","1","category1/CS1.png","","","","",""
"","html-keyboard-response","77","289315","0.0-6.0-6.0-0.8","wpybw232ar","many_one","0","direct_first","1","NS06EL16","1","24","1","1","3","1","","0","1","0","null","","","<div class = 'row'><div class = 'column'><img src = 'category1/CS7.png' width = '70%;'></div><div class = 'column'><img src = 'uspos/2160.bmp' width = '100%;'></div></div>","null","pos","CS","CS","1","category1/CS7.png","","","","",""
"","html-keyboard-response","78","291844","0.0-6.0-6.0-0.9","wpybw232ar","many_one","0","direct_first","1","NS06EL16","1","24","1","1","3","1","","0","1","0","null","","","<div class = 'row'><div class = 'column'><img src = 'category2/CS4.png' width = '70%;'></div><div class = 'column'><img src = 'usneg/3181.bmp' width = '100%;'></div></div>","null","neg","CS","CS","2","category2/CS4.png","","","","",""
"","html-keyboard-response","79","294359","0.0-6.0-6.0-0.10","wpybw232ar","many_one","0","direct_first","1","NS06EL16","1","24","1","1","3","1","","0","1","0","null","","","<div class = 'row'><div class = 'column'><img src = 'uspos/7325.bmp' width = '100%;'></div><div class = 'column'><img src = 'category4/CS1.png' width = '70%;'></div></div>","null","pos","CS","CS","4","category4/CS1.png","","","","",""
"","html-keyboard-response","80","296867","0.0-6.0-6.0-0.11","wpybw232ar","many_one","0","direct_first","1","NS06EL16","1","24","1","1","3","1","","0","1","0","null","","","<div class = 'row'><div class = 'column'><img src = 'usneg/6570.1.bmp' width = '100%;'></div><div class = 'column'><img src = 'category3/CS7.png' width = '70%;'></div></div>","null","neg","CS","CS","3","category3/CS7.png","","","","",""
"","html-keyboard-response","81","299383","0.0-6.0-6.0-0.12","wpybw232ar","many_one","0","direct_first","1","NS06EL16","1","24","1","1","3","1","","0","1","0","null","","","<div class = 'row'><div class = 'column'><img src = 'category1/CS2.png' width = '70%;'></div><div class = 'column'><img src = 'uspos/5830.bmp' width = '100%;'></div></div>","null","pos","CS","CS","1","category1/CS2.png","","","","",""
"","html-keyboard-response","82","301903","0.0-6.0-6.0-0.13","wpybw232ar","many_one","0","direct_first","1","NS06EL16","1","24","1","1","3","1","","0","1","0","null","","","<div class = 'row'><div class = 'column'><img src = 'uspos/2040.bmp' width = '100%;'></div><div class = 'column'><img src = 'category4/CS10.png' width = '70%;'></div></div>","null","pos","CS","CS","4","category4/CS10.png","","","","",""
"","html-keyboard-response","83","304415","0.0-6.0-6.0-0.14","wpybw232ar","many_one","0","direct_first","1","NS06EL16","1","24","1","1","3","1","","0","1","0","null","","","<div class = 'row'><div class = 'column'><img src = 'category4/CS5.png' width = '70%;'></div><div class = 'column'><img src = 'uspos/5760.bmp' width = '100%;'></div></div>","null","pos","CS","CS","4","category4/CS5.png","","","","",""
"","html-keyboard-response","84","306921","0.0-6.0-6.0-0.15","wpybw232ar","many_one","0","direct_first","1","NS06EL16","1","24","1","1","3","1","","0","1","0","null","","","<div class = 'row'><div class = 'column'><img src = 'category4/CS8.png' width = '70%;'></div><div class = 'column'><img src = 'uspos/2150.bmp' width = '100%;'></div></div>","null","pos","CS","CS","4","category4/CS8.png","","","","",""
"","html-keyboard-response","85","309438","0.0-6.0-6.0-0.16","wpybw232ar","many_one","0","direct_first","1","NS06EL16","1","24","1","1","3","1","","0","1","0","null","","","<div class = 'row'><div class = 'column'><img src = 'usneg/9000.bmp' width = '100%;'></div><div class = 'column'><img src = 'category2/CS1.png' width = '70%;'></div></div>","null","neg","CS","CS","2","category2/CS1.png","","","","",""
"","html-keyboard-response","86","311960","0.0-6.0-6.0-0.17","wpybw232ar","many_one","0","direct_first","1","NS06EL16","1","24","1","1","3","1","","0","1","0","null","","","<div class = 'row'><div class = 'column'><img src = 'usneg/9180.bmp' width = '100%;'></div><div class = 'column'><img src = 'category3/CS3.png' width = '70%;'></div></div>","null","neg","CS","CS","3","category3/CS3.png","","","","",""
"","html-keyboard-response","87","314474","0.0-6.0-6.0-0.18","wpybw232ar","many_one","0","direct_first","1","NS06EL16","1","24","1","1","3","1","","0","1","0","null","","","<div class = 'row'><div class = 'column'><img src = 'uspos/2057.bmp' width = '100%;'></div><div class = 'column'><img src = 'category4/CS3.png' width = '70%;'></div></div>","null","pos","CS","CS","4","category4/CS3.png","","","","",""
"","html-keyboard-response","88","316977","0.0-6.0-6.0-0.19","wpybw232ar","many_one","0","direct_first","1","NS06EL16","1","24","1","1","3","1","","0","1","0","null","","","<div class = 'row'><div class = 'column'><img src = 'category2/CS3.png' width = '70%;'></div><div class = 'column'><img src = 'usneg/9290.bmp' width = '100%;'></div></div>","null","neg","CS","CS","2","category2/CS3.png","","","","",""
"","survey-html-form","89","331061","0.0-7.0","wpybw232ar","many_one","0","direct_first","1","NS06EL16","1","24","1","1","3","1","","0","1","0","13567.044999916106","","{}","","","","","","","","","","","",""
"","image-slider-response","90","340565","0.0-8.0-0.0","wpybw232ar","many_one","0","direct_first","1","NS06EL16","1","24","1","1","3","1","","0","1","0","7491.955000208691","","","","","pos","GS","GSnew","1","category1/GS1.png","75","targets/30.png","direct","",""
"","image-slider-response","91","344959","0.0-8.0-0.1","wpybw232ar","many_one","0","direct_first","1","NS06EL16","1","24","1","1","3","1","","0","1","0","4391.779999947175","","","","","neg","CS","CS","3","category3/CS3.png","-100","targets/42.png","direct","",""
"","image-slider-response","92","347759","0.0-8.0-0.2","wpybw232ar","many_one","0","direct_first","1","NS06EL16","1","24","1","1","3","1","","0","1","0","2798.054999904707","","","","","neg","GS","GSold","3","category3/CS5.png","-36","targets/45.png","direct","",""
"","image-slider-response","93","352277","0.0-8.0-0.3","wpybw232ar","many_one","0","direct_first","1","NS06EL16","1","24","1","1","3","1","","0","1","0","4515.870000002906","","","","","pos","CS","CS","4","category4/CS5.png","100","targets/24.png","direct","",""
"","image-slider-response","94","355915","0.0-8.0-0.4","wpybw232ar","many_one","0","direct_first","1","NS06EL16","1","24","1","1","3","1","","0","1","0","3636.255000019446","","","","","neg","CS","CS","3","category3/CS1.png","-100","targets/28.png","direct","",""
"","image-slider-response","95","359427","0.0-8.0-0.5","wpybw232ar","many_one","0","direct_first","1","NS06EL16","1","24","1","1","3","1","","0","1","0","3508.894999977201","","","","","neg","CS","CS","2","category2/CS3.png","-45","targets/47.png","direct","",""
"","image-slider-response","96","364179","0.0-8.0-0.6","wpybw232ar","many_one","0","direct_first","1","NS06EL16","1","24","1","1","3","1","","0","1","0","4749.675000086427","","","","","pos","GS","GSold","1","category1/CS10.png","39","targets/15.png","direct","",""
"","image-slider-response","97","369953","0.0-8.0-0.7","wpybw232ar","many_one","0","direct_first","1","NS06EL16","1","24","1","1","3","1","","0","1","0","5771.854999940842","","","","","pos","CS","CS","4","category4/CS3.png","97","targets/40.png","direct","",""
"","image-slider-response","98","373489","0.0-8.0-0.8","wpybw232ar","many_one","0","direct_first","1","NS06EL16","1","24","1","1","3","1","","0","1","0","3534.345000050962","","","","","pos","CS","CS","1","category1/CS1.png","21","targets/27.png","direct","",""
"","image-slider-response","99","376279","0.0-8.0-0.9","wpybw232ar","many_one","0","direct_first","1","NS06EL16","1","24","1","1","3","1","","0","1","0","2787.3700000345707","","","","","pos","GS","GSold","1","category1/CS4.png","12","targets/13.png","direct","",""
"","image-slider-response","100","379355","0.0-8.0-0.10","wpybw232ar","many_one","0","direct_first","1","NS06EL16","1","24","1","1","3","1","","0","1","0","3073.7700001336634","","","","","neg","GS","GSold","3","category3/CS8.png","-70","targets/4.png","direct","",""
"","image-slider-response","101","382381","0.0-8.0-0.11","wpybw232ar","many_one","0","direct_first","1","NS06EL16","1","24","1","1","3","1","","0","1","0","3024.250000016764","","","","","neg","GS","GSnew","3","category3/GS1.png","-75","targets/19.png","direct","",""
"","image-slider-response","102","385417","0.0-8.0-0.12","wpybw232ar","many_one","0","direct_first","1","NS06EL16","1","24","1","1","3","1","","0","1","0","3034.3900001607835","","","","","neg","CS","CS","3","category3/CS2.png","-100","targets/37.png","direct","",""
"","image-slider-response","103","389609","0.0-8.0-0.13","wpybw232ar","many_one","0","direct_first","1","NS06EL16","1","24","1","1","3","1","","0","1","0","4190.175000112504","","","","","neg","GS","GSold","2","category2/CS9.png","-66","targets/23.png","direct","",""
"","image-slider-response","104","394029","0.0-8.0-0.14","wpybw232ar","many_one","0","direct_first","1","NS06EL16","1","24","1","1","3","1","","0","1","0","4416.699999943376","","","","","pos","CS","CS","1","category1/CS5.png","77","targets/18.png","direct","",""
"","image-slider-response","105","397201","0.0-8.0-0.15","wpybw232ar","many_one","0","direct_first","1","NS06EL16","1","24","1","1","3","1","","0","1","0","3170.1299999840558","","","","","neg","GS","GSold","2","category2/CS5.png","-39","targets/8.png","direct","",""
"","image-slider-response","106","401573","0.0-8.0-0.16","wpybw232ar","many_one","0","direct_first","1","NS06EL16","1","24","1","1","3","1","","0","1","0","4370.429999893531","","","","","neg","CS","CS","2","category2/CS4.png","-99","targets/44.png","direct","",""
"","image-slider-response","107","404797","0.0-8.0-0.17","wpybw232ar","many_one","0","direct_first","1","NS06EL16","1","24","1","1","3","1","","0","1","0","3221.679999958724","","","","","neg","GS","GSold","3","category3/CS4.png","-86","targets/25.png","direct","",""
"","image-slider-response","108","413395","0.0-8.0-0.18","wpybw232ar","many_one","0","direct_first","1","NS06EL16","1","24","1","1","3","1","","0","1","0","8596.370000159368","","","","","pos","CS","CS","1","category1/CS7.png","100","targets/1.png","direct","",""
"","image-slider-response","109","416428","0.0-8.0-0.19","wpybw232ar","many_one","0","direct_first","1","NS06EL16","1","24","1","1","3","1","","0","1","0","3030.284999869764","","","","","neg","GS","GSnew","2","category2/GS2.png","16","targets/39.png","direct","",""
"","image-slider-response","110","419240","0.0-8.0-0.20","wpybw232ar","many_one","0","direct_first","1","NS06EL16","1","24","1","1","3","1","","0","1","0","2810.3650000412017","","","","","pos","CS","CS","4","category4/CS1.png","77","targets/21.png","direct","",""
"","image-slider-response","111","422101","0.0-8.0-0.21","wpybw232ar","many_one","0","direct_first","1","NS06EL16","1","24","1","1","3","1","","0","1","0","2859.6000000834465","","","","","neg","GS","GSnew","3","category3/GS3.png","-100","targets/16.png","direct","",""
"","image-slider-response","112","425395","0.0-8.0-0.22","wpybw232ar","many_one","0","direct_first","1","NS06EL16","1","24","1","1","3","1","","0","1","0","3292.945000110194","","","","","pos","GS","GSold","1","category1/CS3.png","35","targets/7.png","direct","",""
"","image-slider-response","113","428485","0.0-8.0-0.23","wpybw232ar","many_one","0","direct_first","1","NS06EL16","1","24","1","1","3","1","","0","1","0","3088.3799998555332","","","","","neg","CS","CS","3","category3/CS7.png","-100","targets/20.png","direct","",""
"","image-slider-response","114","431952","0.0-8.0-0.24","wpybw232ar","many_one","0","direct_first","1","NS06EL16","1","24","1","1","3","1","","0","1","0","3464.3349999096245","","","","","neg","GS","GSold","2","category2/CS10.png","-84","targets/36.png","direct","",""
"","image-slider-response","115","435822","0.0-8.0-0.25","wpybw232ar","many_one","0","direct_first","1","NS06EL16","1","24","1","1","3","1","","0","1","0","3868.030000012368","","","","","neg","GS","GSnew","2","category2/GS1.png","23","targets/10.png","direct","",""
"","image-slider-response","116","438255","0.0-8.0-0.26","wpybw232ar","many_one","0","direct_first","1","NS06EL16","1","24","1","1","3","1","","0","1","0","2431.944999843836","","","","","pos","GS","abstract","4","category4/lin.png","10","targets/26.png","direct","",""
"","image-slider-response","117","441525","0.0-8.0-0.27","wpybw232ar","many_one","0","direct_first","1","NS06EL16","1","24","1","1","3","1","","0","1","0","3268.4449998196214","","","","","pos","GS","GSnew","4","category4/GS3.png","51","targets/5.png","direct","",""
"","image-slider-response","118","444925","0.0-8.0-0.28","wpybw232ar","many_one","0","direct_first","1","NS06EL16","1","24","1","1","3","1","","0","1","0","3398.025000002235","","","","","pos","CS","CS","1","category1/CS2.png","-12","targets/17.png","direct","",""
"","image-slider-response","119","447250","0.0-8.0-0.29","wpybw232ar","many_one","0","direct_first","1","NS06EL16","1","24","1","1","3","1","","0","1","0","2322.7849998511374","","","","","neg","GS","GSnew","2","category2/GS3.png","12","targets/33.png","direct","",""
"","image-slider-response","120","450165","0.0-8.0-0.30","wpybw232ar","many_one","0","direct_first","1","NS06EL16","1","24","1","1","3","1","","0","1","0","2914.474999997765","","","","","pos","GS","abstract","1","category1/ma.png","13","targets/31.png","direct","",""
"","image-slider-response","121","454801","0.0-8.0-0.31","wpybw232ar","many_one","0","direct_first","1","NS06EL16","1","24","1","1","3","1","","0","1","0","4634.215000085533","","","","","pos","GS","GSnew","1","category1/GS3.png","31","targets/6.png","direct","",""
"","image-slider-response","122","458018","0.0-8.0-0.32","wpybw232ar","many_one","0","direct_first","1","NS06EL16","1","24","1","1","3","1","","0","1","0","3214.210000121966","","","","","pos","CS","CS","1","category1/CS6.png","29","targets/22.png","direct","",""
"","image-slider-response","123","462104","0.0-8.0-0.33","wpybw232ar","many_one","0","direct_first","1","NS06EL16","1","24","1","1","3","1","","0","1","0","4084.1749999672174","","","","","neg","GS","abstract","3","category3/wang.png","-76","targets/41.png","direct","",""
"","image-slider-response","124","465759","0.0-8.0-0.34","wpybw232ar","many_one","0","direct_first","1","NS06EL16","1","24","1","1","3","1","","0","1","0","3653.785000089556","","","","","pos","GS","GSnew","4","category4/GS1.png","81","targets/38.png","direct","",""
"","image-slider-response","125","469360","0.0-8.0-0.35","wpybw232ar","many_one","0","direct_first","1","NS06EL16","1","24","1","1","3","1","","0","1","0","3598.4600000083447","","","","","pos","CS","CS","4","category4/CS8.png","100","targets/32.png","direct","",""
"","image-slider-response","126","473201","0.0-8.0-0.36","wpybw232ar","many_one","0","direct_first","1","NS06EL16","1","24","1","1","3","1","","0","1","0","3840.2450000867248","","","","","pos","GS","GSold","4","category4/CS4.png","100","targets/46.png","direct","",""
"","image-slider-response","127","477089","0.0-8.0-0.37","wpybw232ar","many_one","0","direct_first","1","NS06EL16","1","24","1","1","3","1","","0","1","0","3886.47500006482","","","","","pos","CS","CS","4","category4/CS10.png","61","targets/35.png","direct","",""
"","image-slider-response","128","479826","0.0-8.0-0.38","wpybw232ar","many_one","0","direct_first","1","NS06EL16","1","24","1","1","3","1","","0","1","0","2735.585000133142","","","","","pos","GS","GSnew","1","category1/GS2.png","4","targets/12.png","direct","",""
"","image-slider-response","129","482521","0.0-8.0-0.39","wpybw232ar","many_one","0","direct_first","1","NS06EL16","1","24","1","1","3","1","","0","1","0","2692.2649999614805","","","","","neg","CS","CS","2","category2/CS6.png","-100","targets/2.png","direct","",""
"","image-slider-response","130","485813","0.0-8.0-0.40","wpybw232ar","many_one","0","direct_first","1","NS06EL16","1","24","1","1","3","1","","0","1","0","3290.189999854192","","","","","pos","GS","GSnew","4","category4/GS2.png","11","targets/43.png","direct","",""
"","image-slider-response","131","491493","0.0-8.0-0.41","wpybw232ar","many_one","0","direct_first","1","NS06EL16","1","24","1","1","3","1","","0","1","0","5678.279999876395","","","","","pos","GS","GSold","4","category4/CS9.png","65","targets/34.png","direct","",""
"","image-slider-response","132","495275","0.0-8.0-0.42","wpybw232ar","many_one","0","direct_first","1","NS06EL16","1","24","1","1","3","1","","0","1","0","3779.7900000587106","","","","","neg","CS","CS","2","category2/CS8.png","-82","targets/11.png","direct","",""
"","image-slider-response","133","498443","0.0-8.0-0.43","wpybw232ar","many_one","0","direct_first","1","NS06EL16","1","24","1","1","3","1","","0","1","0","3166.5349998511374","","","","","neg","CS","CS","2","category2/CS1.png","-71","targets/14.png","direct","",""
"","image-slider-response","134","501407","0.0-8.0-0.44","wpybw232ar","many_one","0","direct_first","1","NS06EL16","1","24","1","1","3","1","","0","1","0","2962.1850000694394","","","","","neg","CS","CS","3","category3/CS10.png","-100","targets/29.png","direct","",""
"","image-slider-response","135","504697","0.0-8.0-0.45","wpybw232ar","many_one","0","direct_first","1","NS06EL16","1","24","1","1","3","1","","0","1","0","3288.274999940768","","","","","neg","GS","GSnew","3","category3/GS2.png","-100","targets/48.png","direct","",""
"","image-slider-response","136","509203","0.0-8.0-0.46","wpybw232ar","many_one","0","direct_first","1","NS06EL16","1","24","1","1","3","1","","0","1","0","4503.660000162199","","","","","neg","GS","abstract","2","category2/men.png","1","targets/3.png","direct","",""
"","image-slider-response","137","512493","0.0-8.0-0.47","wpybw232ar","many_one","0","direct_first","1","NS06EL16","1","24","1","1","3","1","","0","1","0","3288.044999819249","","","","","pos","GS","GSold","4","category4/CS7.png","50","targets/9.png","direct","",""
"","html-keyboard-response","138","545326","0.0-9.0","wpybw232ar","many_one","0","direct_first","1","NS06EL16","1","24","1","1","3","1","","0","1","0","32830.975000048056","","","<p>Sie sehen nun die chinesischen Zeichen nur ganz kurz. Danach sehen Sie die jeweilige Aussprache der Zeichen als Silbe auf dem Bildschrim. Ihre Aufgabe ist es, für jede Silbe anzugeben, ob diese etwas angenehmes, oder unangenehmes bedeuten könnte. Verlassen Sie sich hier vor allem auf Ihre Intuition.<br><br>Die Zeichen werden nur zur Orientierung dargestellt, beachten Sie sie deshalb nicht. Konzentrieren Sie sich vor allem auf die Silben. <br>Reagieren Sie mit folgenden zwei Tasten: <br><br><b>'D' </b> wenn die Silbe etwas <b>unangenehmes</b> bedeuten könnte. <br><b>'K'</b> wenn die Silbe etwas <b>angenehmes</b> bedeuten könnte. <br><br>Bitte legen Sie nun den Zeigefinger der linken Hand auf die Taste 'D' und den Zeigefinger der rechten Hand auf die Taste 'K'. <br>Reagieren Sie auf jede Silbe so schnell wie möglich. Uns interessiert Ihre spontane Reaktion. <br> <br> <br>Drücken Sie 'D' oder 'K', um die nächste Aufgabe zu starten. </p>","68","","","","","","","","","",""
"","html-keyboard-response","139","548336","0.0-10.0-0.0","wpybw232ar","many_one","0","direct_first","1","NS06EL16","1","24","1","1","3","1","","0","1","0","null","","","<div style=""font-size:60px;"">+</div>","null","","","","","","","","","",""
"","html-keyboard-response","140","548428","0.0-10.0-1.0","wpybw232ar","many_one","0","direct_first","1","NS06EL16","1","24","1","1","3","1","","0","1","0","null","","","<img src = 'category3/CS1.png' width = '100%;'>","null","","","","","","","","","",""
"","html-keyboard-response","141","548706","0.0-10.0-2.0","wpybw232ar","many_one","0","direct_first","1","NS06EL16","1","24","1","1","3","1","","0","1","0","null","","","<img src = 'targets/28.png' width = '100%;'>","null","","","","","","","","","",""
"","html-keyboard-response","142","551296","0.0-10.0-3.0","wpybw232ar","many_one","0","direct_first","1","NS06EL16","1","24","1","1","3","1","","0","1","0","2587.86499989219","","","<img src = 'targets/mask.png' width = '100%;'>","75","neg","CS","CS","3","category3/CS1.png","","targets/28.png","indirect","1","0"
"","html-keyboard-response","143","552819","0.0-10.0-0.1","wpybw232ar","many_one","0","direct_first","1","NS06EL16","1","24","1","1","3","1","","0","1","0","null","","","<div style=""font-size:60px;"">+</div>","null","","","","","","","","","",""
"","html-keyboard-response","144","552914","0.0-10.0-1.1","wpybw232ar","many_one","0","direct_first","1","NS06EL16","1","24","1","1","3","1","","0","1","0","null","","","<img src = 'category2/CS3.png' width = '100%;'>","null","","","","","","","","","",""
"","html-keyboard-response","145","553184","0.0-10.0-2.1","wpybw232ar","many_one","0","direct_first","1","NS06EL16","1","24","1","1","3","1","","0","1","0","null","","","<img src = 'targets/47.png' width = '100%;'>","null","","","","","","","","","",""
"","html-keyboard-response","146","556032","0.0-10.0-3.1","wpybw232ar","many_one","0","direct_first","1","NS06EL16","1","24","1","1","3","1","","0","1","0","2845.564999850467","","","<img src = 'targets/mask.png' width = '100%;'>","75","neg","CS","CS","2","category2/CS3.png","","targets/47.png","indirect","1","1"
"","html-keyboard-response","147","557545","0.0-10.0-0.2","wpybw232ar","many_one","0","direct_first","1","NS06EL16","1","24","1","1","3","1","","0","1","0","null","","","<div style=""font-size:60px;"">+</div>","null","","","","","","","","","",""
"","html-keyboard-response","148","557639","0.0-10.0-1.2","wpybw232ar","many_one","0","direct_first","1","NS06EL16","1","24","1","1","3","1","","0","1","0","null","","","<img src = 'category1/CS5.png' width = '100%;'>","null","","","","","","","","","",""
"","html-keyboard-response","149","557893","0.0-10.0-2.2","wpybw232ar","many_one","0","direct_first","1","NS06EL16","1","24","1","1","3","1","","0","1","0","null","","","<img src = 'targets/18.png' width = '100%;'>","null","","","","","","","","","",""
"","html-keyboard-response","150","559454","0.0-10.0-3.2","wpybw232ar","many_one","0","direct_first","1","NS06EL16","1","24","1","1","3","1","","0","1","0","1559.4699999783188","","","<img src = 'targets/mask.png' width = '100%;'>","68","pos","CS","CS","1","category1/CS5.png","","targets/18.png","indirect","0","2"
"","html-keyboard-response","151","560974","0.0-10.0-0.3","wpybw232ar","many_one","0","direct_first","1","NS06EL16","1","24","1","1","3","1","","0","1","0","null","","","<div style=""font-size:60px;"">+</div>","null","","","","","","","","","",""
"","html-keyboard-response","152","561065","0.0-10.0-1.3","wpybw232ar","many_one","0","direct_first","1","NS06EL16","1","24","1","1","3","1","","0","1","0","null","","","<img src = 'category3/CS3.png' width = '100%;'>","null","","","","","","","","","",""
"","html-keyboard-response","153","561332","0.0-10.0-2.3","wpybw232ar","many_one","0","direct_first","1","NS06EL16","1","24","1","1","3","1","","0","1","0","null","","","<img src = 'targets/42.png' width = '100%;'>","null","","","","","","","","","",""
"","html-keyboard-response","154","562016","0.0-10.0-3.3","wpybw232ar","many_one","0","direct_first","1","NS06EL16","1","24","1","1","3","1","","0","1","0","681.8500000517815","","","<img src = 'targets/mask.png' width = '100%;'>","75","neg","CS","CS","3","category3/CS3.png","","targets/42.png","indirect","1","3"
"","html-keyboard-response","155","563542","0.0-10.0-0.4","wpybw232ar","many_one","0","direct_first","1","NS06EL16","1","24","1","1","3","1","","0","1","0","null","","","<div style=""font-size:60px;"">+</div>","null","","","","","","","","","",""
"","html-keyboard-response","156","563635","0.0-10.0-1.4","wpybw232ar","many_one","0","direct_first","1","NS06EL16","1","24","1","1","3","1","","0","1","0","null","","","<img src = 'category1/CS2.png' width = '100%;'>","null","","","","","","","","","",""
"","html-keyboard-response","157","563918","0.0-10.0-2.4","wpybw232ar","many_one","0","direct_first","1","NS06EL16","1","24","1","1","3","1","","0","1","0","null","","","<img src = 'targets/17.png' width = '100%;'>","null","","","","","","","","","",""
"","html-keyboard-response","158","564793","0.0-10.0-3.4","wpybw232ar","many_one","0","direct_first","1","NS06EL16","1","24","1","1","3","1","","0","1","0","873.274999903515","","","<img src = 'targets/mask.png' width = '100%;'>","75","pos","CS","CS","1","category1/CS2.png","","targets/17.png","indirect","1","4"
"","html-keyboard-response","159","566319","0.0-10.0-0.5","wpybw232ar","many_one","0","direct_first","1","NS06EL16","1","24","1","1","3","1","","0","1","0","null","","","<div style=""font-size:60px;"">+</div>","null","","","","","","","","","",""
"","html-keyboard-response","160","566411","0.0-10.0-1.5","wpybw232ar","many_one","0","direct_first","1","NS06EL16","1","24","1","1","3","1","","0","1","0","null","","","<img src = 'category4/CS10.png' width = '100%;'>","null","","","","","","","","","",""
"","html-keyboard-response","161","566678","0.0-10.0-2.5","wpybw232ar","many_one","0","direct_first","1","NS06EL16","1","24","1","1","3","1","","0","1","0","null","","","<img src = 'targets/35.png' width = '100%;'>","null","","","","","","","","","",""
"","html-keyboard-response","162","567254","0.0-10.0-3.5","wpybw232ar","many_one","0","direct_first","1","NS06EL16","1","24","1","1","3","1","","0","1","0","574.8000000603497","","","<img src = 'targets/mask.png' width = '100%;'>","75","pos","CS","CS","4","category4/CS10.png","","targets/35.png","indirect","1","5"
"","html-keyboard-response","163","568774","0.0-10.0-0.6","wpybw232ar","many_one","0","direct_first","1","NS06EL16","1","24","1","1","3","1","","0","1","0","null","","","<div style=""font-size:60px;"">+</div>","null","","","","","","","","","",""
"","html-keyboard-response","164","568867","0.0-10.0-1.6","wpybw232ar","many_one","0","direct_first","1","NS06EL16","1","24","1","1","3","1","","0","1","0","null","","","<img src = 'category3/CS4.png' width = '100%;'>","null","","","","","","","","","",""
"","html-keyboard-response","165","569132","0.0-10.0-2.6","wpybw232ar","many_one","0","direct_first","1","NS06EL16","1","24","1","1","3","1","","0","1","0","null","","","<img src = 'targets/25.png' width = '100%;'>","null","","","","","","","","","",""
"","html-keyboard-response","166","569704","0.0-10.0-3.6","wpybw232ar","many_one","0","direct_first","1","NS06EL16","1","24","1","1","3","1","","0","1","0","570.8599998615682","","","<img src = 'targets/mask.png' width = '100%;'>","75","neg","GS","GSold","3","category3/CS4.png","","targets/25.png","indirect","1","6"
"","html-keyboard-response","167","571224","0.0-10.0-0.7","wpybw232ar","many_one","0","direct_first","1","NS06EL16","1","24","1","1","3","1","","0","1","0","null","","","<div style=""font-size:60px;"">+</div>","null","","","","","","","","","",""
"","html-keyboard-response","168","571317","0.0-10.0-1.7","wpybw232ar","many_one","0","direct_first","1","NS06EL16","1","24","1","1","3","1","","0","1","0","null","","","<img src = 'category2/CS4.png' width = '100%;'>","null","","","","","","","","","",""
"","html-keyboard-response","169","571581","0.0-10.0-2.7","wpybw232ar","many_one","0","direct_first","1","NS06EL16","1","24","1","1","3","1","","0","1","0","null","","","<img src = 'targets/44.png' width = '100%;'>","null","","","","","","","","","",""
"","html-keyboard-response","170","572580","0.0-10.0-3.7","wpybw232ar","many_one","0","direct_first","1","NS06EL16","1","24","1","1","3","1","","0","1","0","997.135000070557","","","<img src = 'targets/mask.png' width = '100%;'>","68","neg","CS","CS","2","category2/CS4.png","","targets/44.png","indirect","0","7"
"","html-keyboard-response","171","574096","0.0-10.0-0.8","wpybw232ar","many_one","0","direct_first","1","NS06EL16","1","24","1","1","3","1","","0","1","0","null","","","<div style=""font-size:60px;"">+</div>","null","","","","","","","","","",""
"","html-keyboard-response","172","574188","0.0-10.0-1.8","wpybw232ar","many_one","0","direct_first","1","NS06EL16","1","24","1","1","3","1","","0","1","0","null","","","<img src = 'category1/CS1.png' width = '100%;'>","null","","","","","","","","","",""
"","html-keyboard-response","173","574443","0.0-10.0-2.8","wpybw232ar","many_one","0","direct_first","1","NS06EL16","1","24","1","1","3","1","","0","1","0","null","","","<img src = 'targets/27.png' width = '100%;'>","null","","","","","","","","","",""
"","html-keyboard-response","174","574998","0.0-10.0-3.8","wpybw232ar","many_one","0","direct_first","1","NS06EL16","1","24","1","1","3","1","","0","1","0","553.2449998427182","","","<img src = 'targets/mask.png' width = '100%;'>","75","pos","CS","CS","1","category1/CS1.png","","targets/27.png","indirect","1","8"
"","html-keyboard-response","175","576512","0.0-10.0-0.9","wpybw232ar","many_one","0","direct_first","1","NS06EL16","1","24","1","1","3","1","","0","1","0","null","","","<div style=""font-size:60px;"">+</div>","null","","","","","","","","","",""
"","html-keyboard-response","176","576606","0.0-10.0-1.9","wpybw232ar","many_one","0","direct_first","1","NS06EL16","1","24","1","1","3","1","","0","1","0","null","","","<img src = 'category3/CS2.png' width = '100%;'>","null","","","","","","","","","",""
"","html-keyboard-response","177","576858","0.0-10.0-2.9","wpybw232ar","many_one","0","direct_first","1","NS06EL16","1","24","1","1","3","1","","0","1","0","null","","","<img src = 'targets/37.png' width = '100%;'>","null","","","","","","","","","",""
"","html-keyboard-response","178","577376","0.0-10.0-3.9","wpybw232ar","many_one","0","direct_first","1","NS06EL16","1","24","1","1","3","1","","0","1","0","516.4799999911338","","","<img src = 'targets/mask.png' width = '100%;'>","75","neg","CS","CS","3","category3/CS2.png","","targets/37.png","indirect","1","9"
"","html-keyboard-response","179","578891","0.0-10.0-0.10","wpybw232ar","many_one","0","direct_first","1","NS06EL16","1","24","1","1","3","1","","0","1","0","null","","","<div style=""font-size:60px;"">+</div>","null","","","","","","","","","",""
"","html-keyboard-response","180","578983","0.0-10.0-1.10","wpybw232ar","many_one","0","direct_first","1","NS06EL16","1","24","1","1","3","1","","0","1","0","null","","","<img src = 'category3/CS7.png' width = '100%;'>","null","","","","","","","","","",""
"","html-keyboard-response","181","579247","0.0-10.0-2.10","wpybw232ar","many_one","0","direct_first","1","NS06EL16","1","24","1","1","3","1","","0","1","0","null","","","<img src = 'targets/20.png' width = '100%;'>","null","","","","","","","","","",""
"","html-keyboard-response","182","579905","0.0-10.0-3.10","wpybw232ar","many_one","0","direct_first","1","NS06EL16","1","24","1","1","3","1","","0","1","0","656.6650001332164","","","<img src = 'targets/mask.png' width = '100%;'>","75","neg","CS","CS","3","category3/CS7.png","","targets/20.png","indirect","1","10"
"","html-keyboard-response","183","581425","0.0-10.0-0.11","wpybw232ar","many_one","0","direct_first","1","NS06EL16","1","24","1","1","3","1","","0","1","0","null","","","<div style=""font-size:60px;"">+</div>","null","","","","","","","","","",""
"","html-keyboard-response","184","581521","0.0-10.0-1.11","wpybw232ar","many_one","0","direct_first","1","NS06EL16","1","24","1","1","3","1","","0","1","0","null","","","<img src = 'category3/CS8.png' width = '100%;'>","null","","","","","","","","","",""
"","html-keyboard-response","185","581785","0.0-10.0-2.11","wpybw232ar","many_one","0","direct_first","1","NS06EL16","1","24","1","1","3","1","","0","1","0","null","","","<img src = 'targets/4.png' width = '100%;'>","null","","","","","","","","","",""
"","html-keyboard-response","186","582369","0.0-10.0-3.11","wpybw232ar","many_one","0","direct_first","1","NS06EL16","1","24","1","1","3","1","","0","1","0","581.5299998503178","","","<img src = 'targets/mask.png' width = '100%;'>","75","neg","GS","GSold","3","category3/CS8.png","","targets/4.png","indirect","1","11"
"","html-keyboard-response","187","583892","0.0-10.0-0.12","wpybw232ar","many_one","0","direct_first","1","NS06EL16","1","24","1","1","3","1","","0","1","0","null","","","<div style=""font-size:60px;"">+</div>","null","","","","","","","","","",""
"","html-keyboard-response","188","583984","0.0-10.0-1.12","wpybw232ar","many_one","0","direct_first","1","NS06EL16","1","24","1","1","3","1","","0","1","0","null","","","<img src = 'category4/CS1.png' width = '100%;'>","null","","","","","","","","","",""
"","html-keyboard-response","189","584263","0.0-10.0-2.12","wpybw232ar","many_one","0","direct_first","1","NS06EL16","1","24","1","1","3","1","","0","1","0","null","","","<img src = 'targets/21.png' width = '100%;'>","null","","","","","","","","","",""
"","html-keyboard-response","190","585385","0.0-10.0-3.12","wpybw232ar","many_one","0","direct_first","1","NS06EL16","1","24","1","1","3","1","","0","1","0","1120.8599999081343","","","<img src = 'targets/mask.png' width = '100%;'>","75","pos","CS","CS","4","category4/CS1.png","","targets/21.png","indirect","1","12"
"","html-keyboard-response","191","586907","0.0-10.0-0.13","wpybw232ar","many_one","0","direct_first","1","NS06EL16","1","24","1","1","3","1","","0","1","0","null","","","<div style=""font-size:60px;"">+</div>","null","","","","","","","","","",""
"","html-keyboard-response","192","587000","0.0-10.0-1.13","wpybw232ar","many_one","0","direct_first","1","NS06EL16","1","24","1","1","3","1","","0","1","0","null","","","<img src = 'category3/CS10.png' width = '100%;'>","null","","","","","","","","","",""
"","html-keyboard-response","193","587253","0.0-10.0-2.13","wpybw232ar","many_one","0","direct_first","1","NS06EL16","1","24","1","1","3","1","","0","1","0","null","","","<img src = 'targets/29.png' width = '100%;'>","null","","","","","","","","","",""
"","html-keyboard-response","194","587990","0.0-10.0-3.13","wpybw232ar","many_one","0","direct_first","1","NS06EL16","1","24","1","1","3","1","","0","1","0","736.1600000876933","","","<img src = 'targets/mask.png' width = '100%;'>","75","neg","CS","CS","3","category3/CS10.png","","targets/29.png","indirect","1","13"
"","html-keyboard-response","195","589515","0.0-10.0-0.14","wpybw232ar","many_one","0","direct_first","1","NS06EL16","1","24","1","1","3","1","","0","1","0","null","","","<div style=""font-size:60px;"">+</div>","null","","","","","","","","","",""
"","html-keyboard-response","196","589610","0.0-10.0-1.14","wpybw232ar","many_one","0","direct_first","1","NS06EL16","1","24","1","1","3","1","","0","1","0","null","","","<img src = 'category3/CS5.png' width = '100%;'>","null","","","","","","","","","",""
"","html-keyboard-response","197","589872","0.0-10.0-2.14","wpybw232ar","many_one","0","direct_first","1","NS06EL16","1","24","1","1","3","1","","0","1","0","null","","","<img src = 'targets/45.png' width = '100%;'>","null","","","","","","","","","",""
"","html-keyboard-response","198","590428","0.0-10.0-3.14","wpybw232ar","many_one","0","direct_first","1","NS06EL16","1","24","1","1","3","1","","0","1","0","554.3749998323619","","","<img src = 'targets/mask.png' width = '100%;'>","75","neg","GS","GSold","3","category3/CS5.png","","targets/45.png","indirect","1","14"
"","html-keyboard-response","199","591943","0.0-10.0-0.15","wpybw232ar","many_one","0","direct_first","1","NS06EL16","1","24","1","1","3","1","","0","1","0","null","","","<div style=""font-size:60px;"">+</div>","null","","","","","","","","","",""
"","html-keyboard-response","200","592036","0.0-10.0-1.15","wpybw232ar","many_one","0","direct_first","1","NS06EL16","1","24","1","1","3","1","","0","1","0","null","","","<img src = 'category4/CS5.png' width = '100%;'>","null","","","","","","","","","",""
"","html-keyboard-response","201","592315","0.0-10.0-2.15","wpybw232ar","many_one","0","direct_first","1","NS06EL16","1","24","1","1","3","1","","0","1","0","null","","","<img src = 'targets/24.png' width = '100%;'>","null","","","","","","","","","",""
"","html-keyboard-response","202","592751","0.0-10.0-3.15","wpybw232ar","many_one","0","direct_first","1","NS06EL16","1","24","1","1","3","1","","0","1","0","434.17499982751906","","","<img src = 'targets/mask.png' width = '100%;'>","68","pos","CS","CS","4","category4/CS5.png","","targets/24.png","indirect","0","15"
"","html-keyboard-response","203","594271","0.0-10.0-0.16","wpybw232ar","many_one","0","direct_first","1","NS06EL16","1","24","1","1","3","1","","0","1","0","null","","","<div style=""font-size:60px;"">+</div>","null","","","","","","","","","",""
"","html-keyboard-response","204","594363","0.0-10.0-1.16","wpybw232ar","many_one","0","direct_first","1","NS06EL16","1","24","1","1","3","1","","0","1","0","null","","","<img src = 'category1/CS10.png' width = '100%;'>","null","","","","","","","","","",""
"","html-keyboard-response","205","594644","0.0-10.0-2.16","wpybw232ar","many_one","0","direct_first","1","NS06EL16","1","24","1","1","3","1","","0","1","0","null","","","<img src = 'targets/15.png' width = '100%;'>","null","","","","","","","","","",""
"","html-keyboard-response","206","595153","0.0-10.0-3.16","wpybw232ar","many_one","0","direct_first","1","NS06EL16","1","24","1","1","3","1","","0","1","0","508.03499994799495","","","<img src = 'targets/mask.png' width = '100%;'>","68","pos","GS","GSold","1","category1/CS10.png","","targets/15.png","indirect","0","16"
"","html-keyboard-response","207","596669","0.0-10.0-0.17","wpybw232ar","many_one","0","direct_first","1","NS06EL16","1","24","1","1","3","1","","0","1","0","null","","","<div style=""font-size:60px;"">+</div>","null","","","","","","","","","",""
"","html-keyboard-response","208","596759","0.0-10.0-1.17","wpybw232ar","many_one","0","direct_first","1","NS06EL16","1","24","1","1","3","1","","0","1","0","null","","","<img src = 'category1/CS6.png' width = '100%;'>","null","","","","","","","","","",""
"","html-keyboard-response","209","597027","0.0-10.0-2.17","wpybw232ar","many_one","0","direct_first","1","NS06EL16","1","24","1","1","3","1","","0","1","0","null","","","<img src = 'targets/22.png' width = '100%;'>","null","","","","","","","","","",""
"","html-keyboard-response","210","597633","0.0-10.0-3.17","wpybw232ar","many_one","0","direct_first","1","NS06EL16","1","24","1","1","3","1","","0","1","0","605.4599999915808","","","<img src = 'targets/mask.png' width = '100%;'>","75","pos","CS","CS","1","category1/CS6.png","","targets/22.png","indirect","1","17"
"","html-keyboard-response","211","599157","0.0-10.0-0.18","wpybw232ar","many_one","0","direct_first","1","NS06EL16","1","24","1","1","3","1","","0","1","0","null","","","<div style=""font-size:60px;"">+</div>","null","","","","","","","","","",""
"","html-keyboard-response","212","599250","0.0-10.0-1.18","wpybw232ar","many_one","0","direct_first","1","NS06EL16","1","24","1","1","3","1","","0","1","0","null","","","<img src = 'category1/CS7.png' width = '100%;'>","null","","","","","","","","","",""
"","html-keyboard-response","213","599530","0.0-10.0-2.18","wpybw232ar","many_one","0","direct_first","1","NS06EL16","1","24","1","1","3","1","","0","1","0","null","","","<img src = 'targets/1.png' width = '100%;'>","null","","","","","","","","","",""
"","html-keyboard-response","214","600071","0.0-10.0-3.18","wpybw232ar","many_one","0","direct_first","1","NS06EL16","1","24","1","1","3","1","","0","1","0","537.8700001165271","","","<img src = 'targets/mask.png' width = '100%;'>","75","pos","CS","CS","1","category1/CS7.png","","targets/1.png","indirect","1","18"
"","html-keyboard-response","215","601587","0.0-10.0-0.19","wpybw232ar","many_one","0","direct_first","1","NS06EL16","1","24","1","1","3","1","","0","1","0","null","","","<div style=""font-size:60px;"">+</div>","null","","","","","","","","","",""
"","html-keyboard-response","216","601692","0.0-10.0-1.19","wpybw232ar","many_one","0","direct_first","1","NS06EL16","1","24","1","1","3","1","","0","1","0","null","","","<img src = 'category2/CS1.png' width = '100%;'>","null","","","","","","","","","",""
"","html-keyboard-response","217","601957","0.0-10.0-2.19","wpybw232ar","many_one","0","direct_first","1","NS06EL16","1","24","1","1","3","1","","0","1","0","null","","","<img src = 'targets/14.png' width = '100%;'>","null","","","","","","","","","",""
"","html-keyboard-response","218","602579","0.0-10.0-3.19","wpybw232ar","many_one","0","direct_first","1","NS06EL16","1","24","1","1","3","1","","0","1","0","620.6750001292676","","","<img src = 'targets/mask.png' width = '100%;'>","75","neg","CS","CS","2","category2/CS1.png","","targets/14.png","indirect","1","19"
"","html-keyboard-response","219","604104","0.0-10.0-0.20","wpybw232ar","many_one","0","direct_first","1","NS06EL16","1","24","1","1","3","1","","0","1","0","null","","","<div style=""font-size:60px;"">+</div>","null","","","","","","","","","",""
"","html-keyboard-response","220","604197","0.0-10.0-1.20","wpybw232ar","many_one","0","direct_first","1","NS06EL16","1","24","1","1","3","1","","0","1","0","null","","","<img src = 'category4/CS3.png' width = '100%;'>","null","","","","","","","","","",""
"","html-keyboard-response","221","604449","0.0-10.0-2.20","wpybw232ar","many_one","0","direct_first","1","NS06EL16","1","24","1","1","3","1","","0","1","0","null","","","<img src = 'targets/40.png' width = '100%;'>","null","","","","","","","","","",""
"","html-keyboard-response","222","604928","0.0-10.0-3.20","wpybw232ar","many_one","0","direct_first","1","NS06EL16","1","24","1","1","3","1","","0","1","0","477.4350000079721","","","<img src = 'targets/mask.png' width = '100%;'>","75","pos","CS","CS","4","category4/CS3.png","","targets/40.png","indirect","1","20"
"","html-keyboard-response","223","606446","0.0-10.0-0.21","wpybw232ar","many_one","0","direct_first","1","NS06EL16","1","24","1","1","3","1","","0","1","0","null","","","<div style=""font-size:60px;"">+</div>","null","","","","","","","","","",""
"","html-keyboard-response","224","606542","0.0-10.0-1.21","wpybw232ar","many_one","0","direct_first","1","NS06EL16","1","24","1","1","3","1","","0","1","0","null","","","<img src = 'category4/CS8.png' width = '100%;'>","null","","","","","","","","","",""
"","html-keyboard-response","225","606807","0.0-10.0-2.21","wpybw232ar","many_one","0","direct_first","1","NS06EL16","1","24","1","1","3","1","","0","1","0","null","","","<img src = 'targets/32.png' width = '100%;'>","null","","","","","","","","","",""
"","html-keyboard-response","226","607875","0.0-10.0-3.21","wpybw232ar","many_one","0","direct_first","1","NS06EL16","1","24","1","1","3","1","","0","1","0","1066.3999998942018","","","<img src = 'targets/mask.png' width = '100%;'>","68","pos","CS","CS","4","category4/CS8.png","","targets/32.png","indirect","0","21"
"","html-keyboard-response","227","609389","0.0-10.0-0.22","wpybw232ar","many_one","0","direct_first","1","NS06EL16","1","24","1","1","3","1","","0","1","0","null","","","<div style=""font-size:60px;"">+</div>","null","","","","","","","","","",""
"","html-keyboard-response","228","609481","0.0-10.0-1.22","wpybw232ar","many_one","0","direct_first","1","NS06EL16","1","24","1","1","3","1","","0","1","0","null","","","<img src = 'category2/CS8.png' width = '100%;'>","null","","","","","","","","","",""
"","html-keyboard-response","229","609734","0.0-10.0-2.22","wpybw232ar","many_one","0","direct_first","1","NS06EL16","1","24","1","1","3","1","","0","1","0","null","","","<img src = 'targets/11.png' width = '100%;'>","null","","","","","","","","","",""
"","html-keyboard-response","230","610349","0.0-10.0-3.22","wpybw232ar","many_one","0","direct_first","1","NS06EL16","1","24","1","1","3","1","","0","1","0","612.5499999616295","","","<img src = 'targets/mask.png' width = '100%;'>","75","neg","CS","CS","2","category2/CS8.png","","targets/11.png","indirect","1","22"
"","html-keyboard-response","231","611858","0.0-10.0-0.23","wpybw232ar","many_one","0","direct_first","1","NS06EL16","1","24","1","1","3","1","","0","1","0","null","","","<div style=""font-size:60px;"">+</div>","null","","","","","","","","","",""
"","html-keyboard-response","232","611951","0.0-10.0-1.23","wpybw232ar","many_one","0","direct_first","1","NS06EL16","1","24","1","1","3","1","","0","1","0","null","","","<img src = 'category2/CS6.png' width = '100%;'>","null","","","","","","","","","",""
"","html-keyboard-response","233","612218","0.0-10.0-2.23","wpybw232ar","many_one","0","direct_first","1","NS06EL16","1","24","1","1","3","1","","0","1","0","null","","","<img src = 'targets/2.png' width = '100%;'>","null","","","","","","","","","",""
"","html-keyboard-response","234","612788","0.0-10.0-3.23","wpybw232ar","many_one","0","direct_first","1","NS06EL16","1","24","1","1","3","1","","0","1","0","569.080000044778","","","<img src = 'targets/mask.png' width = '100%;'>","75","neg","CS","CS","2","category2/CS6.png","","targets/2.png","indirect","1","23"
"","survey-html-form","235","672198","0.0-11.0","wpybw232ar","many_one","0","direct_first","1","NS06EL16","1","24","1","1","3","1","","0","1","0","58905.93499992974","","{}","","","","","","","","","","","",""
"","html-keyboard-response","236","675212","0.0-12.0-0.0","wpybw232ar","many_one","0","direct_first","1","NS06EL16","1","24","1","1","3","1","","0","1","0","null","","","<div style=""font-size:60px;"">+</div>","null","","","","","","","","","",""
"","html-keyboard-response","237","675306","0.0-12.0-1.0","wpybw232ar","many_one","0","direct_first","1","NS06EL16","1","24","1","1","3","1","","0","1","0","null","","","<img src = 'category4/lin.png' width = '100%;'>","null","","","","","","","","","",""
"","html-keyboard-response","238","675573","0.0-12.0-2.0","wpybw232ar","many_one","0","direct_first","1","NS06EL16","1","24","1","1","3","1","","0","1","0","null","","","<img src = 'targets/26.png' width = '100%;'>","null","","","","","","","","","",""
"","html-keyboard-response","239","676992","0.0-12.0-3.0","wpybw232ar","many_one","0","direct_first","1","NS06EL16","1","24","1","1","3","1","","0","1","0","1417.4249998759478","","","<img src = 'targets/mask.png' width = '100%;'>","68","pos","GS","abstract","4","category4/lin.png","","targets/26.png","indirect","0","24"
"","html-keyboard-response","240","678501","0.0-12.0-0.1","wpybw232ar","many_one","0","direct_first","1","NS06EL16","1","24","1","1","3","1","","0","1","0","null","","","<div style=""font-size:60px;"">+</div>","null","","","","","","","","","",""
"","html-keyboard-response","241","678596","0.0-12.0-1.1","wpybw232ar","many_one","0","direct_first","1","NS06EL16","1","24","1","1","3","1","","0","1","0","null","","","<img src = 'category3/GS3.png' width = '100%;'>","null","","","","","","","","","",""
"","html-keyboard-response","242","678862","0.0-12.0-2.1","wpybw232ar","many_one","0","direct_first","1","NS06EL16","1","24","1","1","3","1","","0","1","0","null","","","<img src = 'targets/16.png' width = '100%;'>","null","","","","","","","","","",""
"","html-keyboard-response","243","679502","0.0-12.0-3.1","wpybw232ar","many_one","0","direct_first","1","NS06EL16","1","24","1","1","3","1","","0","1","0","638.4799999650568","","","<img src = 'targets/mask.png' width = '100%;'>","68","neg","GS","GSnew","3","category3/GS3.png","","targets/16.png","indirect","0","25"
"","html-keyboard-response","244","681017","0.0-12.0-0.2","wpybw232ar","many_one","0","direct_first","1","NS06EL16","1","24","1","1","3","1","","0","1","0","null","","","<div style=""font-size:60px;"">+</div>","null","","","","","","","","","",""
"","html-keyboard-response","245","681112","0.0-12.0-1.2","wpybw232ar","many_one","0","direct_first","1","NS06EL16","1","24","1","1","3","1","","0","1","0","null","","","<img src = 'category4/CS4.png' width = '100%;'>","null","","","","","","","","","",""
"","html-keyboard-response","246","681379","0.0-12.0-2.2","wpybw232ar","many_one","0","direct_first","1","NS06EL16","1","24","1","1","3","1","","0","1","0","null","","","<img src = 'targets/46.png' width = '100%;'>","null","","","","","","","","","",""
"","html-keyboard-response","247","681810","0.0-12.0-3.2","wpybw232ar","many_one","0","direct_first","1","NS06EL16","1","24","1","1","3","1","","0","1","0","429.4350000564009","","","<img src = 'targets/mask.png' width = '100%;'>","75","pos","GS","GSold","4","category4/CS4.png","","targets/46.png","indirect","1","26"
"","html-keyboard-response","248","683335","0.0-12.0-0.3","wpybw232ar","many_one","0","direct_first","1","NS06EL16","1","24","1","1","3","1","","0","1","0","null","","","<div style=""font-size:60px;"">+</div>","null","","","","","","","","","",""
"","html-keyboard-response","249","683432","0.0-12.0-1.3","wpybw232ar","many_one","0","direct_first","1","NS06EL16","1","24","1","1","3","1","","0","1","0","null","","","<img src = 'category4/CS7.png' width = '100%;'>","null","","","","","","","","","",""
"","html-keyboard-response","250","683698","0.0-12.0-2.3","wpybw232ar","many_one","0","direct_first","1","NS06EL16","1","24","1","1","3","1","","0","1","0","null","","","<img src = 'targets/9.png' width = '100%;'>","null","","","","","","","","","",""
"","html-keyboard-response","251","684247","0.0-12.0-3.3","wpybw232ar","many_one","0","direct_first","1","NS06EL16","1","24","1","1","3","1","","0","1","0","546.5499998535961","","","<img src = 'targets/mask.png' width = '100%;'>","75","pos","GS","GSold","4","category4/CS7.png","","targets/9.png","indirect","1","27"
"","html-keyboard-response","252","685761","0.0-12.0-0.4","wpybw232ar","many_one","0","direct_first","1","NS06EL16","1","24","1","1","3","1","","0","1","0","null","","","<div style=""font-size:60px;"">+</div>","null","","","","","","","","","",""
"","html-keyboard-response","253","685852","0.0-12.0-1.4","wpybw232ar","many_one","0","direct_first","1","NS06EL16","1","24","1","1","3","1","","0","1","0","null","","","<img src = 'category1/ma.png' width = '100%;'>","null","","","","","","","","","",""
"","html-keyboard-response","254","686111","0.0-12.0-2.4","wpybw232ar","many_one","0","direct_first","1","NS06EL16","1","24","1","1","3","1","","0","1","0","null","","","<img src = 'targets/31.png' width = '100%;'>","null","","","","","","","","","",""
"","html-keyboard-response","255","686707","0.0-12.0-3.4","wpybw232ar","many_one","0","direct_first","1","NS06EL16","1","24","1","1","3","1","","0","1","0","594.4349998608232","","","<img src = 'targets/mask.png' width = '100%;'>","75","pos","GS","abstract","1","category1/ma.png","","targets/31.png","indirect","1","28"
"","html-keyboard-response","256","688218","0.0-12.0-0.5","wpybw232ar","many_one","0","direct_first","1","NS06EL16","1","24","1","1","3","1","","0","1","0","null","","","<div style=""font-size:60px;"">+</div>","null","","","","","","","","","",""
"","html-keyboard-response","257","688310","0.0-12.0-1.5","wpybw232ar","many_one","0","direct_first","1","NS06EL16","1","24","1","1","3","1","","0","1","0","null","","","<img src = 'category1/GS3.png' width = '100%;'>","null","","","","","","","","","",""
"","html-keyboard-response","258","688581","0.0-12.0-2.5","wpybw232ar","many_one","0","direct_first","1","NS06EL16","1","24","1","1","3","1","","0","1","0","null","","","<img src = 'targets/6.png' width = '100%;'>","null","","","","","","","","","",""
"","html-keyboard-response","259","689076","0.0-12.0-3.5","wpybw232ar","many_one","0","direct_first","1","NS06EL16","1","24","1","1","3","1","","0","1","0","493.2750000152737","","","<img src = 'targets/mask.png' width = '100%;'>","75","pos","GS","GSnew","1","category1/GS3.png","","targets/6.png","indirect","1","29"
"","html-keyboard-response","260","690591","0.0-12.0-0.6","wpybw232ar","many_one","0","direct_first","1","NS06EL16","1","24","1","1","3","1","","0","1","0","null","","","<div style=""font-size:60px;"">+</div>","null","","","","","","","","","",""
"","html-keyboard-response","261","690683","0.0-12.0-1.6","wpybw232ar","many_one","0","direct_first","1","NS06EL16","1","24","1","1","3","1","","0","1","0","null","","","<img src = 'category3/GS1.png' width = '100%;'>","null","","","","","","","","","",""
"","html-keyboard-response","262","690951","0.0-12.0-2.6","wpybw232ar","many_one","0","direct_first","1","NS06EL16","1","24","1","1","3","1","","0","1","0","null","","","<img src = 'targets/19.png' width = '100%;'>","null","","","","","","","","","",""
"","html-keyboard-response","263","691430","0.0-12.0-3.6","wpybw232ar","many_one","0","direct_first","1","NS06EL16","1","24","1","1","3","1","","0","1","0","477.6299998629838","","","<img src = 'targets/mask.png' width = '100%;'>","68","neg","GS","GSnew","3","category3/GS1.png","","targets/19.png","indirect","0","30"
"","html-keyboard-response","264","692949","0.0-12.0-0.7","wpybw232ar","many_one","0","direct_first","1","NS06EL16","1","24","1","1","3","1","","0","1","0","null","","","<div style=""font-size:60px;"">+</div>","null","","","","","","","","","",""
"","html-keyboard-response","265","693041","0.0-12.0-1.7","wpybw232ar","many_one","0","direct_first","1","NS06EL16","1","24","1","1","3","1","","0","1","0","null","","","<img src = 'category2/men.png' width = '100%;'>","null","","","","","","","","","",""
"","html-keyboard-response","266","693297","0.0-12.0-2.7","wpybw232ar","many_one","0","direct_first","1","NS06EL16","1","24","1","1","3","1","","0","1","0","null","","","<img src = 'targets/3.png' width = '100%;'>","null","","","","","","","","","",""
"","html-keyboard-response","267","693785","0.0-12.0-3.7","wpybw232ar","many_one","0","direct_first","1","NS06EL16","1","24","1","1","3","1","","0","1","0","487.0450000744313","","","<img src = 'targets/mask.png' width = '100%;'>","68","neg","GS","abstract","2","category2/men.png","","targets/3.png","indirect","0","31"
"","html-keyboard-response","268","695312","0.0-12.0-0.8","wpybw232ar","many_one","0","direct_first","1","NS06EL16","1","24","1","1","3","1","","0","1","0","null","","","<div style=""font-size:60px;"">+</div>","null","","","","","","","","","",""
"","html-keyboard-response","269","695406","0.0-12.0-1.8","wpybw232ar","many_one","0","direct_first","1","NS06EL16","1","24","1","1","3","1","","0","1","0","null","","","<img src = 'category2/GS2.png' width = '100%;'>","null","","","","","","","","","",""
"","html-keyboard-response","270","695686","0.0-12.0-2.8","wpybw232ar","many_one","0","direct_first","1","NS06EL16","1","24","1","1","3","1","","0","1","0","null","","","<img src = 'targets/39.png' width = '100%;'>","null","","","","","","","","","",""
"","html-keyboard-response","271","696094","0.0-12.0-3.8","wpybw232ar","many_one","0","direct_first","1","NS06EL16","1","24","1","1","3","1","","0","1","0","406.30499995313585","","","<img src = 'targets/mask.png' width = '100%;'>","75","neg","GS","GSnew","2","category2/GS2.png","","targets/39.png","indirect","1","32"
"","html-keyboard-response","272","697612","0.0-12.0-0.9","wpybw232ar","many_one","0","direct_first","1","NS06EL16","1","24","1","1","3","1","","0","1","0","null","","","<div style=""font-size:60px;"">+</div>","null","","","","","","","","","",""
"","html-keyboard-response","273","697704","0.0-12.0-1.9","wpybw232ar","many_one","0","direct_first","1","NS06EL16","1","24","1","1","3","1","","0","1","0","null","","","<img src = 'category1/CS3.png' width = '100%;'>","null","","","","","","","","","",""
"","html-keyboard-response","274","697956","0.0-12.0-2.9","wpybw232ar","many_one","0","direct_first","1","NS06EL16","1","24","1","1","3","1","","0","1","0","null","","","<img src = 'targets/7.png' width = '100%;'>","null","","","","","","","","","",""
"","html-keyboard-response","275","698517","0.0-12.0-3.9","wpybw232ar","many_one","0","direct_first","1","NS06EL16","1","24","1","1","3","1","","0","1","0","559.6600000280887","","","<img src = 'targets/mask.png' width = '100%;'>","75","pos","GS","GSold","1","category1/CS3.png","","targets/7.png","indirect","1","33"
"","html-keyboard-response","276","700021","0.0-12.0-0.10","wpybw232ar","many_one","0","direct_first","1","NS06EL16","1","24","1","1","3","1","","0","1","0","null","","","<div style=""font-size:60px;"">+</div>","null","","","","","","","","","",""
"","html-keyboard-response","277","700112","0.0-12.0-1.10","wpybw232ar","many_one","0","direct_first","1","NS06EL16","1","24","1","1","3","1","","0","1","0","null","","","<img src = 'category3/wang.png' width = '100%;'>","null","","","","","","","","","",""
"","html-keyboard-response","278","700380","0.0-12.0-2.10","wpybw232ar","many_one","0","direct_first","1","NS06EL16","1","24","1","1","3","1","","0","1","0","null","","","<img src = 'targets/41.png' width = '100%;'>","null","","","","","","","","","",""
"","html-keyboard-response","279","700977","0.0-12.0-3.10","wpybw232ar","many_one","0","direct_first","1","NS06EL16","1","24","1","1","3","1","","0","1","0","595.9850000217557","","","<img src = 'targets/mask.png' width = '100%;'>","68","neg","GS","abstract","3","category3/wang.png","","targets/41.png","indirect","0","34"
"","html-keyboard-response","280","702484","0.0-12.0-0.11","wpybw232ar","many_one","0","direct_first","1","NS06EL16","1","24","1","1","3","1","","0","1","0","null","","","<div style=""font-size:60px;"">+</div>","null","","","","","","","","","",""
"","html-keyboard-response","281","702576","0.0-12.0-1.11","wpybw232ar","many_one","0","direct_first","1","NS06EL16","1","24","1","1","3","1","","0","1","0","null","","","<img src = 'category4/GS3.png' width = '100%;'>","null","","","","","","","","","",""
"","html-keyboard-response","282","702832","0.0-12.0-2.11","wpybw232ar","many_one","0","direct_first","1","NS06EL16","1","24","1","1","3","1","","0","1","0","null","","","<img src = 'targets/5.png' width = '100%;'>","null","","","","","","","","","",""
"","html-keyboard-response","283","703311","0.0-12.0-3.11","wpybw232ar","many_one","0","direct_first","1","NS06EL16","1","24","1","1","3","1","","0","1","0","477.0200001075864","","","<img src = 'targets/mask.png' width = '100%;'>","75","pos","GS","GSnew","4","category4/GS3.png","","targets/5.png","indirect","1","35"
"","html-keyboard-response","284","704838","0.0-12.0-0.12","wpybw232ar","many_one","0","direct_first","1","NS06EL16","1","24","1","1","3","1","","0","1","0","null","","","<div style=""font-size:60px;"">+</div>","null","","","","","","","","","",""
"","html-keyboard-response","285","704931","0.0-12.0-1.12","wpybw232ar","many_one","0","direct_first","1","NS06EL16","1","24","1","1","3","1","","0","1","0","null","","","<img src = 'category2/CS5.png' width = '100%;'>","null","","","","","","","","","",""
"","html-keyboard-response","286","705184","0.0-12.0-2.12","wpybw232ar","many_one","0","direct_first","1","NS06EL16","1","24","1","1","3","1","","0","1","0","null","","","<img src = 'targets/8.png' width = '100%;'>","null","","","","","","","","","",""
"","html-keyboard-response","287","705821","0.0-12.0-3.12","wpybw232ar","many_one","0","direct_first","1","NS06EL16","1","24","1","1","3","1","","0","1","0","635.780000127852","","","<img src = 'targets/mask.png' width = '100%;'>","75","neg","GS","GSold","2","category2/CS5.png","","targets/8.png","indirect","1","36"
"","html-keyboard-response","288","707334","0.0-12.0-0.13","wpybw232ar","many_one","0","direct_first","1","NS06EL16","1","24","1","1","3","1","","0","1","0","null","","","<div style=""font-size:60px;"">+</div>","null","","","","","","","","","",""
"","html-keyboard-response","289","707428","0.0-12.0-1.13","wpybw232ar","many_one","0","direct_first","1","NS06EL16","1","24","1","1","3","1","","0","1","0","null","","","<img src = 'category4/GS1.png' width = '100%;'>","null","","","","","","","","","",""
"","html-keyboard-response","290","707697","0.0-12.0-2.13","wpybw232ar","many_one","0","direct_first","1","NS06EL16","1","24","1","1","3","1","","0","1","0","null","","","<img src = 'targets/38.png' width = '100%;'>","null","","","","","","","","","",""
"","html-keyboard-response","291","708288","0.0-12.0-3.13","wpybw232ar","many_one","0","direct_first","1","NS06EL16","1","24","1","1","3","1","","0","1","0","589.7949999198318","","","<img src = 'targets/mask.png' width = '100%;'>","75","pos","GS","GSnew","4","category4/GS1.png","","targets/38.png","indirect","1","37"
"","html-keyboard-response","292","709811","0.0-12.0-0.14","wpybw232ar","many_one","0","direct_first","1","NS06EL16","1","24","1","1","3","1","","0","1","0","null","","","<div style=""font-size:60px;"">+</div>","null","","","","","","","","","",""
"","html-keyboard-response","293","709903","0.0-12.0-1.14","wpybw232ar","many_one","0","direct_first","1","NS06EL16","1","24","1","1","3","1","","0","1","0","null","","","<img src = 'category2/GS1.png' width = '100%;'>","null","","","","","","","","","",""
"","html-keyboard-response","294","710170","0.0-12.0-2.14","wpybw232ar","many_one","0","direct_first","1","NS06EL16","1","24","1","1","3","1","","0","1","0","null","","","<img src = 'targets/10.png' width = '100%;'>","null","","","","","","","","","",""
"","html-keyboard-response","295","710749","0.0-12.0-3.14","wpybw232ar","many_one","0","direct_first","1","NS06EL16","1","24","1","1","3","1","","0","1","0","575.7999999914318","","","<img src = 'targets/mask.png' width = '100%;'>","68","neg","GS","GSnew","2","category2/GS1.png","","targets/10.png","indirect","0","38"
"","html-keyboard-response","296","712256","0.0-12.0-0.15","wpybw232ar","many_one","0","direct_first","1","NS06EL16","1","24","1","1","3","1","","0","1","0","null","","","<div style=""font-size:60px;"">+</div>","null","","","","","","","","","",""
"","html-keyboard-response","297","712350","0.0-12.0-1.15","wpybw232ar","many_one","0","direct_first","1","NS06EL16","1","24","1","1","3","1","","0","1","0","null","","","<img src = 'category2/CS10.png' width = '100%;'>","null","","","","","","","","","",""
"","html-keyboard-response","298","712617","0.0-12.0-2.15","wpybw232ar","many_one","0","direct_first","1","NS06EL16","1","24","1","1","3","1","","0","1","0","null","","","<img src = 'targets/36.png' width = '100%;'>","null","","","","","","","","","",""
"","html-keyboard-response","299","713069","0.0-12.0-3.15","wpybw232ar","many_one","0","direct_first","1","NS06EL16","1","24","1","1","3","1","","0","1","0","450.3049999475479","","","<img src = 'targets/mask.png' width = '100%;'>","68","neg","GS","GSold","2","category2/CS10.png","","targets/36.png","indirect","0","39"
"","html-keyboard-response","300","714579","0.0-12.0-0.16","wpybw232ar","many_one","0","direct_first","1","NS06EL16","1","24","1","1","3","1","","0","1","0","null","","","<div style=""font-size:60px;"">+</div>","null","","","","","","","","","",""
"","html-keyboard-response","301","714672","0.0-12.0-1.16","wpybw232ar","many_one","0","direct_first","1","NS06EL16","1","24","1","1","3","1","","0","1","0","null","","","<img src = 'category1/GS1.png' width = '100%;'>","null","","","","","","","","","",""
"","html-keyboard-response","302","714938","0.0-12.0-2.16","wpybw232ar","many_one","0","direct_first","1","NS06EL16","1","24","1","1","3","1","","0","1","0","null","","","<img src = 'targets/30.png' width = '100%;'>","null","","","","","","","","","",""
"","html-keyboard-response","303","715473","0.0-12.0-3.16","wpybw232ar","many_one","0","direct_first","1","NS06EL16","1","24","1","1","3","1","","0","1","0","533.3000000100583","","","<img src = 'targets/mask.png' width = '100%;'>","75","pos","GS","GSnew","1","category1/GS1.png","","targets/30.png","indirect","1","40"
"","html-keyboard-response","304","716981","0.0-12.0-0.17","wpybw232ar","many_one","0","direct_first","1","NS06EL16","1","24","1","1","3","1","","0","1","0","null","","","<div style=""font-size:60px;"">+</div>","null","","","","","","","","","",""
"","html-keyboard-response","305","717072","0.0-12.0-1.17","wpybw232ar","many_one","0","direct_first","1","NS06EL16","1","24","1","1","3","1","","0","1","0","null","","","<img src = 'category1/CS4.png' width = '100%;'>","null","","","","","","","","","",""
"","html-keyboard-response","306","717326","0.0-12.0-2.17","wpybw232ar","many_one","0","direct_first","1","NS06EL16","1","24","1","1","3","1","","0","1","0","null","","","<img src = 'targets/13.png' width = '100%;'>","null","","","","","","","","","",""
"","html-keyboard-response","307","717956","0.0-12.0-3.17","wpybw232ar","many_one","0","direct_first","1","NS06EL16","1","24","1","1","3","1","","0","1","0","628.179999999702","","","<img src = 'targets/mask.png' width = '100%;'>","68","pos","GS","GSold","1","category1/CS4.png","","targets/13.png","indirect","0","41"
"","html-keyboard-response","308","719481","0.0-12.0-0.18","wpybw232ar","many_one","0","direct_first","1","NS06EL16","1","24","1","1","3","1","","0","1","0","null","","","<div style=""font-size:60px;"">+</div>","null","","","","","","","","","",""
"","html-keyboard-response","309","719573","0.0-12.0-1.18","wpybw232ar","many_one","0","direct_first","1","NS06EL16","1","24","1","1","3","1","","0","1","0","null","","","<img src = 'category2/GS3.png' width = '100%;'>","null","","","","","","","","","",""
"","html-keyboard-response","310","719827","0.0-12.0-2.18","wpybw232ar","many_one","0","direct_first","1","NS06EL16","1","24","1","1","3","1","","0","1","0","null","","","<img src = 'targets/33.png' width = '100%;'>","null","","","","","","","","","",""
"","html-keyboard-response","311","720386","0.0-12.0-3.18","wpybw232ar","many_one","0","direct_first","1","NS06EL16","1","24","1","1","3","1","","0","1","0","557.1699999272823","","","<img src = 'targets/mask.png' width = '100%;'>","75","neg","GS","GSnew","2","category2/GS3.png","","targets/33.png","indirect","1","42"
"","html-keyboard-response","312","721908","0.0-12.0-0.19","wpybw232ar","many_one","0","direct_first","1","NS06EL16","1","24","1","1","3","1","","0","1","0","null","","","<div style=""font-size:60px;"">+</div>","null","","","","","","","","","",""
"","html-keyboard-response","313","722000","0.0-12.0-1.19","wpybw232ar","many_one","0","direct_first","1","NS06EL16","1","24","1","1","3","1","","0","1","0","null","","","<img src = 'category1/GS2.png' width = '100%;'>","null","","","","","","","","","",""
"","html-keyboard-response","314","722268","0.0-12.0-2.19","wpybw232ar","many_one","0","direct_first","1","NS06EL16","1","24","1","1","3","1","","0","1","0","null","","","<img src = 'targets/12.png' width = '100%;'>","null","","","","","","","","","",""
"","html-keyboard-response","315","722737","0.0-12.0-3.19","wpybw232ar","many_one","0","direct_first","1","NS06EL16","1","24","1","1","3","1","","0","1","0","468.0049999151379","","","<img src = 'targets/mask.png' width = '100%;'>","75","pos","GS","GSnew","1","category1/GS2.png","","targets/12.png","indirect","1","43"
"","html-keyboard-response","316","724247","0.0-12.0-0.20","wpybw232ar","many_one","0","direct_first","1","NS06EL16","1","24","1","1","3","1","","0","1","0","null","","","<div style=""font-size:60px;"">+</div>","null","","","","","","","","","",""
"","html-keyboard-response","317","724339","0.0-12.0-1.20","wpybw232ar","many_one","0","direct_first","1","NS06EL16","1","24","1","1","3","1","","0","1","0","null","","","<img src = 'category4/GS2.png' width = '100%;'>","null","","","","","","","","","",""
"","html-keyboard-response","318","724606","0.0-12.0-2.20","wpybw232ar","many_one","0","direct_first","1","NS06EL16","1","24","1","1","3","1","","0","1","0","null","","","<img src = 'targets/43.png' width = '100%;'>","null","","","","","","","","","",""
"","html-keyboard-response","319","725104","0.0-12.0-3.20","wpybw232ar","many_one","0","direct_first","1","NS06EL16","1","24","1","1","3","1","","0","1","0","496.4749999344349","","","<img src = 'targets/mask.png' width = '100%;'>","68","pos","GS","GSnew","4","category4/GS2.png","","targets/43.png","indirect","0","44"
"","html-keyboard-response","320","726623","0.0-12.0-0.21","wpybw232ar","many_one","0","direct_first","1","NS06EL16","1","24","1","1","3","1","","0","1","0","null","","","<div style=""font-size:60px;"">+</div>","null","","","","","","","","","",""
"","html-keyboard-response","321","726716","0.0-12.0-1.21","wpybw232ar","many_one","0","direct_first","1","NS06EL16","1","24","1","1","3","1","","0","1","0","null","","","<img src = 'category2/CS9.png' width = '100%;'>","null","","","","","","","","","",""
"","html-keyboard-response","322","726968","0.0-12.0-2.21","wpybw232ar","many_one","0","direct_first","1","NS06EL16","1","24","1","1","3","1","","0","1","0","null","","","<img src = 'targets/23.png' width = '100%;'>","null","","","","","","","","","",""
"","html-keyboard-response","323","727535","0.0-12.0-3.21","wpybw232ar","many_one","0","direct_first","1","NS06EL16","1","24","1","1","3","1","","0","1","0","565.5549999792129","","","<img src = 'targets/mask.png' width = '100%;'>","75","neg","GS","GSold","2","category2/CS9.png","","targets/23.png","indirect","1","45"
"","html-keyboard-response","324","729049","0.0-12.0-0.22","wpybw232ar","many_one","0","direct_first","1","NS06EL16","1","24","1","1","3","1","","0","1","0","null","","","<div style=""font-size:60px;"">+</div>","null","","","","","","","","","",""
"","html-keyboard-response","325","729141","0.0-12.0-1.22","wpybw232ar","many_one","0","direct_first","1","NS06EL16","1","24","1","1","3","1","","0","1","0","null","","","<img src = 'category4/CS9.png' width = '100%;'>","null","","","","","","","","","",""
"","html-keyboard-response","326","729408","0.0-12.0-2.22","wpybw232ar","many_one","0","direct_first","1","NS06EL16","1","24","1","1","3","1","","0","1","0","null","","","<img src = 'targets/34.png' width = '100%;'>","null","","","","","","","","","",""
"","html-keyboard-response","327","729912","0.0-12.0-3.22","wpybw232ar","many_one","0","direct_first","1","NS06EL16","1","24","1","1","3","1","","0","1","0","502.68000015057623","","","<img src = 'targets/mask.png' width = '100%;'>","75","pos","GS","GSold","4","category4/CS9.png","","targets/34.png","indirect","1","46"
