"success","trial_type","trial_index","time_elapsed","internal_node_id","subject","condition","condition_code","measure","measure_code","codeword","gender","age","education","chinese","fach","handedness","rt","url","responses","stimulus","key_press","val","type","type_specific","category","cs_selected","target","indirect","task","nr_pres","response"
"true","fullscreen","0","3167","0.0-0.0","ua2vg57o79","many_one","0","indirect_first","0","er05ig26","0","31","1","1","1","2","","","","","","","","","","","","","","",""
"","external-html","1","60911","0.0-1.0","ua2vg57o79","many_one","0","indirect_first","0","er05ig26","0","31","1","1","1","2","57709","text/information.html","","","","","","","","","","","","",""
"","external-html","2","75727","0.0-2.0","ua2vg57o79","many_one","0","indirect_first","0","er05ig26","0","31","1","1","1","2","14790","text/consent.html","","","","","","","","","","","","",""
"","survey-html-form","3","132445","0.0-3.0","ua2vg57o79","many_one","0","indirect_first","0","er05ig26","0","31","1","1","1","2","56717","","{""codeword_enter"":""er05ig26""}","","","","","","","","","","","",""
"","survey-html-form","4","145935","0.0-4.0","ua2vg57o79","many_one","0","indirect_first","0","er05ig26","0","31","1","1","1","2","13489","","{""age"":""31"",""education"":""1"",""subject"":""1"",""gender"":""0"",""handedness"":""2"",""chinese"":""1""}","","","","","","","","","","","",""
"","survey-html-form","5","158087","0.0-5.0","ua2vg57o79","many_one","0","indirect_first","0","er05ig26","0","31","1","1","1","2","12150","","{}","","","","","","","","","","","",""
"","html-keyboard-response","6","162120","0.0-6.0-0.0-0.0","ua2vg57o79","many_one","0","indirect_first","0","er05ig26","0","31","1","1","1","2","null","","","<div class = 'row'><div class = 'column'><img src = 'category2/CS5.png' width = '70%;'></div><div class = 'column'><img src = 'usneg/6020.bmp' width = '100%;'></div></div>","null","neg","CS","CS","2","category2/CS5.png","","","","",""
"","html-keyboard-response","7","164660","0.0-6.0-0.0-0.1","ua2vg57o79","many_one","0","indirect_first","0","er05ig26","0","31","1","1","1","2","null","","","<div class = 'row'><div class = 'column'><img src = 'category1/CS8.png' width = '70%;'></div><div class = 'column'><img src = 'usneg/9340.bmp' width = '100%;'></div></div>","null","neg","CS","CS","1","category1/CS8.png","","","","",""
"","html-keyboard-response","8","167199","0.0-6.0-0.0-0.2","ua2vg57o79","many_one","0","indirect_first","0","er05ig26","0","31","1","1","1","2","null","","","<div class = 'row'><div class = 'column'><img src = 'category3/CS1.png' width = '70%;'></div><div class = 'column'><img src = 'uspos/2341.bmp' width = '100%;'></div></div>","null","pos","CS","CS","3","category3/CS1.png","","","","",""
"","html-keyboard-response","9","169740","0.0-6.0-0.0-0.3","ua2vg57o79","many_one","0","indirect_first","0","er05ig26","0","31","1","1","1","2","null","","","<div class = 'row'><div class = 'column'><img src = 'uspos/2030.bmp' width = '100%;'></div><div class = 'column'><img src = 'category4/CS9.png' width = '70%;'></div></div>","null","pos","CS","CS","4","category4/CS9.png","","","","",""
"","html-keyboard-response","10","172270","0.0-6.0-0.0-0.4","ua2vg57o79","many_one","0","indirect_first","0","er05ig26","0","31","1","1","1","2","null","","","<div class = 'row'><div class = 'column'><img src = 'category1/CS1.png' width = '70%;'></div><div class = 'column'><img src = 'usneg/2141.bmp' width = '100%;'></div></div>","null","neg","CS","CS","1","category1/CS1.png","","","","",""
"","html-keyboard-response","11","174810","0.0-6.0-0.0-0.5","ua2vg57o79","many_one","0","indirect_first","0","er05ig26","0","31","1","1","1","2","null","","","<div class = 'row'><div class = 'column'><img src = 'usneg/6570.1.bmp' width = '100%;'></div><div class = 'column'><img src = 'category2/CS8.png' width = '70%;'></div></div>","null","neg","CS","CS","2","category2/CS8.png","","","","",""
"","html-keyboard-response","12","177349","0.0-6.0-0.0-0.6","ua2vg57o79","many_one","0","indirect_first","0","er05ig26","0","31","1","1","1","2","null","","","<div class = 'row'><div class = 'column'><img src = 'category3/CS10.png' width = '70%;'></div><div class = 'column'><img src = 'uspos/2900.2.bmp' width = '100%;'></div></div>","null","pos","CS","CS","3","category3/CS10.png","","","","",""
"","html-keyboard-response","13","179889","0.0-6.0-0.0-0.7","ua2vg57o79","many_one","0","indirect_first","0","er05ig26","0","31","1","1","1","2","null","","","<div class = 'row'><div class = 'column'><img src = 'category1/CS3.png' width = '70%;'></div><div class = 'column'><img src = 'usneg/9180.bmp' width = '100%;'></div></div>","null","neg","CS","CS","1","category1/CS3.png","","","","",""
"","html-keyboard-response","14","182409","0.0-6.0-0.0-0.8","ua2vg57o79","many_one","0","indirect_first","0","er05ig26","0","31","1","1","1","2","null","","","<div class = 'row'><div class = 'column'><img src = 'category2/CS6.png' width = '70%;'></div><div class = 'column'><img src = 'usneg/2900.bmp' width = '100%;'></div></div>","null","neg","CS","CS","2","category2/CS6.png","","","","",""
"","html-keyboard-response","15","184950","0.0-6.0-0.0-0.9","ua2vg57o79","many_one","0","indirect_first","0","er05ig26","0","31","1","1","1","2","null","","","<div class = 'row'><div class = 'column'><img src = 'uspos/8540.bmp' width = '100%;'></div><div class = 'column'><img src = 'category3/CS9.png' width = '70%;'></div></div>","null","pos","CS","CS","3","category3/CS9.png","","","","",""
"","html-keyboard-response","16","187489","0.0-6.0-0.0-0.10","ua2vg57o79","many_one","0","indirect_first","0","er05ig26","0","31","1","1","1","2","null","","","<div class = 'row'><div class = 'column'><img src = 'category4/CS8.png' width = '70%;'></div><div class = 'column'><img src = 'uspos/2150.bmp' width = '100%;'></div></div>","null","pos","CS","CS","4","category4/CS8.png","","","","",""
"","html-keyboard-response","17","190029","0.0-6.0-0.0-0.11","ua2vg57o79","many_one","0","indirect_first","0","er05ig26","0","31","1","1","1","2","null","","","<div class = 'row'><div class = 'column'><img src = 'category1/CS7.png' width = '70%;'></div><div class = 'column'><img src = 'usneg/9421.bmp' width = '100%;'></div></div>","null","neg","CS","CS","1","category1/CS7.png","","","","",""
"","html-keyboard-response","18","192559","0.0-6.0-0.0-0.12","ua2vg57o79","many_one","0","indirect_first","0","er05ig26","0","31","1","1","1","2","null","","","<div class = 'row'><div class = 'column'><img src = 'category1/CS6.png' width = '70%;'></div><div class = 'column'><img src = 'usneg/9342.bmp' width = '100%;'></div></div>","null","neg","CS","CS","1","category1/CS6.png","","","","",""
"","html-keyboard-response","19","195099","0.0-6.0-0.0-0.13","ua2vg57o79","many_one","0","indirect_first","0","er05ig26","0","31","1","1","1","2","null","","","<div class = 'row'><div class = 'column'><img src = 'uspos/8190.bmp' width = '100%;'></div><div class = 'column'><img src = 'category4/CS5.png' width = '70%;'></div></div>","null","pos","CS","CS","4","category4/CS5.png","","","","",""
"","html-keyboard-response","20","197639","0.0-6.0-0.0-0.14","ua2vg57o79","many_one","0","indirect_first","0","er05ig26","0","31","1","1","1","2","null","","","<div class = 'row'><div class = 'column'><img src = 'category2/CS4.png' width = '70%;'></div><div class = 'column'><img src = 'usneg/2205.bmp' width = '100%;'></div></div>","null","neg","CS","CS","2","category2/CS4.png","","","","",""
"","html-keyboard-response","21","200159","0.0-6.0-0.0-0.15","ua2vg57o79","many_one","0","indirect_first","0","er05ig26","0","31","1","1","1","2","null","","","<div class = 'row'><div class = 'column'><img src = 'category2/CS9.png' width = '70%;'></div><div class = 'column'><img src = 'usneg/9181.bmp' width = '100%;'></div></div>","null","neg","CS","CS","2","category2/CS9.png","","","","",""
"","html-keyboard-response","22","202699","0.0-6.0-0.0-0.16","ua2vg57o79","many_one","0","indirect_first","0","er05ig26","0","31","1","1","1","2","null","","","<div class = 'row'><div class = 'column'><img src = 'uspos/5470.bmp' width = '100%;'></div><div class = 'column'><img src = 'category4/CS4.png' width = '70%;'></div></div>","null","pos","CS","CS","4","category4/CS4.png","","","","",""
"","html-keyboard-response","23","205240","0.0-6.0-0.0-0.17","ua2vg57o79","many_one","0","indirect_first","0","er05ig26","0","31","1","1","1","2","null","","","<div class = 'row'><div class = 'column'><img src = 'uspos/8350.bmp' width = '100%;'></div><div class = 'column'><img src = 'category3/CS5.png' width = '70%;'></div></div>","null","pos","CS","CS","3","category3/CS5.png","","","","",""
"","html-keyboard-response","24","207780","0.0-6.0-0.0-0.18","ua2vg57o79","many_one","0","indirect_first","0","er05ig26","0","31","1","1","1","2","null","","","<div class = 'row'><div class = 'column'><img src = 'uspos/1463.bmp' width = '100%;'></div><div class = 'column'><img src = 'category3/CS4.png' width = '70%;'></div></div>","null","pos","CS","CS","3","category3/CS4.png","","","","",""
"","html-keyboard-response","25","210319","0.0-6.0-0.0-0.19","ua2vg57o79","many_one","0","indirect_first","0","er05ig26","0","31","1","1","1","2","null","","","<div class = 'row'><div class = 'column'><img src = 'category4/CS10.png' width = '70%;'></div><div class = 'column'><img src = 'uspos/2311.bmp' width = '100%;'></div></div>","null","pos","CS","CS","4","category4/CS10.png","","","","",""
"","survey-html-form","26","213727","0.0-6.0-1.0","ua2vg57o79","many_one","0","indirect_first","0","er05ig26","0","31","1","1","1","2","2888","","{}","","","","","","","","","","","",""
"","html-keyboard-response","27","217759","0.0-6.0-2.0-0.0","ua2vg57o79","many_one","0","indirect_first","0","er05ig26","0","31","1","1","1","2","null","","","<div class = 'row'><div class = 'column'><img src = 'category3/CS9.png' width = '70%;'></div><div class = 'column'><img src = 'uspos/8540.bmp' width = '100%;'></div></div>","null","pos","CS","CS","3","category3/CS9.png","","","","",""
"","html-keyboard-response","28","220279","0.0-6.0-2.0-0.1","ua2vg57o79","many_one","0","indirect_first","0","er05ig26","0","31","1","1","1","2","null","","","<div class = 'row'><div class = 'column'><img src = 'usneg/9421.bmp' width = '100%;'></div><div class = 'column'><img src = 'category1/CS7.png' width = '70%;'></div></div>","null","neg","CS","CS","1","category1/CS7.png","","","","",""
"","html-keyboard-response","29","222819","0.0-6.0-2.0-0.2","ua2vg57o79","many_one","0","indirect_first","0","er05ig26","0","31","1","1","1","2","null","","","<div class = 'row'><div class = 'column'><img src = 'category4/CS4.png' width = '70%;'></div><div class = 'column'><img src = 'uspos/5470.bmp' width = '100%;'></div></div>","null","pos","CS","CS","4","category4/CS4.png","","","","",""
"","html-keyboard-response","30","225359","0.0-6.0-2.0-0.3","ua2vg57o79","many_one","0","indirect_first","0","er05ig26","0","31","1","1","1","2","null","","","<div class = 'row'><div class = 'column'><img src = 'uspos/8190.bmp' width = '100%;'></div><div class = 'column'><img src = 'category4/CS5.png' width = '70%;'></div></div>","null","pos","CS","CS","4","category4/CS5.png","","","","",""
"","html-keyboard-response","31","227879","0.0-6.0-2.0-0.4","ua2vg57o79","many_one","0","indirect_first","0","er05ig26","0","31","1","1","1","2","null","","","<div class = 'row'><div class = 'column'><img src = 'category2/CS6.png' width = '70%;'></div><div class = 'column'><img src = 'usneg/2900.bmp' width = '100%;'></div></div>","null","neg","CS","CS","2","category2/CS6.png","","","","",""
"","html-keyboard-response","32","230419","0.0-6.0-2.0-0.5","ua2vg57o79","many_one","0","indirect_first","0","er05ig26","0","31","1","1","1","2","null","","","<div class = 'row'><div class = 'column'><img src = 'category4/CS9.png' width = '70%;'></div><div class = 'column'><img src = 'uspos/2030.bmp' width = '100%;'></div></div>","null","pos","CS","CS","4","category4/CS9.png","","","","",""
"","html-keyboard-response","33","232959","0.0-6.0-2.0-0.6","ua2vg57o79","many_one","0","indirect_first","0","er05ig26","0","31","1","1","1","2","null","","","<div class = 'row'><div class = 'column'><img src = 'category1/CS8.png' width = '70%;'></div><div class = 'column'><img src = 'usneg/9340.bmp' width = '100%;'></div></div>","null","neg","CS","CS","1","category1/CS8.png","","","","",""
"","html-keyboard-response","34","235499","0.0-6.0-2.0-0.7","ua2vg57o79","many_one","0","indirect_first","0","er05ig26","0","31","1","1","1","2","null","","","<div class = 'row'><div class = 'column'><img src = 'category3/CS5.png' width = '70%;'></div><div class = 'column'><img src = 'uspos/8350.bmp' width = '100%;'></div></div>","null","pos","CS","CS","3","category3/CS5.png","","","","",""
"","html-keyboard-response","35","238019","0.0-6.0-2.0-0.8","ua2vg57o79","many_one","0","indirect_first","0","er05ig26","0","31","1","1","1","2","null","","","<div class = 'row'><div class = 'column'><img src = 'uspos/2341.bmp' width = '100%;'></div><div class = 'column'><img src = 'category3/CS1.png' width = '70%;'></div></div>","null","pos","CS","CS","3","category3/CS1.png","","","","",""
"","html-keyboard-response","36","240549","0.0-6.0-2.0-0.9","ua2vg57o79","many_one","0","indirect_first","0","er05ig26","0","31","1","1","1","2","null","","","<div class = 'row'><div class = 'column'><img src = 'category1/CS6.png' width = '70%;'></div><div class = 'column'><img src = 'usneg/9342.bmp' width = '100%;'></div></div>","null","neg","CS","CS","1","category1/CS6.png","","","","",""
"","html-keyboard-response","37","243089","0.0-6.0-2.0-0.10","ua2vg57o79","many_one","0","indirect_first","0","er05ig26","0","31","1","1","1","2","null","","","<div class = 'row'><div class = 'column'><img src = 'uspos/2311.bmp' width = '100%;'></div><div class = 'column'><img src = 'category4/CS10.png' width = '70%;'></div></div>","null","pos","CS","CS","4","category4/CS10.png","","","","",""
"","html-keyboard-response","38","245619","0.0-6.0-2.0-0.11","ua2vg57o79","many_one","0","indirect_first","0","er05ig26","0","31","1","1","1","2","null","","","<div class = 'row'><div class = 'column'><img src = 'category3/CS10.png' width = '70%;'></div><div class = 'column'><img src = 'uspos/2900.2.bmp' width = '100%;'></div></div>","null","pos","CS","CS","3","category3/CS10.png","","","","",""
"","html-keyboard-response","39","248159","0.0-6.0-2.0-0.12","ua2vg57o79","many_one","0","indirect_first","0","er05ig26","0","31","1","1","1","2","null","","","<div class = 'row'><div class = 'column'><img src = 'category2/CS4.png' width = '70%;'></div><div class = 'column'><img src = 'usneg/2205.bmp' width = '100%;'></div></div>","null","neg","CS","CS","2","category2/CS4.png","","","","",""
"","html-keyboard-response","40","250698","0.0-6.0-2.0-0.13","ua2vg57o79","many_one","0","indirect_first","0","er05ig26","0","31","1","1","1","2","null","","","<div class = 'row'><div class = 'column'><img src = 'usneg/9181.bmp' width = '100%;'></div><div class = 'column'><img src = 'category2/CS9.png' width = '70%;'></div></div>","null","neg","CS","CS","2","category2/CS9.png","","","","",""
"","html-keyboard-response","41","253219","0.0-6.0-2.0-0.14","ua2vg57o79","many_one","0","indirect_first","0","er05ig26","0","31","1","1","1","2","null","","","<div class = 'row'><div class = 'column'><img src = 'uspos/1463.bmp' width = '100%;'></div><div class = 'column'><img src = 'category3/CS4.png' width = '70%;'></div></div>","null","pos","CS","CS","3","category3/CS4.png","","","","",""
"","html-keyboard-response","42","255759","0.0-6.0-2.0-0.15","ua2vg57o79","many_one","0","indirect_first","0","er05ig26","0","31","1","1","1","2","null","","","<div class = 'row'><div class = 'column'><img src = 'usneg/6020.bmp' width = '100%;'></div><div class = 'column'><img src = 'category2/CS5.png' width = '70%;'></div></div>","null","neg","CS","CS","2","category2/CS5.png","","","","",""
"","html-keyboard-response","43","258300","0.0-6.0-2.0-0.16","ua2vg57o79","many_one","0","indirect_first","0","er05ig26","0","31","1","1","1","2","null","","","<div class = 'row'><div class = 'column'><img src = 'uspos/2150.bmp' width = '100%;'></div><div class = 'column'><img src = 'category4/CS8.png' width = '70%;'></div></div>","null","pos","CS","CS","4","category4/CS8.png","","","","",""
"","html-keyboard-response","44","260840","0.0-6.0-2.0-0.17","ua2vg57o79","many_one","0","indirect_first","0","er05ig26","0","31","1","1","1","2","null","","","<div class = 'row'><div class = 'column'><img src = 'usneg/6570.1.bmp' width = '100%;'></div><div class = 'column'><img src = 'category2/CS8.png' width = '70%;'></div></div>","null","neg","CS","CS","2","category2/CS8.png","","","","",""
"","html-keyboard-response","45","263370","0.0-6.0-2.0-0.18","ua2vg57o79","many_one","0","indirect_first","0","er05ig26","0","31","1","1","1","2","null","","","<div class = 'row'><div class = 'column'><img src = 'category1/CS3.png' width = '70%;'></div><div class = 'column'><img src = 'usneg/9180.bmp' width = '100%;'></div></div>","null","neg","CS","CS","1","category1/CS3.png","","","","",""
"","html-keyboard-response","46","265909","0.0-6.0-2.0-0.19","ua2vg57o79","many_one","0","indirect_first","0","er05ig26","0","31","1","1","1","2","null","","","<div class = 'row'><div class = 'column'><img src = 'usneg/2141.bmp' width = '100%;'></div><div class = 'column'><img src = 'category1/CS1.png' width = '70%;'></div></div>","null","neg","CS","CS","1","category1/CS1.png","","","","",""
"","survey-html-form","47","277423","0.0-6.0-3.0","ua2vg57o79","many_one","0","indirect_first","0","er05ig26","0","31","1","1","1","2","10992","","{}","","","","","","","","","","","",""
"","html-keyboard-response","48","281449","0.0-6.0-4.0-0.0","ua2vg57o79","many_one","0","indirect_first","0","er05ig26","0","31","1","1","1","2","null","","","<div class = 'row'><div class = 'column'><img src = 'category1/CS8.png' width = '70%;'></div><div class = 'column'><img src = 'usneg/9340.bmp' width = '100%;'></div></div>","null","neg","CS","CS","1","category1/CS8.png","","","","",""
"","html-keyboard-response","49","283979","0.0-6.0-4.0-0.1","ua2vg57o79","many_one","0","indirect_first","0","er05ig26","0","31","1","1","1","2","null","","","<div class = 'row'><div class = 'column'><img src = 'category2/CS8.png' width = '70%;'></div><div class = 'column'><img src = 'usneg/6570.1.bmp' width = '100%;'></div></div>","null","neg","CS","CS","2","category2/CS8.png","","","","",""
"","html-keyboard-response","50","286519","0.0-6.0-4.0-0.2","ua2vg57o79","many_one","0","indirect_first","0","er05ig26","0","31","1","1","1","2","null","","","<div class = 'row'><div class = 'column'><img src = 'category4/CS9.png' width = '70%;'></div><div class = 'column'><img src = 'uspos/2030.bmp' width = '100%;'></div></div>","null","pos","CS","CS","4","category4/CS9.png","","","","",""
"","html-keyboard-response","51","289059","0.0-6.0-4.0-0.3","ua2vg57o79","many_one","0","indirect_first","0","er05ig26","0","31","1","1","1","2","null","","","<div class = 'row'><div class = 'column'><img src = 'category3/CS5.png' width = '70%;'></div><div class = 'column'><img src = 'uspos/8350.bmp' width = '100%;'></div></div>","null","pos","CS","CS","3","category3/CS5.png","","","","",""
"","html-keyboard-response","52","291599","0.0-6.0-4.0-0.4","ua2vg57o79","many_one","0","indirect_first","0","er05ig26","0","31","1","1","1","2","null","","","<div class = 'row'><div class = 'column'><img src = 'category4/CS4.png' width = '70%;'></div><div class = 'column'><img src = 'uspos/5470.bmp' width = '100%;'></div></div>","null","pos","CS","CS","4","category4/CS4.png","","","","",""
"","html-keyboard-response","53","294139","0.0-6.0-4.0-0.5","ua2vg57o79","many_one","0","indirect_first","0","er05ig26","0","31","1","1","1","2","null","","","<div class = 'row'><div class = 'column'><img src = 'category1/CS1.png' width = '70%;'></div><div class = 'column'><img src = 'usneg/2141.bmp' width = '100%;'></div></div>","null","neg","CS","CS","1","category1/CS1.png","","","","",""
"","html-keyboard-response","54","296669","0.0-6.0-4.0-0.6","ua2vg57o79","many_one","0","indirect_first","0","er05ig26","0","31","1","1","1","2","null","","","<div class = 'row'><div class = 'column'><img src = 'uspos/2150.bmp' width = '100%;'></div><div class = 'column'><img src = 'category4/CS8.png' width = '70%;'></div></div>","null","pos","CS","CS","4","category4/CS8.png","","","","",""
"","html-keyboard-response","55","299200","0.0-6.0-4.0-0.7","ua2vg57o79","many_one","0","indirect_first","0","er05ig26","0","31","1","1","1","2","null","","","<div class = 'row'><div class = 'column'><img src = 'usneg/2900.bmp' width = '100%;'></div><div class = 'column'><img src = 'category2/CS6.png' width = '70%;'></div></div>","null","neg","CS","CS","2","category2/CS6.png","","","","",""
"","html-keyboard-response","56","301739","0.0-6.0-4.0-0.8","ua2vg57o79","many_one","0","indirect_first","0","er05ig26","0","31","1","1","1","2","null","","","<div class = 'row'><div class = 'column'><img src = 'usneg/9421.bmp' width = '100%;'></div><div class = 'column'><img src = 'category1/CS7.png' width = '70%;'></div></div>","null","neg","CS","CS","1","category1/CS7.png","","","","",""
"","html-keyboard-response","57","304259","0.0-6.0-4.0-0.9","ua2vg57o79","many_one","0","indirect_first","0","er05ig26","0","31","1","1","1","2","null","","","<div class = 'row'><div class = 'column'><img src = 'uspos/1463.bmp' width = '100%;'></div><div class = 'column'><img src = 'category3/CS4.png' width = '70%;'></div></div>","null","pos","CS","CS","3","category3/CS4.png","","","","",""
"","html-keyboard-response","58","306799","0.0-6.0-4.0-0.10","ua2vg57o79","many_one","0","indirect_first","0","er05ig26","0","31","1","1","1","2","null","","","<div class = 'row'><div class = 'column'><img src = 'category1/CS6.png' width = '70%;'></div><div class = 'column'><img src = 'usneg/9342.bmp' width = '100%;'></div></div>","null","neg","CS","CS","1","category1/CS6.png","","","","",""
"","html-keyboard-response","59","309339","0.0-6.0-4.0-0.11","ua2vg57o79","many_one","0","indirect_first","0","er05ig26","0","31","1","1","1","2","null","","","<div class = 'row'><div class = 'column'><img src = 'category4/CS10.png' width = '70%;'></div><div class = 'column'><img src = 'uspos/2311.bmp' width = '100%;'></div></div>","null","pos","CS","CS","4","category4/CS10.png","","","","",""
"","html-keyboard-response","60","311878","0.0-6.0-4.0-0.12","ua2vg57o79","many_one","0","indirect_first","0","er05ig26","0","31","1","1","1","2","null","","","<div class = 'row'><div class = 'column'><img src = 'category2/CS4.png' width = '70%;'></div><div class = 'column'><img src = 'usneg/2205.bmp' width = '100%;'></div></div>","null","neg","CS","CS","2","category2/CS4.png","","","","",""
"","html-keyboard-response","61","314399","0.0-6.0-4.0-0.13","ua2vg57o79","many_one","0","indirect_first","0","er05ig26","0","31","1","1","1","2","null","","","<div class = 'row'><div class = 'column'><img src = 'uspos/2900.2.bmp' width = '100%;'></div><div class = 'column'><img src = 'category3/CS10.png' width = '70%;'></div></div>","null","pos","CS","CS","3","category3/CS10.png","","","","",""
"","html-keyboard-response","62","316939","0.0-6.0-4.0-0.14","ua2vg57o79","many_one","0","indirect_first","0","er05ig26","0","31","1","1","1","2","null","","","<div class = 'row'><div class = 'column'><img src = 'usneg/9180.bmp' width = '100%;'></div><div class = 'column'><img src = 'category1/CS3.png' width = '70%;'></div></div>","null","neg","CS","CS","1","category1/CS3.png","","","","",""
"","html-keyboard-response","63","319479","0.0-6.0-4.0-0.15","ua2vg57o79","many_one","0","indirect_first","0","er05ig26","0","31","1","1","1","2","null","","","<div class = 'row'><div class = 'column'><img src = 'uspos/2341.bmp' width = '100%;'></div><div class = 'column'><img src = 'category3/CS1.png' width = '70%;'></div></div>","null","pos","CS","CS","3","category3/CS1.png","","","","",""
"","html-keyboard-response","64","321999","0.0-6.0-4.0-0.16","ua2vg57o79","many_one","0","indirect_first","0","er05ig26","0","31","1","1","1","2","null","","","<div class = 'row'><div class = 'column'><img src = 'uspos/8540.bmp' width = '100%;'></div><div class = 'column'><img src = 'category3/CS9.png' width = '70%;'></div></div>","null","pos","CS","CS","3","category3/CS9.png","","","","",""
"","html-keyboard-response","65","324539","0.0-6.0-4.0-0.17","ua2vg57o79","many_one","0","indirect_first","0","er05ig26","0","31","1","1","1","2","null","","","<div class = 'row'><div class = 'column'><img src = 'category2/CS5.png' width = '70%;'></div><div class = 'column'><img src = 'usneg/6020.bmp' width = '100%;'></div></div>","null","neg","CS","CS","2","category2/CS5.png","","","","",""
"","html-keyboard-response","66","327069","0.0-6.0-4.0-0.18","ua2vg57o79","many_one","0","indirect_first","0","er05ig26","0","31","1","1","1","2","null","","","<div class = 'row'><div class = 'column'><img src = 'uspos/8190.bmp' width = '100%;'></div><div class = 'column'><img src = 'category4/CS5.png' width = '70%;'></div></div>","null","pos","CS","CS","4","category4/CS5.png","","","","",""
"","html-keyboard-response","67","329600","0.0-6.0-4.0-0.19","ua2vg57o79","many_one","0","indirect_first","0","er05ig26","0","31","1","1","1","2","null","","","<div class = 'row'><div class = 'column'><img src = 'category2/CS9.png' width = '70%;'></div><div class = 'column'><img src = 'usneg/9181.bmp' width = '100%;'></div></div>","null","neg","CS","CS","2","category2/CS9.png","","","","",""
"","survey-html-form","68","333679","0.0-6.0-5.0","ua2vg57o79","many_one","0","indirect_first","0","er05ig26","0","31","1","1","1","2","3559","","{}","","","","","","","","","","","",""
"","html-keyboard-response","69","337699","0.0-6.0-6.0-0.0","ua2vg57o79","many_one","0","indirect_first","0","er05ig26","0","31","1","1","1","2","null","","","<div class = 'row'><div class = 'column'><img src = 'usneg/9340.bmp' width = '100%;'></div><div class = 'column'><img src = 'category1/CS8.png' width = '70%;'></div></div>","null","neg","CS","CS","1","category1/CS8.png","","","","",""
"","html-keyboard-response","70","340222","0.0-6.0-6.0-0.1","ua2vg57o79","many_one","0","indirect_first","0","er05ig26","0","31","1","1","1","2","null","","","<div class = 'row'><div class = 'column'><img src = 'uspos/2341.bmp' width = '100%;'></div><div class = 'column'><img src = 'category3/CS1.png' width = '70%;'></div></div>","null","pos","CS","CS","3","category3/CS1.png","","","","",""
"","html-keyboard-response","71","342739","0.0-6.0-6.0-0.2","ua2vg57o79","many_one","0","indirect_first","0","er05ig26","0","31","1","1","1","2","null","","","<div class = 'row'><div class = 'column'><img src = 'category1/CS7.png' width = '70%;'></div><div class = 'column'><img src = 'usneg/9421.bmp' width = '100%;'></div></div>","null","neg","CS","CS","1","category1/CS7.png","","","","",""
"","html-keyboard-response","72","345275","0.0-6.0-6.0-0.3","ua2vg57o79","many_one","0","indirect_first","0","er05ig26","0","31","1","1","1","2","null","","","<div class = 'row'><div class = 'column'><img src = 'category2/CS5.png' width = '70%;'></div><div class = 'column'><img src = 'usneg/6020.bmp' width = '100%;'></div></div>","null","neg","CS","CS","2","category2/CS5.png","","","","",""
"","html-keyboard-response","73","347779","0.0-6.0-6.0-0.4","ua2vg57o79","many_one","0","indirect_first","0","er05ig26","0","31","1","1","1","2","null","","","<div class = 'row'><div class = 'column'><img src = 'uspos/2311.bmp' width = '100%;'></div><div class = 'column'><img src = 'category4/CS10.png' width = '70%;'></div></div>","null","pos","CS","CS","4","category4/CS10.png","","","","",""
"","html-keyboard-response","74","350319","0.0-6.0-6.0-0.5","ua2vg57o79","many_one","0","indirect_first","0","er05ig26","0","31","1","1","1","2","null","","","<div class = 'row'><div class = 'column'><img src = 'category4/CS4.png' width = '70%;'></div><div class = 'column'><img src = 'uspos/5470.bmp' width = '100%;'></div></div>","null","pos","CS","CS","4","category4/CS4.png","","","","",""
"","html-keyboard-response","75","352849","0.0-6.0-6.0-0.6","ua2vg57o79","many_one","0","indirect_first","0","er05ig26","0","31","1","1","1","2","null","","","<div class = 'row'><div class = 'column'><img src = 'uspos/2150.bmp' width = '100%;'></div><div class = 'column'><img src = 'category4/CS8.png' width = '70%;'></div></div>","null","pos","CS","CS","4","category4/CS8.png","","","","",""
"","html-keyboard-response","76","355389","0.0-6.0-6.0-0.7","ua2vg57o79","many_one","0","indirect_first","0","er05ig26","0","31","1","1","1","2","null","","","<div class = 'row'><div class = 'column'><img src = 'category3/CS10.png' width = '70%;'></div><div class = 'column'><img src = 'uspos/2900.2.bmp' width = '100%;'></div></div>","null","pos","CS","CS","3","category3/CS10.png","","","","",""
"","html-keyboard-response","77","357929","0.0-6.0-6.0-0.8","ua2vg57o79","many_one","0","indirect_first","0","er05ig26","0","31","1","1","1","2","null","","","<div class = 'row'><div class = 'column'><img src = 'category1/CS6.png' width = '70%;'></div><div class = 'column'><img src = 'usneg/9342.bmp' width = '100%;'></div></div>","null","neg","CS","CS","1","category1/CS6.png","","","","",""
"","html-keyboard-response","78","360469","0.0-6.0-6.0-0.9","ua2vg57o79","many_one","0","indirect_first","0","er05ig26","0","31","1","1","1","2","null","","","<div class = 'row'><div class = 'column'><img src = 'category2/CS4.png' width = '70%;'></div><div class = 'column'><img src = 'usneg/2205.bmp' width = '100%;'></div></div>","null","neg","CS","CS","2","category2/CS4.png","","","","",""
"","html-keyboard-response","79","363009","0.0-6.0-6.0-0.10","ua2vg57o79","many_one","0","indirect_first","0","er05ig26","0","31","1","1","1","2","null","","","<div class = 'row'><div class = 'column'><img src = 'usneg/9180.bmp' width = '100%;'></div><div class = 'column'><img src = 'category1/CS3.png' width = '70%;'></div></div>","null","neg","CS","CS","1","category1/CS3.png","","","","",""
"","html-keyboard-response","80","365539","0.0-6.0-6.0-0.11","ua2vg57o79","many_one","0","indirect_first","0","er05ig26","0","31","1","1","1","2","null","","","<div class = 'row'><div class = 'column'><img src = 'uspos/8190.bmp' width = '100%;'></div><div class = 'column'><img src = 'category4/CS5.png' width = '70%;'></div></div>","null","pos","CS","CS","4","category4/CS5.png","","","","",""
"","html-keyboard-response","81","368078","0.0-6.0-6.0-0.12","ua2vg57o79","many_one","0","indirect_first","0","er05ig26","0","31","1","1","1","2","null","","","<div class = 'row'><div class = 'column'><img src = 'usneg/2141.bmp' width = '100%;'></div><div class = 'column'><img src = 'category1/CS1.png' width = '70%;'></div></div>","null","neg","CS","CS","1","category1/CS1.png","","","","",""
"","html-keyboard-response","82","370619","0.0-6.0-6.0-0.13","ua2vg57o79","many_one","0","indirect_first","0","er05ig26","0","31","1","1","1","2","null","","","<div class = 'row'><div class = 'column'><img src = 'category2/CS8.png' width = '70%;'></div><div class = 'column'><img src = 'usneg/6570.1.bmp' width = '100%;'></div></div>","null","neg","CS","CS","2","category2/CS8.png","","","","",""
"","html-keyboard-response","83","373138","0.0-6.0-6.0-0.14","ua2vg57o79","many_one","0","indirect_first","0","er05ig26","0","31","1","1","1","2","null","","","<div class = 'row'><div class = 'column'><img src = 'uspos/8540.bmp' width = '100%;'></div><div class = 'column'><img src = 'category3/CS9.png' width = '70%;'></div></div>","null","pos","CS","CS","3","category3/CS9.png","","","","",""
"","html-keyboard-response","84","375668","0.0-6.0-6.0-0.15","ua2vg57o79","many_one","0","indirect_first","0","er05ig26","0","31","1","1","1","2","null","","","<div class = 'row'><div class = 'column'><img src = 'uspos/2030.bmp' width = '100%;'></div><div class = 'column'><img src = 'category4/CS9.png' width = '70%;'></div></div>","null","pos","CS","CS","4","category4/CS9.png","","","","",""
"","html-keyboard-response","85","378209","0.0-6.0-6.0-0.16","ua2vg57o79","many_one","0","indirect_first","0","er05ig26","0","31","1","1","1","2","null","","","<div class = 'row'><div class = 'column'><img src = 'usneg/9181.bmp' width = '100%;'></div><div class = 'column'><img src = 'category2/CS9.png' width = '70%;'></div></div>","null","neg","CS","CS","2","category2/CS9.png","","","","",""
"","html-keyboard-response","86","380739","0.0-6.0-6.0-0.17","ua2vg57o79","many_one","0","indirect_first","0","er05ig26","0","31","1","1","1","2","null","","","<div class = 'row'><div class = 'column'><img src = 'category3/CS5.png' width = '70%;'></div><div class = 'column'><img src = 'uspos/8350.bmp' width = '100%;'></div></div>","null","pos","CS","CS","3","category3/CS5.png","","","","",""
"","html-keyboard-response","87","383280","0.0-6.0-6.0-0.18","ua2vg57o79","many_one","0","indirect_first","0","er05ig26","0","31","1","1","1","2","null","","","<div class = 'row'><div class = 'column'><img src = 'uspos/1463.bmp' width = '100%;'></div><div class = 'column'><img src = 'category3/CS4.png' width = '70%;'></div></div>","null","pos","CS","CS","3","category3/CS4.png","","","","",""
"","html-keyboard-response","88","385819","0.0-6.0-6.0-0.19","ua2vg57o79","many_one","0","indirect_first","0","er05ig26","0","31","1","1","1","2","null","","","<div class = 'row'><div class = 'column'><img src = 'usneg/2900.bmp' width = '100%;'></div><div class = 'column'><img src = 'category2/CS6.png' width = '70%;'></div></div>","null","neg","CS","CS","2","category2/CS6.png","","","","",""
"","html-keyboard-response","89","438343","0.0-7.0","ua2vg57o79","many_one","0","indirect_first","0","er05ig26","0","31","1","1","1","2","52003","","","<p>Sie sehen nun die chinesischen Zeichen nur ganz kurz. Danach sehen Sie die jeweilige Aussprache der Zeichen als Silbe auf dem Bildschrim. Ihre Aufgabe ist es, für jede Silbe anzugeben, ob diese etwas angenehmes, oder unangenehmes bedeuten könnte. Verlassen Sie sich hier vor allem auf Ihre Intuition.<br><br>Die Zeichen werden nur zur Orientierung dargestellt, beachten Sie sie deshalb nicht. Konzentrieren Sie sich vor allem auf die Silben. <br>Reagieren Sie mit folgenden zwei Tasten: <br><br><b>'D' </b> wenn die Silbe etwas <b>unangenehmes</b> bedeuten könnte. <br><b>'K'</b> wenn die Silbe etwas <b>angenehmes</b> bedeuten könnte. <br><br>Bitte legen Sie nun den Zeigefinger der linken Hand auf die Taste 'D' und den Zeigefinger der rechten Hand auf die Taste 'K'. <br>Reagieren Sie auf jede Silbe so schnell wie möglich. Uns interessiert Ihre spontane Reaktion. <br> <br> <br>Drücken Sie 'D' oder 'K', um die nächste Aufgabe zu starten. </p>","68","","","","","","","","","",""
"","html-keyboard-response","90","441378","0.0-8.0-0.0","ua2vg57o79","many_one","0","indirect_first","0","er05ig26","0","31","1","1","1","2","null","","","<div style=""font-size:60px;"">+</div>","null","","","","","","","","","",""
"","html-keyboard-response","91","441478","0.0-8.0-1.0","ua2vg57o79","many_one","0","indirect_first","0","er05ig26","0","31","1","1","1","2","null","","","<img src = 'category2/CS6.png' width = '100%;'>","null","","","","","","","","","",""
"","html-keyboard-response","92","441759","0.0-8.0-2.0","ua2vg57o79","many_one","0","indirect_first","0","er05ig26","0","31","1","1","1","2","null","","","<img src = 'targets/25.png' width = '100%;'>","null","","","","","","","","","",""
"","html-keyboard-response","93","446079","0.0-8.0-3.0","ua2vg57o79","many_one","0","indirect_first","0","er05ig26","0","31","1","1","1","2","4317","","","<img src = 'targets/mask.png' width = '100%;'>","75","neg","CS","CS","2","category2/CS6.png","targets/25.png","1","indirect","0",""
"","html-keyboard-response","94","447599","0.0-8.0-0.1","ua2vg57o79","many_one","0","indirect_first","0","er05ig26","0","31","1","1","1","2","null","","","<div style=""font-size:60px;"">+</div>","null","","","","","","","","","",""
"","html-keyboard-response","95","447699","0.0-8.0-1.1","ua2vg57o79","many_one","0","indirect_first","0","er05ig26","0","31","1","1","1","2","null","","","<img src = 'category3/CS1.png' width = '100%;'>","null","","","","","","","","","",""
"","html-keyboard-response","96","447969","0.0-8.0-2.1","ua2vg57o79","many_one","0","indirect_first","0","er05ig26","0","31","1","1","1","2","null","","","<img src = 'targets/19.png' width = '100%;'>","null","","","","","","","","","",""
"","html-keyboard-response","97","450255","0.0-8.0-3.1","ua2vg57o79","many_one","0","indirect_first","0","er05ig26","0","31","1","1","1","2","2284","","","<img src = 'targets/mask.png' width = '100%;'>","75","pos","CS","CS","3","category3/CS1.png","targets/19.png","1","indirect","1",""
"","html-keyboard-response","98","451767","0.0-8.0-0.2","ua2vg57o79","many_one","0","indirect_first","0","er05ig26","0","31","1","1","1","2","null","","","<div style=""font-size:60px;"">+</div>","null","","","","","","","","","",""
"","html-keyboard-response","99","451868","0.0-8.0-1.2","ua2vg57o79","many_one","0","indirect_first","0","er05ig26","0","31","1","1","1","2","null","","","<img src = 'category1/CS6.png' width = '100%;'>","null","","","","","","","","","",""
"","html-keyboard-response","100","452149","0.0-8.0-2.2","ua2vg57o79","many_one","0","indirect_first","0","er05ig26","0","31","1","1","1","2","null","","","<img src = 'targets/27.png' width = '100%;'>","null","","","","","","","","","",""
"","html-keyboard-response","101","453447","0.0-8.0-3.2","ua2vg57o79","many_one","0","indirect_first","0","er05ig26","0","31","1","1","1","2","1297","","","<img src = 'targets/mask.png' width = '100%;'>","68","neg","CS","CS","1","category1/CS6.png","targets/27.png","0","indirect","2",""
"","html-keyboard-response","102","454968","0.0-8.0-0.3","ua2vg57o79","many_one","0","indirect_first","0","er05ig26","0","31","1","1","1","2","null","","","<div style=""font-size:60px;"">+</div>","null","","","","","","","","","",""
"","html-keyboard-response","103","455068","0.0-8.0-1.3","ua2vg57o79","many_one","0","indirect_first","0","er05ig26","0","31","1","1","1","2","null","","","<img src = 'category3/CS4.png' width = '100%;'>","null","","","","","","","","","",""
"","html-keyboard-response","104","455348","0.0-8.0-2.3","ua2vg57o79","many_one","0","indirect_first","0","er05ig26","0","31","1","1","1","2","null","","","<img src = 'targets/26.png' width = '100%;'>","null","","","","","","","","","",""
"","html-keyboard-response","105","456598","0.0-8.0-3.3","ua2vg57o79","many_one","0","indirect_first","0","er05ig26","0","31","1","1","1","2","1248","","","<img src = 'targets/mask.png' width = '100%;'>","68","pos","CS","CS","3","category3/CS4.png","targets/26.png","0","indirect","3",""
"","html-keyboard-response","106","458138","0.0-8.0-0.4","ua2vg57o79","many_one","0","indirect_first","0","er05ig26","0","31","1","1","1","2","null","","","<div style=""font-size:60px;"">+</div>","null","","","","","","","","","",""
"","html-keyboard-response","107","458238","0.0-8.0-1.4","ua2vg57o79","many_one","0","indirect_first","0","er05ig26","0","31","1","1","1","2","null","","","<img src = 'category2/CS8.png' width = '100%;'>","null","","","","","","","","","",""
"","html-keyboard-response","108","458508","0.0-8.0-2.4","ua2vg57o79","many_one","0","indirect_first","0","er05ig26","0","31","1","1","1","2","null","","","<img src = 'targets/38.png' width = '100%;'>","null","","","","","","","","","",""
"","html-keyboard-response","109","459318","0.0-8.0-3.4","ua2vg57o79","many_one","0","indirect_first","0","er05ig26","0","31","1","1","1","2","808","","","<img src = 'targets/mask.png' width = '100%;'>","68","neg","CS","CS","2","category2/CS8.png","targets/38.png","0","indirect","4",""
"","html-keyboard-response","110","460838","0.0-8.0-0.5","ua2vg57o79","many_one","0","indirect_first","0","er05ig26","0","31","1","1","1","2","null","","","<div style=""font-size:60px;"">+</div>","null","","","","","","","","","",""
"","html-keyboard-response","111","460938","0.0-8.0-1.5","ua2vg57o79","many_one","0","indirect_first","0","er05ig26","0","31","1","1","1","2","null","","","<img src = 'category3/CS2.png' width = '100%;'>","null","","","","","","","","","",""
"","html-keyboard-response","112","461204","0.0-8.0-2.5","ua2vg57o79","many_one","0","indirect_first","0","er05ig26","0","31","1","1","1","2","null","","","<img src = 'targets/30.png' width = '100%;'>","null","","","","","","","","","",""
"","html-keyboard-response","113","462855","0.0-8.0-3.5","ua2vg57o79","many_one","0","indirect_first","0","er05ig26","0","31","1","1","1","2","1649","","","<img src = 'targets/mask.png' width = '100%;'>","75","pos","GS","GSold","3","category3/CS2.png","targets/30.png","1","indirect","5",""
"","html-keyboard-response","114","464388","0.0-8.0-0.6","ua2vg57o79","many_one","0","indirect_first","0","er05ig26","0","31","1","1","1","2","null","","","<div style=""font-size:60px;"">+</div>","null","","","","","","","","","",""
"","html-keyboard-response","115","464488","0.0-8.0-1.6","ua2vg57o79","many_one","0","indirect_first","0","er05ig26","0","31","1","1","1","2","null","","","<img src = 'category1/CS7.png' width = '100%;'>","null","","","","","","","","","",""
"","html-keyboard-response","116","464768","0.0-8.0-2.6","ua2vg57o79","many_one","0","indirect_first","0","er05ig26","0","31","1","1","1","2","null","","","<img src = 'targets/22.png' width = '100%;'>","null","","","","","","","","","",""
"","html-keyboard-response","117","466574","0.0-8.0-3.6","ua2vg57o79","many_one","0","indirect_first","0","er05ig26","0","31","1","1","1","2","1804","","","<img src = 'targets/mask.png' width = '100%;'>","75","neg","CS","CS","1","category1/CS7.png","targets/22.png","1","indirect","6",""
"","html-keyboard-response","118","468108","0.0-8.0-0.7","ua2vg57o79","many_one","0","indirect_first","0","er05ig26","0","31","1","1","1","2","null","","","<div style=""font-size:60px;"">+</div>","null","","","","","","","","","",""
"","html-keyboard-response","119","468209","0.0-8.0-1.7","ua2vg57o79","many_one","0","indirect_first","0","er05ig26","0","31","1","1","1","2","null","","","<img src = 'category1/CS1.png' width = '100%;'>","null","","","","","","","","","",""
"","html-keyboard-response","120","468488","0.0-8.0-2.7","ua2vg57o79","many_one","0","indirect_first","0","er05ig26","0","31","1","1","1","2","null","","","<img src = 'targets/4.png' width = '100%;'>","null","","","","","","","","","",""
"","html-keyboard-response","121","469414","0.0-8.0-3.7","ua2vg57o79","many_one","0","indirect_first","0","er05ig26","0","31","1","1","1","2","924","","","<img src = 'targets/mask.png' width = '100%;'>","68","neg","CS","CS","1","category1/CS1.png","targets/4.png","0","indirect","7",""
"","html-keyboard-response","122","470928","0.0-8.0-0.8","ua2vg57o79","many_one","0","indirect_first","0","er05ig26","0","31","1","1","1","2","null","","","<div style=""font-size:60px;"">+</div>","null","","","","","","","","","",""
"","html-keyboard-response","123","471028","0.0-8.0-1.8","ua2vg57o79","many_one","0","indirect_first","0","er05ig26","0","31","1","1","1","2","null","","","<img src = 'category4/CS8.png' width = '100%;'>","null","","","","","","","","","",""
"","html-keyboard-response","124","471308","0.0-8.0-2.8","ua2vg57o79","many_one","0","indirect_first","0","er05ig26","0","31","1","1","1","2","null","","","<img src = 'targets/17.png' width = '100%;'>","null","","","","","","","","","",""
"","html-keyboard-response","125","472605","0.0-8.0-3.8","ua2vg57o79","many_one","0","indirect_first","0","er05ig26","0","31","1","1","1","2","1296","","","<img src = 'targets/mask.png' width = '100%;'>","68","pos","CS","CS","4","category4/CS8.png","targets/17.png","0","indirect","8",""
"","html-keyboard-response","126","474127","0.0-8.0-0.9","ua2vg57o79","many_one","0","indirect_first","0","er05ig26","0","31","1","1","1","2","null","","","<div style=""font-size:60px;"">+</div>","null","","","","","","","","","",""
"","html-keyboard-response","127","474228","0.0-8.0-1.9","ua2vg57o79","many_one","0","indirect_first","0","er05ig26","0","31","1","1","1","2","null","","","<img src = 'category1/CS10.png' width = '100%;'>","null","","","","","","","","","",""
"","html-keyboard-response","128","474498","0.0-8.0-2.9","ua2vg57o79","many_one","0","indirect_first","0","er05ig26","0","31","1","1","1","2","null","","","<img src = 'targets/46.png' width = '100%;'>","null","","","","","","","","","",""
"","html-keyboard-response","129","475750","0.0-8.0-3.9","ua2vg57o79","many_one","0","indirect_first","0","er05ig26","0","31","1","1","1","2","1251","","","<img src = 'targets/mask.png' width = '100%;'>","75","neg","GS","GSold","1","category1/CS10.png","targets/46.png","1","indirect","9",""
"","html-keyboard-response","130","477277","0.0-8.0-0.10","ua2vg57o79","many_one","0","indirect_first","0","er05ig26","0","31","1","1","1","2","null","","","<div style=""font-size:60px;"">+</div>","null","","","","","","","","","",""
"","html-keyboard-response","131","477378","0.0-8.0-1.10","ua2vg57o79","many_one","0","indirect_first","0","er05ig26","0","31","1","1","1","2","null","","","<img src = 'category1/CS8.png' width = '100%;'>","null","","","","","","","","","",""
"","html-keyboard-response","132","477658","0.0-8.0-2.10","ua2vg57o79","many_one","0","indirect_first","0","er05ig26","0","31","1","1","1","2","null","","","<img src = 'targets/40.png' width = '100%;'>","null","","","","","","","","","",""
"","html-keyboard-response","133","479294","0.0-8.0-3.10","ua2vg57o79","many_one","0","indirect_first","0","er05ig26","0","31","1","1","1","2","1634","","","<img src = 'targets/mask.png' width = '100%;'>","68","neg","CS","CS","1","category1/CS8.png","targets/40.png","0","indirect","10",""
"","html-keyboard-response","134","480807","0.0-8.0-0.11","ua2vg57o79","many_one","0","indirect_first","0","er05ig26","0","31","1","1","1","2","null","","","<div style=""font-size:60px;"">+</div>","null","","","","","","","","","",""
"","html-keyboard-response","135","480908","0.0-8.0-1.11","ua2vg57o79","many_one","0","indirect_first","0","er05ig26","0","31","1","1","1","2","null","","","<img src = 'category1/CS2.png' width = '100%;'>","null","","","","","","","","","",""
"","html-keyboard-response","136","481187","0.0-8.0-2.11","ua2vg57o79","many_one","0","indirect_first","0","er05ig26","0","31","1","1","1","2","null","","","<img src = 'targets/41.png' width = '100%;'>","null","","","","","","","","","",""
"","html-keyboard-response","137","482398","0.0-8.0-3.11","ua2vg57o79","many_one","0","indirect_first","0","er05ig26","0","31","1","1","1","2","1210","","","<img src = 'targets/mask.png' width = '100%;'>","75","neg","GS","GSold","1","category1/CS2.png","targets/41.png","1","indirect","11",""
"","html-keyboard-response","138","483928","0.0-8.0-0.12","ua2vg57o79","many_one","0","indirect_first","0","er05ig26","0","31","1","1","1","2","null","","","<div style=""font-size:60px;"">+</div>","null","","","","","","","","","",""
"","html-keyboard-response","139","484028","0.0-8.0-1.12","ua2vg57o79","many_one","0","indirect_first","0","er05ig26","0","31","1","1","1","2","null","","","<img src = 'category1/CS3.png' width = '100%;'>","null","","","","","","","","","",""
"","html-keyboard-response","140","484308","0.0-8.0-2.12","ua2vg57o79","many_one","0","indirect_first","0","er05ig26","0","31","1","1","1","2","null","","","<img src = 'targets/10.png' width = '100%;'>","null","","","","","","","","","",""
"","html-keyboard-response","141","485661","0.0-8.0-3.12","ua2vg57o79","many_one","0","indirect_first","0","er05ig26","0","31","1","1","1","2","1353","","","<img src = 'targets/mask.png' width = '100%;'>","68","neg","CS","CS","1","category1/CS3.png","targets/10.png","0","indirect","12",""
"","html-keyboard-response","142","487168","0.0-8.0-0.13","ua2vg57o79","many_one","0","indirect_first","0","er05ig26","0","31","1","1","1","2","null","","","<div style=""font-size:60px;"">+</div>","null","","","","","","","","","",""
"","html-keyboard-response","143","487267","0.0-8.0-1.13","ua2vg57o79","many_one","0","indirect_first","0","er05ig26","0","31","1","1","1","2","null","","","<img src = 'category4/CS4.png' width = '100%;'>","null","","","","","","","","","",""
"","html-keyboard-response","144","487547","0.0-8.0-2.13","ua2vg57o79","many_one","0","indirect_first","0","er05ig26","0","31","1","1","1","2","null","","","<img src = 'targets/23.png' width = '100%;'>","null","","","","","","","","","",""
"","html-keyboard-response","145","489221","0.0-8.0-3.13","ua2vg57o79","many_one","0","indirect_first","0","er05ig26","0","31","1","1","1","2","1672","","","<img src = 'targets/mask.png' width = '100%;'>","75","pos","CS","CS","4","category4/CS4.png","targets/23.png","1","indirect","13",""
"","html-keyboard-response","146","490748","0.0-8.0-0.14","ua2vg57o79","many_one","0","indirect_first","0","er05ig26","0","31","1","1","1","2","null","","","<div style=""font-size:60px;"">+</div>","null","","","","","","","","","",""
"","html-keyboard-response","147","490847","0.0-8.0-1.14","ua2vg57o79","many_one","0","indirect_first","0","er05ig26","0","31","1","1","1","2","null","","","<img src = 'category1/CS5.png' width = '100%;'>","null","","","","","","","","","",""
"","html-keyboard-response","148","491128","0.0-8.0-2.14","ua2vg57o79","many_one","0","indirect_first","0","er05ig26","0","31","1","1","1","2","null","","","<img src = 'targets/9.png' width = '100%;'>","null","","","","","","","","","",""
"","html-keyboard-response","149","492581","0.0-8.0-3.14","ua2vg57o79","many_one","0","indirect_first","0","er05ig26","0","31","1","1","1","2","1452","","","<img src = 'targets/mask.png' width = '100%;'>","75","neg","GS","GSold","1","category1/CS5.png","targets/9.png","1","indirect","14",""
"","html-keyboard-response","150","494107","0.0-8.0-0.15","ua2vg57o79","many_one","0","indirect_first","0","er05ig26","0","31","1","1","1","2","null","","","<div style=""font-size:60px;"">+</div>","null","","","","","","","","","",""
"","html-keyboard-response","151","494207","0.0-8.0-1.15","ua2vg57o79","many_one","0","indirect_first","0","er05ig26","0","31","1","1","1","2","null","","","<img src = 'category3/CS5.png' width = '100%;'>","null","","","","","","","","","",""
"","html-keyboard-response","152","494477","0.0-8.0-2.15","ua2vg57o79","many_one","0","indirect_first","0","er05ig26","0","31","1","1","1","2","null","","","<img src = 'targets/21.png' width = '100%;'>","null","","","","","","","","","",""
"","html-keyboard-response","153","496021","0.0-8.0-3.15","ua2vg57o79","many_one","0","indirect_first","0","er05ig26","0","31","1","1","1","2","1542","","","<img src = 'targets/mask.png' width = '100%;'>","68","pos","CS","CS","3","category3/CS5.png","targets/21.png","0","indirect","15",""
"","html-keyboard-response","154","497537","0.0-8.0-0.16","ua2vg57o79","many_one","0","indirect_first","0","er05ig26","0","31","1","1","1","2","null","","","<div style=""font-size:60px;"">+</div>","null","","","","","","","","","",""
"","html-keyboard-response","155","497637","0.0-8.0-1.16","ua2vg57o79","many_one","0","indirect_first","0","er05ig26","0","31","1","1","1","2","null","","","<img src = 'category2/CS4.png' width = '100%;'>","null","","","","","","","","","",""
"","html-keyboard-response","156","497917","0.0-8.0-2.16","ua2vg57o79","many_one","0","indirect_first","0","er05ig26","0","31","1","1","1","2","null","","","<img src = 'targets/35.png' width = '100%;'>","null","","","","","","","","","",""
"","html-keyboard-response","157","499317","0.0-8.0-3.16","ua2vg57o79","many_one","0","indirect_first","0","er05ig26","0","31","1","1","1","2","1398","","","<img src = 'targets/mask.png' width = '100%;'>","75","neg","CS","CS","2","category2/CS4.png","targets/35.png","1","indirect","16",""
"","html-keyboard-response","158","500838","0.0-8.0-0.17","ua2vg57o79","many_one","0","indirect_first","0","er05ig26","0","31","1","1","1","2","null","","","<div style=""font-size:60px;"">+</div>","null","","","","","","","","","",""
"","html-keyboard-response","159","500937","0.0-8.0-1.17","ua2vg57o79","many_one","0","indirect_first","0","er05ig26","0","31","1","1","1","2","null","","","<img src = 'category4/CS9.png' width = '100%;'>","null","","","","","","","","","",""
"","html-keyboard-response","160","501218","0.0-8.0-2.17","ua2vg57o79","many_one","0","indirect_first","0","er05ig26","0","31","1","1","1","2","null","","","<img src = 'targets/36.png' width = '100%;'>","null","","","","","","","","","",""
"","html-keyboard-response","161","502221","0.0-8.0-3.17","ua2vg57o79","many_one","0","indirect_first","0","er05ig26","0","31","1","1","1","2","1002","","","<img src = 'targets/mask.png' width = '100%;'>","68","pos","CS","CS","4","category4/CS9.png","targets/36.png","0","indirect","17",""
"","html-keyboard-response","162","503757","0.0-8.0-0.18","ua2vg57o79","many_one","0","indirect_first","0","er05ig26","0","31","1","1","1","2","null","","","<div style=""font-size:60px;"">+</div>","null","","","","","","","","","",""
"","html-keyboard-response","163","503858","0.0-8.0-1.18","ua2vg57o79","many_one","0","indirect_first","0","er05ig26","0","31","1","1","1","2","null","","","<img src = 'category4/CS10.png' width = '100%;'>","null","","","","","","","","","",""
"","html-keyboard-response","164","504138","0.0-8.0-2.18","ua2vg57o79","many_one","0","indirect_first","0","er05ig26","0","31","1","1","1","2","null","","","<img src = 'targets/20.png' width = '100%;'>","null","","","","","","","","","",""
"","html-keyboard-response","165","505229","0.0-8.0-3.18","ua2vg57o79","many_one","0","indirect_first","0","er05ig26","0","31","1","1","1","2","1091","","","<img src = 'targets/mask.png' width = '100%;'>","68","pos","CS","CS","4","category4/CS10.png","targets/20.png","0","indirect","18",""
"","html-keyboard-response","166","506757","0.0-8.0-0.19","ua2vg57o79","many_one","0","indirect_first","0","er05ig26","0","31","1","1","1","2","null","","","<div style=""font-size:60px;"">+</div>","null","","","","","","","","","",""
"","html-keyboard-response","167","506857","0.0-8.0-1.19","ua2vg57o79","many_one","0","indirect_first","0","er05ig26","0","31","1","1","1","2","null","","","<img src = 'category3/CS10.png' width = '100%;'>","null","","","","","","","","","",""
"","html-keyboard-response","168","507137","0.0-8.0-2.19","ua2vg57o79","many_one","0","indirect_first","0","er05ig26","0","31","1","1","1","2","null","","","<img src = 'targets/7.png' width = '100%;'>","null","","","","","","","","","",""
"","html-keyboard-response","169","508157","0.0-8.0-3.19","ua2vg57o79","many_one","0","indirect_first","0","er05ig26","0","31","1","1","1","2","1018","","","<img src = 'targets/mask.png' width = '100%;'>","75","pos","CS","CS","3","category3/CS10.png","targets/7.png","1","indirect","19",""
"","html-keyboard-response","170","509677","0.0-8.0-0.20","ua2vg57o79","many_one","0","indirect_first","0","er05ig26","0","31","1","1","1","2","null","","","<div style=""font-size:60px;"">+</div>","null","","","","","","","","","",""
"","html-keyboard-response","171","509777","0.0-8.0-1.20","ua2vg57o79","many_one","0","indirect_first","0","er05ig26","0","31","1","1","1","2","null","","","<img src = 'category2/CS9.png' width = '100%;'>","null","","","","","","","","","",""
"","html-keyboard-response","172","510058","0.0-8.0-2.20","ua2vg57o79","many_one","0","indirect_first","0","er05ig26","0","31","1","1","1","2","null","","","<img src = 'targets/47.png' width = '100%;'>","null","","","","","","","","","",""
"","html-keyboard-response","173","510821","0.0-8.0-3.20","ua2vg57o79","many_one","0","indirect_first","0","er05ig26","0","31","1","1","1","2","763","","","<img src = 'targets/mask.png' width = '100%;'>","75","neg","CS","CS","2","category2/CS9.png","targets/47.png","1","indirect","20",""
"","html-keyboard-response","174","512357","0.0-8.0-0.21","ua2vg57o79","many_one","0","indirect_first","0","er05ig26","0","31","1","1","1","2","null","","","<div style=""font-size:60px;"">+</div>","null","","","","","","","","","",""
"","html-keyboard-response","175","512457","0.0-8.0-1.21","ua2vg57o79","many_one","0","indirect_first","0","er05ig26","0","31","1","1","1","2","null","","","<img src = 'category4/CS5.png' width = '100%;'>","null","","","","","","","","","",""
"","html-keyboard-response","176","512736","0.0-8.0-2.21","ua2vg57o79","many_one","0","indirect_first","0","er05ig26","0","31","1","1","1","2","null","","","<img src = 'targets/12.png' width = '100%;'>","null","","","","","","","","","",""
"","html-keyboard-response","177","513796","0.0-8.0-3.21","ua2vg57o79","many_one","0","indirect_first","0","er05ig26","0","31","1","1","1","2","1059","","","<img src = 'targets/mask.png' width = '100%;'>","68","pos","CS","CS","4","category4/CS5.png","targets/12.png","0","indirect","21",""
"","html-keyboard-response","178","515307","0.0-8.0-0.22","ua2vg57o79","many_one","0","indirect_first","0","er05ig26","0","31","1","1","1","2","null","","","<div style=""font-size:60px;"">+</div>","null","","","","","","","","","",""
"","html-keyboard-response","179","515407","0.0-8.0-1.22","ua2vg57o79","many_one","0","indirect_first","0","er05ig26","0","31","1","1","1","2","null","","","<img src = 'category3/CS9.png' width = '100%;'>","null","","","","","","","","","",""
"","html-keyboard-response","180","515686","0.0-8.0-2.22","ua2vg57o79","many_one","0","indirect_first","0","er05ig26","0","31","1","1","1","2","null","","","<img src = 'targets/6.png' width = '100%;'>","null","","","","","","","","","",""
"","html-keyboard-response","181","517205","0.0-8.0-3.22","ua2vg57o79","many_one","0","indirect_first","0","er05ig26","0","31","1","1","1","2","1517","","","<img src = 'targets/mask.png' width = '100%;'>","75","pos","CS","CS","3","category3/CS9.png","targets/6.png","1","indirect","22",""
"","html-keyboard-response","182","518726","0.0-8.0-0.23","ua2vg57o79","many_one","0","indirect_first","0","er05ig26","0","31","1","1","1","2","null","","","<div style=""font-size:60px;"">+</div>","null","","","","","","","","","",""
"","html-keyboard-response","183","518827","0.0-8.0-1.23","ua2vg57o79","many_one","0","indirect_first","0","er05ig26","0","31","1","1","1","2","null","","","<img src = 'category2/CS5.png' width = '100%;'>","null","","","","","","","","","",""
"","html-keyboard-response","184","519086","0.0-8.0-2.23","ua2vg57o79","many_one","0","indirect_first","0","er05ig26","0","31","1","1","1","2","null","","","<img src = 'targets/3.png' width = '100%;'>","null","","","","","","","","","",""
"","html-keyboard-response","185","520253","0.0-8.0-3.23","ua2vg57o79","many_one","0","indirect_first","0","er05ig26","0","31","1","1","1","2","1165","","","<img src = 'targets/mask.png' width = '100%;'>","68","neg","CS","CS","2","category2/CS5.png","targets/3.png","0","indirect","23",""
"","survey-html-form","186","524668","0.0-9.0","ua2vg57o79","many_one","0","indirect_first","0","er05ig26","0","31","1","1","1","2","3902","","{}","","","","","","","","","","","",""
"","html-keyboard-response","187","527697","0.0-10.0-0.0","ua2vg57o79","many_one","0","indirect_first","0","er05ig26","0","31","1","1","1","2","null","","","<div style=""font-size:60px;"">+</div>","null","","","","","","","","","",""
"","html-keyboard-response","188","527807","0.0-10.0-1.0","ua2vg57o79","many_one","0","indirect_first","0","er05ig26","0","31","1","1","1","2","null","","","<img src = 'category2/GS1.png' width = '100%;'>","null","","","","","","","","","",""
"","html-keyboard-response","189","528086","0.0-10.0-2.0","ua2vg57o79","many_one","0","indirect_first","0","er05ig26","0","31","1","1","1","2","null","","","<img src = 'targets/48.png' width = '100%;'>","null","","","","","","","","","",""
"","html-keyboard-response","190","529604","0.0-10.0-3.0","ua2vg57o79","many_one","0","indirect_first","0","er05ig26","0","31","1","1","1","2","1517","","","<img src = 'targets/mask.png' width = '100%;'>","75","neg","GS","GSnew","2","category2/GS1.png","targets/48.png","1","indirect","24",""
"","html-keyboard-response","191","531106","0.0-10.0-0.1","ua2vg57o79","many_one","0","indirect_first","0","er05ig26","0","31","1","1","1","2","null","","","<div style=""font-size:60px;"">+</div>","null","","","","","","","","","",""
"","html-keyboard-response","192","531206","0.0-10.0-1.1","ua2vg57o79","many_one","0","indirect_first","0","er05ig26","0","31","1","1","1","2","null","","","<img src = 'category4/lin.png' width = '100%;'>","null","","","","","","","","","",""
"","html-keyboard-response","193","531487","0.0-10.0-2.1","ua2vg57o79","many_one","0","indirect_first","0","er05ig26","0","31","1","1","1","2","null","","","<img src = 'targets/5.png' width = '100%;'>","null","","","","","","","","","",""
"","html-keyboard-response","194","532564","0.0-10.0-3.1","ua2vg57o79","many_one","0","indirect_first","0","er05ig26","0","31","1","1","1","2","1076","","","<img src = 'targets/mask.png' width = '100%;'>","68","pos","GS","abstract","4","category4/lin.png","targets/5.png","0","indirect","25",""
"","html-keyboard-response","195","534086","0.0-10.0-0.2","ua2vg57o79","many_one","0","indirect_first","0","er05ig26","0","31","1","1","1","2","null","","","<div style=""font-size:60px;"">+</div>","null","","","","","","","","","",""
"","html-keyboard-response","196","534186","0.0-10.0-1.2","ua2vg57o79","many_one","0","indirect_first","0","er05ig26","0","31","1","1","1","2","null","","","<img src = 'category2/men.png' width = '100%;'>","null","","","","","","","","","",""
"","html-keyboard-response","197","534446","0.0-10.0-2.2","ua2vg57o79","many_one","0","indirect_first","0","er05ig26","0","31","1","1","1","2","null","","","<img src = 'targets/18.png' width = '100%;'>","null","","","","","","","","","",""
"","html-keyboard-response","198","535164","0.0-10.0-3.2","ua2vg57o79","many_one","0","indirect_first","0","er05ig26","0","31","1","1","1","2","716","","","<img src = 'targets/mask.png' width = '100%;'>","68","neg","GS","abstract","2","category2/men.png","targets/18.png","0","indirect","26",""
"","html-keyboard-response","199","536686","0.0-10.0-0.3","ua2vg57o79","many_one","0","indirect_first","0","er05ig26","0","31","1","1","1","2","null","","","<div style=""font-size:60px;"">+</div>","null","","","","","","","","","",""
"","html-keyboard-response","200","536786","0.0-10.0-1.3","ua2vg57o79","many_one","0","indirect_first","0","er05ig26","0","31","1","1","1","2","null","","","<img src = 'category2/CS1.png' width = '100%;'>","null","","","","","","","","","",""
"","html-keyboard-response","201","537066","0.0-10.0-2.3","ua2vg57o79","many_one","0","indirect_first","0","er05ig26","0","31","1","1","1","2","null","","","<img src = 'targets/45.png' width = '100%;'>","null","","","","","","","","","",""
"","html-keyboard-response","202","537868","0.0-10.0-3.3","ua2vg57o79","many_one","0","indirect_first","0","er05ig26","0","31","1","1","1","2","800","","","<img src = 'targets/mask.png' width = '100%;'>","75","neg","GS","GSold","2","category2/CS1.png","targets/45.png","1","indirect","27",""
"","html-keyboard-response","203","539406","0.0-10.0-0.4","ua2vg57o79","many_one","0","indirect_first","0","er05ig26","0","31","1","1","1","2","null","","","<div style=""font-size:60px;"">+</div>","null","","","","","","","","","",""
"","html-keyboard-response","204","539506","0.0-10.0-1.4","ua2vg57o79","many_one","0","indirect_first","0","er05ig26","0","31","1","1","1","2","null","","","<img src = 'category4/GS2.png' width = '100%;'>","null","","","","","","","","","",""
"","html-keyboard-response","205","539786","0.0-10.0-2.4","ua2vg57o79","many_one","0","indirect_first","0","er05ig26","0","31","1","1","1","2","null","","","<img src = 'targets/32.png' width = '100%;'>","null","","","","","","","","","",""
"","html-keyboard-response","206","540532","0.0-10.0-3.4","ua2vg57o79","many_one","0","indirect_first","0","er05ig26","0","31","1","1","1","2","744","","","<img src = 'targets/mask.png' width = '100%;'>","68","pos","GS","GSnew","4","category4/GS2.png","targets/32.png","0","indirect","28",""
"","html-keyboard-response","207","542066","0.0-10.0-0.5","ua2vg57o79","many_one","0","indirect_first","0","er05ig26","0","31","1","1","1","2","null","","","<div style=""font-size:60px;"">+</div>","null","","","","","","","","","",""
"","html-keyboard-response","208","542166","0.0-10.0-1.5","ua2vg57o79","many_one","0","indirect_first","0","er05ig26","0","31","1","1","1","2","null","","","<img src = 'category1/ma.png' width = '100%;'>","null","","","","","","","","","",""
"","html-keyboard-response","209","542445","0.0-10.0-2.5","ua2vg57o79","many_one","0","indirect_first","0","er05ig26","0","31","1","1","1","2","null","","","<img src = 'targets/15.png' width = '100%;'>","null","","","","","","","","","",""
"","html-keyboard-response","210","543356","0.0-10.0-3.5","ua2vg57o79","many_one","0","indirect_first","0","er05ig26","0","31","1","1","1","2","909","","","<img src = 'targets/mask.png' width = '100%;'>","75","neg","GS","abstract","1","category1/ma.png","targets/15.png","1","indirect","29",""
"","html-keyboard-response","211","544885","0.0-10.0-0.6","ua2vg57o79","many_one","0","indirect_first","0","er05ig26","0","31","1","1","1","2","null","","","<div style=""font-size:60px;"">+</div>","null","","","","","","","","","",""
"","html-keyboard-response","212","544986","0.0-10.0-1.6","ua2vg57o79","many_one","0","indirect_first","0","er05ig26","0","31","1","1","1","2","null","","","<img src = 'category3/GS3.png' width = '100%;'>","null","","","","","","","","","",""
"","html-keyboard-response","213","545266","0.0-10.0-2.6","ua2vg57o79","many_one","0","indirect_first","0","er05ig26","0","31","1","1","1","2","null","","","<img src = 'targets/28.png' width = '100%;'>","null","","","","","","","","","",""
"","html-keyboard-response","214","545940","0.0-10.0-3.6","ua2vg57o79","many_one","0","indirect_first","0","er05ig26","0","31","1","1","1","2","672","","","<img src = 'targets/mask.png' width = '100%;'>","68","pos","GS","GSnew","3","category3/GS3.png","targets/28.png","0","indirect","30",""
"","html-keyboard-response","215","547465","0.0-10.0-0.7","ua2vg57o79","many_one","0","indirect_first","0","er05ig26","0","31","1","1","1","2","null","","","<div style=""font-size:60px;"">+</div>","null","","","","","","","","","",""
"","html-keyboard-response","216","547566","0.0-10.0-1.7","ua2vg57o79","many_one","0","indirect_first","0","er05ig26","0","31","1","1","1","2","null","","","<img src = 'category3/GS2.png' width = '100%;'>","null","","","","","","","","","",""
"","html-keyboard-response","217","547846","0.0-10.0-2.7","ua2vg57o79","many_one","0","indirect_first","0","er05ig26","0","31","1","1","1","2","null","","","<img src = 'targets/37.png' width = '100%;'>","null","","","","","","","","","",""
"","html-keyboard-response","218","548932","0.0-10.0-3.7","ua2vg57o79","many_one","0","indirect_first","0","er05ig26","0","31","1","1","1","2","1085","","","<img src = 'targets/mask.png' width = '100%;'>","68","pos","GS","GSnew","3","category3/GS2.png","targets/37.png","0","indirect","31",""
"","html-keyboard-response","219","550466","0.0-10.0-0.8","ua2vg57o79","many_one","0","indirect_first","0","er05ig26","0","31","1","1","1","2","null","","","<div style=""font-size:60px;"">+</div>","null","","","","","","","","","",""
"","html-keyboard-response","220","550566","0.0-10.0-1.8","ua2vg57o79","many_one","0","indirect_first","0","er05ig26","0","31","1","1","1","2","null","","","<img src = 'category1/GS2.png' width = '100%;'>","null","","","","","","","","","",""
"","html-keyboard-response","221","550846","0.0-10.0-2.8","ua2vg57o79","many_one","0","indirect_first","0","er05ig26","0","31","1","1","1","2","null","","","<img src = 'targets/24.png' width = '100%;'>","null","","","","","","","","","",""
"","html-keyboard-response","222","551844","0.0-10.0-3.8","ua2vg57o79","many_one","0","indirect_first","0","er05ig26","0","31","1","1","1","2","996","","","<img src = 'targets/mask.png' width = '100%;'>","68","neg","GS","GSnew","1","category1/GS2.png","targets/24.png","0","indirect","32",""
"","html-keyboard-response","223","553385","0.0-10.0-0.9","ua2vg57o79","many_one","0","indirect_first","0","er05ig26","0","31","1","1","1","2","null","","","<div style=""font-size:60px;"">+</div>","null","","","","","","","","","",""
"","html-keyboard-response","224","553486","0.0-10.0-1.9","ua2vg57o79","many_one","0","indirect_first","0","er05ig26","0","31","1","1","1","2","null","","","<img src = 'category1/GS1.png' width = '100%;'>","null","","","","","","","","","",""
"","html-keyboard-response","225","553756","0.0-10.0-2.9","ua2vg57o79","many_one","0","indirect_first","0","er05ig26","0","31","1","1","1","2","null","","","<img src = 'targets/8.png' width = '100%;'>","null","","","","","","","","","",""
"","html-keyboard-response","226","554524","0.0-10.0-3.9","ua2vg57o79","many_one","0","indirect_first","0","er05ig26","0","31","1","1","1","2","766","","","<img src = 'targets/mask.png' width = '100%;'>","75","neg","GS","GSnew","1","category1/GS1.png","targets/8.png","1","indirect","33",""
"","html-keyboard-response","227","556045","0.0-10.0-0.10","ua2vg57o79","many_one","0","indirect_first","0","er05ig26","0","31","1","1","1","2","null","","","<div style=""font-size:60px;"">+</div>","null","","","","","","","","","",""
"","html-keyboard-response","228","556145","0.0-10.0-1.10","ua2vg57o79","many_one","0","indirect_first","0","er05ig26","0","31","1","1","1","2","null","","","<img src = 'category4/CS3.png' width = '100%;'>","null","","","","","","","","","",""
"","html-keyboard-response","229","556426","0.0-10.0-2.10","ua2vg57o79","many_one","0","indirect_first","0","er05ig26","0","31","1","1","1","2","null","","","<img src = 'targets/44.png' width = '100%;'>","null","","","","","","","","","",""
"","html-keyboard-response","230","557099","0.0-10.0-3.10","ua2vg57o79","many_one","0","indirect_first","0","er05ig26","0","31","1","1","1","2","672","","","<img src = 'targets/mask.png' width = '100%;'>","75","pos","GS","GSold","4","category4/CS3.png","targets/44.png","1","indirect","34",""
"","html-keyboard-response","231","558605","0.0-10.0-0.11","ua2vg57o79","many_one","0","indirect_first","0","er05ig26","0","31","1","1","1","2","null","","","<div style=""font-size:60px;"">+</div>","null","","","","","","","","","",""
"","html-keyboard-response","232","558705","0.0-10.0-1.11","ua2vg57o79","many_one","0","indirect_first","0","er05ig26","0","31","1","1","1","2","null","","","<img src = 'category2/GS3.png' width = '100%;'>","null","","","","","","","","","",""
"","html-keyboard-response","233","558976","0.0-10.0-2.11","ua2vg57o79","many_one","0","indirect_first","0","er05ig26","0","31","1","1","1","2","null","","","<img src = 'targets/39.png' width = '100%;'>","null","","","","","","","","","",""
"","html-keyboard-response","234","559755","0.0-10.0-3.11","ua2vg57o79","many_one","0","indirect_first","0","er05ig26","0","31","1","1","1","2","779","","","<img src = 'targets/mask.png' width = '100%;'>","75","neg","GS","GSnew","2","category2/GS3.png","targets/39.png","1","indirect","35",""
"","html-keyboard-response","235","561285","0.0-10.0-0.12","ua2vg57o79","many_one","0","indirect_first","0","er05ig26","0","31","1","1","1","2","null","","","<div style=""font-size:60px;"">+</div>","null","","","","","","","","","",""
"","html-keyboard-response","236","561385","0.0-10.0-1.12","ua2vg57o79","many_one","0","indirect_first","0","er05ig26","0","31","1","1","1","2","null","","","<img src = 'category4/GS3.png' width = '100%;'>","null","","","","","","","","","",""
"","html-keyboard-response","237","561666","0.0-10.0-2.12","ua2vg57o79","many_one","0","indirect_first","0","er05ig26","0","31","1","1","1","2","null","","","<img src = 'targets/31.png' width = '100%;'>","null","","","","","","","","","",""
"","html-keyboard-response","238","562715","0.0-10.0-3.12","ua2vg57o79","many_one","0","indirect_first","0","er05ig26","0","31","1","1","1","2","1048","","","<img src = 'targets/mask.png' width = '100%;'>","68","pos","GS","GSnew","4","category4/GS3.png","targets/31.png","0","indirect","36",""
"","html-keyboard-response","239","564245","0.0-10.0-0.13","ua2vg57o79","many_one","0","indirect_first","0","er05ig26","0","31","1","1","1","2","null","","","<div style=""font-size:60px;"">+</div>","null","","","","","","","","","",""
"","html-keyboard-response","240","564345","0.0-10.0-1.13","ua2vg57o79","many_one","0","indirect_first","0","er05ig26","0","31","1","1","1","2","null","","","<img src = 'category2/CS3.png' width = '100%;'>","null","","","","","","","","","",""
"","html-keyboard-response","241","564625","0.0-10.0-2.13","ua2vg57o79","many_one","0","indirect_first","0","er05ig26","0","31","1","1","1","2","null","","","<img src = 'targets/13.png' width = '100%;'>","null","","","","","","","","","",""
"","html-keyboard-response","242","565539","0.0-10.0-3.13","ua2vg57o79","many_one","0","indirect_first","0","er05ig26","0","31","1","1","1","2","913","","","<img src = 'targets/mask.png' width = '100%;'>","75","neg","GS","GSold","2","category2/CS3.png","targets/13.png","1","indirect","37",""
"","html-keyboard-response","243","567065","0.0-10.0-0.14","ua2vg57o79","many_one","0","indirect_first","0","er05ig26","0","31","1","1","1","2","null","","","<div style=""font-size:60px;"">+</div>","null","","","","","","","","","",""
"","html-keyboard-response","244","567165","0.0-10.0-1.14","ua2vg57o79","many_one","0","indirect_first","0","er05ig26","0","31","1","1","1","2","null","","","<img src = 'category4/CS7.png' width = '100%;'>","null","","","","","","","","","",""
"","html-keyboard-response","245","567445","0.0-10.0-2.14","ua2vg57o79","many_one","0","indirect_first","0","er05ig26","0","31","1","1","1","2","null","","","<img src = 'targets/2.png' width = '100%;'>","null","","","","","","","","","",""
"","html-keyboard-response","246","568707","0.0-10.0-3.14","ua2vg57o79","many_one","0","indirect_first","0","er05ig26","0","31","1","1","1","2","1260","","","<img src = 'targets/mask.png' width = '100%;'>","75","pos","GS","GSold","4","category4/CS7.png","targets/2.png","1","indirect","38",""
"","html-keyboard-response","247","570245","0.0-10.0-0.15","ua2vg57o79","many_one","0","indirect_first","0","er05ig26","0","31","1","1","1","2","null","","","<div style=""font-size:60px;"">+</div>","null","","","","","","","","","",""
"","html-keyboard-response","248","570345","0.0-10.0-1.15","ua2vg57o79","many_one","0","indirect_first","0","er05ig26","0","31","1","1","1","2","null","","","<img src = 'category4/CS6.png' width = '100%;'>","null","","","","","","","","","",""
"","html-keyboard-response","249","570625","0.0-10.0-2.15","ua2vg57o79","many_one","0","indirect_first","0","er05ig26","0","31","1","1","1","2","null","","","<img src = 'targets/42.png' width = '100%;'>","null","","","","","","","","","",""
"","html-keyboard-response","250","571891","0.0-10.0-3.15","ua2vg57o79","many_one","0","indirect_first","0","er05ig26","0","31","1","1","1","2","1265","","","<img src = 'targets/mask.png' width = '100%;'>","75","pos","GS","GSold","4","category4/CS6.png","targets/42.png","1","indirect","39",""
"","html-keyboard-response","251","573414","0.0-10.0-0.16","ua2vg57o79","many_one","0","indirect_first","0","er05ig26","0","31","1","1","1","2","null","","","<div style=""font-size:60px;"">+</div>","null","","","","","","","","","",""
"","html-keyboard-response","252","573514","0.0-10.0-1.16","ua2vg57o79","many_one","0","indirect_first","0","er05ig26","0","31","1","1","1","2","null","","","<img src = 'category4/GS1.png' width = '100%;'>","null","","","","","","","","","",""
"","html-keyboard-response","253","573795","0.0-10.0-2.16","ua2vg57o79","many_one","0","indirect_first","0","er05ig26","0","31","1","1","1","2","null","","","<img src = 'targets/1.png' width = '100%;'>","null","","","","","","","","","",""
"","html-keyboard-response","254","574490","0.0-10.0-3.16","ua2vg57o79","many_one","0","indirect_first","0","er05ig26","0","31","1","1","1","2","695","","","<img src = 'targets/mask.png' width = '100%;'>","68","pos","GS","GSnew","4","category4/GS1.png","targets/1.png","0","indirect","40",""
"","html-keyboard-response","255","575994","0.0-10.0-0.17","ua2vg57o79","many_one","0","indirect_first","0","er05ig26","0","31","1","1","1","2","null","","","<div style=""font-size:60px;"">+</div>","null","","","","","","","","","",""
"","html-keyboard-response","256","576095","0.0-10.0-1.17","ua2vg57o79","many_one","0","indirect_first","0","er05ig26","0","31","1","1","1","2","null","","","<img src = 'category3/wang.png' width = '100%;'>","null","","","","","","","","","",""
"","html-keyboard-response","257","576355","0.0-10.0-2.17","ua2vg57o79","many_one","0","indirect_first","0","er05ig26","0","31","1","1","1","2","null","","","<img src = 'targets/34.png' width = '100%;'>","null","","","","","","","","","",""
"","html-keyboard-response","258","577251","0.0-10.0-3.17","ua2vg57o79","many_one","0","indirect_first","0","er05ig26","0","31","1","1","1","2","895","","","<img src = 'targets/mask.png' width = '100%;'>","68","pos","GS","abstract","3","category3/wang.png","targets/34.png","0","indirect","41",""
"","html-keyboard-response","259","578775","0.0-10.0-0.18","ua2vg57o79","many_one","0","indirect_first","0","er05ig26","0","31","1","1","1","2","null","","","<div style=""font-size:60px;"">+</div>","null","","","","","","","","","",""
"","html-keyboard-response","260","578874","0.0-10.0-1.18","ua2vg57o79","many_one","0","indirect_first","0","er05ig26","0","31","1","1","1","2","null","","","<img src = 'category2/GS2.png' width = '100%;'>","null","","","","","","","","","",""
"","html-keyboard-response","261","579155","0.0-10.0-2.18","ua2vg57o79","many_one","0","indirect_first","0","er05ig26","0","31","1","1","1","2","null","","","<img src = 'targets/11.png' width = '100%;'>","null","","","","","","","","","",""
"","html-keyboard-response","262","580410","0.0-10.0-3.18","ua2vg57o79","many_one","0","indirect_first","0","er05ig26","0","31","1","1","1","2","1254","","","<img src = 'targets/mask.png' width = '100%;'>","68","neg","GS","GSnew","2","category2/GS2.png","targets/11.png","0","indirect","42",""
"","html-keyboard-response","263","581935","0.0-10.0-0.19","ua2vg57o79","many_one","0","indirect_first","0","er05ig26","0","31","1","1","1","2","null","","","<div style=""font-size:60px;"">+</div>","null","","","","","","","","","",""
"","html-keyboard-response","264","582034","0.0-10.0-1.19","ua2vg57o79","many_one","0","indirect_first","0","er05ig26","0","31","1","1","1","2","null","","","<img src = 'category1/GS3.png' width = '100%;'>","null","","","","","","","","","",""
"","html-keyboard-response","265","582314","0.0-10.0-2.19","ua2vg57o79","many_one","0","indirect_first","0","er05ig26","0","31","1","1","1","2","null","","","<img src = 'targets/29.png' width = '100%;'>","null","","","","","","","","","",""
"","html-keyboard-response","266","583011","0.0-10.0-3.19","ua2vg57o79","many_one","0","indirect_first","0","er05ig26","0","31","1","1","1","2","696","","","<img src = 'targets/mask.png' width = '100%;'>","75","neg","GS","GSnew","1","category1/GS3.png","targets/29.png","1","indirect","43",""
"","html-keyboard-response","267","584516","0.0-10.0-0.20","ua2vg57o79","many_one","0","indirect_first","0","er05ig26","0","31","1","1","1","2","null","","","<div style=""font-size:60px;"">+</div>","null","","","","","","","","","",""
"","html-keyboard-response","268","584607","0.0-10.0-1.20","ua2vg57o79","many_one","0","indirect_first","0","er05ig26","0","31","1","1","1","2","null","","","<img src = 'category3/GS1.png' width = '100%;'>","null","","","","","","","","","",""
"","html-keyboard-response","269","584875","0.0-10.0-2.20","ua2vg57o79","many_one","0","indirect_first","0","er05ig26","0","31","1","1","1","2","null","","","<img src = 'targets/43.png' width = '100%;'>","null","","","","","","","","","",""
"","html-keyboard-response","270","586154","0.0-10.0-3.20","ua2vg57o79","many_one","0","indirect_first","0","er05ig26","0","31","1","1","1","2","1278","","","<img src = 'targets/mask.png' width = '100%;'>","68","pos","GS","GSnew","3","category3/GS1.png","targets/43.png","0","indirect","44",""
"","html-keyboard-response","271","587695","0.0-10.0-0.21","ua2vg57o79","many_one","0","indirect_first","0","er05ig26","0","31","1","1","1","2","null","","","<div style=""font-size:60px;"">+</div>","null","","","","","","","","","",""
"","html-keyboard-response","272","587794","0.0-10.0-1.21","ua2vg57o79","many_one","0","indirect_first","0","er05ig26","0","31","1","1","1","2","null","","","<img src = 'category2/CS10.png' width = '100%;'>","null","","","","","","","","","",""
"","html-keyboard-response","273","588075","0.0-10.0-2.21","ua2vg57o79","many_one","0","indirect_first","0","er05ig26","0","31","1","1","1","2","null","","","<img src = 'targets/14.png' width = '100%;'>","null","","","","","","","","","",""
"","html-keyboard-response","274","589106","0.0-10.0-3.21","ua2vg57o79","many_one","0","indirect_first","0","er05ig26","0","31","1","1","1","2","1030","","","<img src = 'targets/mask.png' width = '100%;'>","68","neg","GS","GSold","2","category2/CS10.png","targets/14.png","0","indirect","45",""
"","html-keyboard-response","275","590634","0.0-10.0-0.22","ua2vg57o79","many_one","0","indirect_first","0","er05ig26","0","31","1","1","1","2","null","","","<div style=""font-size:60px;"">+</div>","null","","","","","","","","","",""
"","html-keyboard-response","276","590734","0.0-10.0-1.22","ua2vg57o79","many_one","0","indirect_first","0","er05ig26","0","31","1","1","1","2","null","","","<img src = 'category3/CS7.png' width = '100%;'>","null","","","","","","","","","",""
"","html-keyboard-response","277","590995","0.0-10.0-2.22","ua2vg57o79","many_one","0","indirect_first","0","er05ig26","0","31","1","1","1","2","null","","","<img src = 'targets/16.png' width = '100%;'>","null","","","","","","","","","",""
"","html-keyboard-response","278","591930","0.0-10.0-3.22","ua2vg57o79","many_one","0","indirect_first","0","er05ig26","0","31","1","1","1","2","934","","","<img src = 'targets/mask.png' width = '100%;'>","68","pos","GS","GSold","3","category3/CS7.png","targets/16.png","0","indirect","46",""
"","html-keyboard-response","279","593454","0.0-10.0-0.23","ua2vg57o79","many_one","0","indirect_first","0","er05ig26","0","31","1","1","1","2","null","","","<div style=""font-size:60px;"">+</div>","null","","","","","","","","","",""
"","html-keyboard-response","280","593555","0.0-10.0-1.23","ua2vg57o79","many_one","0","indirect_first","0","er05ig26","0","31","1","1","1","2","null","","","<img src = 'category3/CS6.png' width = '100%;'>","null","","","","","","","","","",""
"","html-keyboard-response","281","593834","0.0-10.0-2.23","ua2vg57o79","many_one","0","indirect_first","0","er05ig26","0","31","1","1","1","2","null","","","<img src = 'targets/33.png' width = '100%;'>","null","","","","","","","","","",""
"","html-keyboard-response","282","594467","0.0-10.0-3.23","ua2vg57o79","many_one","0","indirect_first","0","er05ig26","0","31","1","1","1","2","631","","","<img src = 'targets/mask.png' width = '100%;'>","75","pos","GS","GSold","3","category3/CS6.png","targets/33.png","1","indirect","47",""
"","survey-html-form","283","603161","0.0-11.0","ua2vg57o79","many_one","0","indirect_first","0","er05ig26","0","31","1","1","1","2","8186","","{}","","","","","","","","","","","",""
"","image-slider-response","284","612249","0.0-12.0-0.0","ua2vg57o79","many_one","0","indirect_first","0","er05ig26","0","31","1","1","1","2","7066","","","","","pos","GS","GSnew","3","category3/GS1.png","targets/43.png","","direct","","44"
"","image-slider-response","285","616353","0.0-12.0-0.1","ua2vg57o79","many_one","0","indirect_first","0","er05ig26","0","31","1","1","1","2","4103","","","","","neg","CS","CS","2","category2/CS6.png","targets/25.png","","direct","","79"
"","image-slider-response","286","618729","0.0-12.0-0.2","ua2vg57o79","many_one","0","indirect_first","0","er05ig26","0","31","1","1","1","2","2374","","","","","neg","CS","CS","2","category2/CS5.png","targets/3.png","","direct","","77"
"","image-slider-response","287","621352","0.0-12.0-0.3","ua2vg57o79","many_one","0","indirect_first","0","er05ig26","0","31","1","1","1","2","2622","","","","","neg","GS","GSnew","1","category1/GS3.png","targets/29.png","","direct","","44"
"","image-slider-response","288","623880","0.0-12.0-0.4","ua2vg57o79","many_one","0","indirect_first","0","er05ig26","0","31","1","1","1","2","2528","","","","","neg","GS","GSnew","2","category2/GS1.png","targets/48.png","","direct","","50"
"","image-slider-response","289","627184","0.0-12.0-0.5","ua2vg57o79","many_one","0","indirect_first","0","er05ig26","0","31","1","1","1","2","3302","","","","","pos","GS","GSnew","4","category4/GS1.png","targets/1.png","","direct","","-17"
"","image-slider-response","290","631272","0.0-12.0-0.6","ua2vg57o79","many_one","0","indirect_first","0","er05ig26","0","31","1","1","1","2","4087","","","","","pos","CS","CS","4","category4/CS9.png","targets/36.png","","direct","","79"
"","image-slider-response","291","634064","0.0-12.0-0.7","ua2vg57o79","many_one","0","indirect_first","0","er05ig26","0","31","1","1","1","2","2790","","","","","neg","CS","CS","2","category2/CS4.png","targets/35.png","","direct","","64"
"","image-slider-response","292","636528","0.0-12.0-0.8","ua2vg57o79","many_one","0","indirect_first","0","er05ig26","0","31","1","1","1","2","2463","","","","","neg","CS","CS","1","category1/CS6.png","targets/27.png","","direct","","-11"
"","image-slider-response","293","639632","0.0-12.0-0.9","ua2vg57o79","many_one","0","indirect_first","0","er05ig26","0","31","1","1","1","2","3103","","","","","neg","GS","GSnew","1","category1/GS1.png","targets/8.png","","direct","","18"
"","image-slider-response","294","643199","0.0-12.0-0.10","ua2vg57o79","many_one","0","indirect_first","0","er05ig26","0","31","1","1","1","2","3567","","","","","neg","GS","GSold","2","category2/CS1.png","targets/45.png","","direct","","97"
"","image-slider-response","295","646399","0.0-12.0-0.11","ua2vg57o79","many_one","0","indirect_first","0","er05ig26","0","31","1","1","1","2","3198","","","","","pos","GS","GSold","3","category3/CS2.png","targets/30.png","","direct","","63"
"","image-slider-response","296","648567","0.0-12.0-0.12","ua2vg57o79","many_one","0","indirect_first","0","er05ig26","0","31","1","1","1","2","2166","","","","","pos","CS","CS","3","category3/CS10.png","targets/7.png","","direct","","70"
"","image-slider-response","297","651584","0.0-12.0-0.13","ua2vg57o79","many_one","0","indirect_first","0","er05ig26","0","31","1","1","1","2","3015","","","","","neg","GS","abstract","2","category2/men.png","targets/18.png","","direct","","100"
"","image-slider-response","298","653800","0.0-12.0-0.14","ua2vg57o79","many_one","0","indirect_first","0","er05ig26","0","31","1","1","1","2","2215","","","","","pos","CS","CS","4","category4/CS5.png","targets/12.png","","direct","","-57"
"","image-slider-response","299","656288","0.0-12.0-0.15","ua2vg57o79","many_one","0","indirect_first","0","er05ig26","0","31","1","1","1","2","2486","","","","","neg","CS","CS","1","category1/CS1.png","targets/4.png","","direct","","-28"
"","image-slider-response","300","658272","0.0-12.0-0.16","ua2vg57o79","many_one","0","indirect_first","0","er05ig26","0","31","1","1","1","2","1983","","","","","neg","CS","CS","2","category2/CS9.png","targets/47.png","","direct","","51"
"","image-slider-response","301","661087","0.0-12.0-0.17","ua2vg57o79","many_one","0","indirect_first","0","er05ig26","0","31","1","1","1","2","2815","","","","","pos","GS","GSnew","3","category3/GS2.png","targets/37.png","","direct","","25"
"","image-slider-response","302","663454","0.0-12.0-0.18","ua2vg57o79","many_one","0","indirect_first","0","er05ig26","0","31","1","1","1","2","2367","","","","","neg","GS","GSold","2","category2/CS3.png","targets/13.png","","direct","","94"
"","image-slider-response","303","665726","0.0-12.0-0.19","ua2vg57o79","many_one","0","indirect_first","0","er05ig26","0","31","1","1","1","2","2271","","","","","neg","GS","GSold","1","category1/CS2.png","targets/41.png","","direct","","-15"
"","image-slider-response","304","668543","0.0-12.0-0.20","ua2vg57o79","many_one","0","indirect_first","0","er05ig26","0","31","1","1","1","2","2815","","","","","neg","GS","GSold","1","category1/CS10.png","targets/46.png","","direct","","22"
"","image-slider-response","305","670767","0.0-12.0-0.21","ua2vg57o79","many_one","0","indirect_first","0","er05ig26","0","31","1","1","1","2","2222","","","","","pos","GS","GSold","4","category4/CS7.png","targets/2.png","","direct","","-15"
"","image-slider-response","306","673366","0.0-12.0-0.22","ua2vg57o79","many_one","0","indirect_first","0","er05ig26","0","31","1","1","1","2","2598","","","","","pos","GS","GSold","4","category4/CS6.png","targets/42.png","","direct","","-11"
"","image-slider-response","307","675422","0.0-12.0-0.23","ua2vg57o79","many_one","0","indirect_first","0","er05ig26","0","31","1","1","1","2","2055","","","","","pos","CS","CS","3","category3/CS9.png","targets/6.png","","direct","","74"
"","image-slider-response","308","679382","0.0-12.0-0.24","ua2vg57o79","many_one","0","indirect_first","0","er05ig26","0","31","1","1","1","2","3958","","","","","pos","CS","CS","4","category4/CS4.png","targets/23.png","","direct","","-33"
"","image-slider-response","309","681799","0.0-12.0-0.25","ua2vg57o79","many_one","0","indirect_first","0","er05ig26","0","31","1","1","1","2","2415","","","","","pos","GS","abstract","3","category3/wang.png","targets/34.png","","direct","","79"
"","image-slider-response","310","683919","0.0-12.0-0.26","ua2vg57o79","many_one","0","indirect_first","0","er05ig26","0","31","1","1","1","2","2120","","","","","pos","GS","GSnew","4","category4/GS2.png","targets/32.png","","direct","","-47"
"","image-slider-response","311","686502","0.0-12.0-0.27","ua2vg57o79","many_one","0","indirect_first","0","er05ig26","0","31","1","1","1","2","2582","","","","","pos","GS","GSold","3","category3/CS6.png","targets/33.png","","direct","","-29"
"","image-slider-response","312","689207","0.0-12.0-0.28","ua2vg57o79","many_one","0","indirect_first","0","er05ig26","0","31","1","1","1","2","2703","","","","","pos","CS","CS","3","category3/CS4.png","targets/26.png","","direct","","31"
"","image-slider-response","313","691479","0.0-12.0-0.29","ua2vg57o79","many_one","0","indirect_first","0","er05ig26","0","31","1","1","1","2","2270","","","","","neg","GS","GSnew","2","category2/GS2.png","targets/11.png","","direct","","66"
"","image-slider-response","314","695086","0.0-12.0-0.30","ua2vg57o79","many_one","0","indirect_first","0","er05ig26","0","31","1","1","1","2","3607","","","","","pos","CS","CS","3","category3/CS1.png","targets/19.png","","direct","","24"
"","image-slider-response","315","697750","0.0-12.0-0.31","ua2vg57o79","many_one","0","indirect_first","0","er05ig26","0","31","1","1","1","2","2663","","","","","pos","GS","GSnew","3","category3/GS3.png","targets/28.png","","direct","","50"
"","image-slider-response","316","699934","0.0-12.0-0.32","ua2vg57o79","many_one","0","indirect_first","0","er05ig26","0","31","1","1","1","2","2183","","","","","neg","GS","GSold","2","category2/CS10.png","targets/14.png","","direct","","82"
"","image-slider-response","317","702486","0.0-12.0-0.33","ua2vg57o79","many_one","0","indirect_first","0","er05ig26","0","31","1","1","1","2","2551","","","","","pos","CS","CS","3","category3/CS5.png","targets/21.png","","direct","","65"
"","image-slider-response","318","705846","0.0-12.0-0.34","ua2vg57o79","many_one","0","indirect_first","0","er05ig26","0","31","1","1","1","2","3358","","","","","pos","CS","CS","4","category4/CS8.png","targets/17.png","","direct","","67"
"","image-slider-response","319","708638","0.0-12.0-0.35","ua2vg57o79","many_one","0","indirect_first","0","er05ig26","0","31","1","1","1","2","2790","","","","","pos","CS","CS","4","category4/CS10.png","targets/20.png","","direct","","20"
"","image-slider-response","320","711614","0.0-12.0-0.36","ua2vg57o79","many_one","0","indirect_first","0","er05ig26","0","31","1","1","1","2","2975","","","","","pos","GS","GSnew","4","category4/GS3.png","targets/31.png","","direct","","-34"
"","image-slider-response","321","713933","0.0-12.0-0.37","ua2vg57o79","many_one","0","indirect_first","0","er05ig26","0","31","1","1","1","2","2319","","","","","neg","CS","CS","2","category2/CS8.png","targets/38.png","","direct","","65"
"","image-slider-response","322","716205","0.0-12.0-0.38","ua2vg57o79","many_one","0","indirect_first","0","er05ig26","0","31","1","1","1","2","2271","","","","","neg","CS","CS","1","category1/CS7.png","targets/22.png","","direct","","-68"
"","image-slider-response","323","721893","0.0-12.0-0.39","ua2vg57o79","many_one","0","indirect_first","0","er05ig26","0","31","1","1","1","2","5685","","","","","neg","GS","abstract","1","category1/ma.png","targets/15.png","","direct","","-4"
"","image-slider-response","324","725861","0.0-12.0-0.40","ua2vg57o79","many_one","0","indirect_first","0","er05ig26","0","31","1","1","1","2","3967","","","","","pos","GS","GSold","4","category4/CS3.png","targets/44.png","","direct","","-23"
"","image-slider-response","325","728605","0.0-12.0-0.41","ua2vg57o79","many_one","0","indirect_first","0","er05ig26","0","31","1","1","1","2","2743","","","","","neg","CS","CS","1","category1/CS8.png","targets/40.png","","direct","","-72"
"","image-slider-response","326","731629","0.0-12.0-0.42","ua2vg57o79","many_one","0","indirect_first","0","er05ig26","0","31","1","1","1","2","3022","","","","","pos","GS","abstract","4","category4/lin.png","targets/5.png","","direct","","61"
"","image-slider-response","327","733709","0.0-12.0-0.43","ua2vg57o79","many_one","0","indirect_first","0","er05ig26","0","31","1","1","1","2","2078","","","","","neg","CS","CS","1","category1/CS3.png","targets/10.png","","direct","","-27"
"","image-slider-response","328","736357","0.0-12.0-0.44","ua2vg57o79","many_one","0","indirect_first","0","er05ig26","0","31","1","1","1","2","2647","","","","","neg","GS","GSold","1","category1/CS5.png","targets/9.png","","direct","","-41"
"","image-slider-response","329","738668","0.0-12.0-0.45","ua2vg57o79","many_one","0","indirect_first","0","er05ig26","0","31","1","1","1","2","2311","","","","","pos","GS","GSold","3","category3/CS7.png","targets/16.png","","direct","","-39"
"","image-slider-response","330","741493","0.0-12.0-0.46","ua2vg57o79","many_one","0","indirect_first","0","er05ig26","0","31","1","1","1","2","2822","","","","","neg","GS","GSnew","2","category2/GS3.png","targets/39.png","","direct","","74"
"","image-slider-response","331","746676","0.0-12.0-0.47","ua2vg57o79","many_one","0","indirect_first","0","er05ig26","0","31","1","1","1","2","5183","","","","","neg","GS","GSnew","1","category1/GS2.png","targets/24.png","","direct","","-96"
"","survey-html-form","332","751845","0.0-13.0","ua2vg57o79","many_one","0","indirect_first","0","er05ig26","0","31","1","1","1","2","5168","","{}","","","","","","","","","","","",""
"","image-slider-response","333","756397","0.0-14.0-0.0","ua2vg57o79","many_one","0","indirect_first","0","er05ig26","0","31","1","1","1","2","3543","","","","","neg","All","all","1","category1/ma_all.png","","","all","","94"
"","image-slider-response","334","758436","0.0-14.0-0.1","ua2vg57o79","many_one","0","indirect_first","0","er05ig26","0","31","1","1","1","2","2038","","","","","pos","All","all","4","category4/lin_all.png","","","all","","76"
"","image-slider-response","335","761164","0.0-14.0-0.2","ua2vg57o79","many_one","0","indirect_first","0","er05ig26","0","31","1","1","1","2","2727","","","","","neg","All","all","2","category2/men_all.png","","","all","","80"
"","image-slider-response","336","763941","0.0-14.0-0.3","ua2vg57o79","many_one","0","indirect_first","0","er05ig26","0","31","1","1","1","2","2774","","","","","pos","All","all","3","category3/wang_all.png","","","all","","87"
"","survey-text","337","804302","0.0-15.0","ua2vg57o79","many_one","0","indirect_first","0","er05ig26","0","31","1","1","1","2","40359","","{""Q0"":""Vorallem angenehm fand ich die umrandeten Zeichen, die dadurch etwas geborgenes ausstrahlen. ""}","","","","","","","","","","","",""
