"success","trial_type","trial_index","time_elapsed","internal_node_id","subject","condition","condition_code","measure","measure_code","codeword","gender","age","education","chinese","fach","handedness","comment","hinschauen","ablenkung","gewissenhaft","rt","url","responses","stimulus","key_press","val","type","type_specific","category","cs_selected","response","target","task","indirect","nr_pres"
"true","fullscreen","0","8567","0.0-0.0","c8fl74pyef","many_one","0","direct_first","1","Eck7rt11","0","24","1","1","3","1","","0","1","0","","","","","","","","","","","","","","",""
"","external-html","1","62217","0.0-1.0","c8fl74pyef","many_one","0","direct_first","1","Eck7rt11","0","24","1","1","3","1","","0","1","0","53495","text/information.html","","","","","","","","","","","","",""
"","external-html","2","77294","0.0-2.0","c8fl74pyef","many_one","0","direct_first","1","Eck7rt11","0","24","1","1","3","1","","0","1","0","14797","text/consent.html","","","","","","","","","","","","",""
"","survey-html-form","3","159860","0.0-3.0","c8fl74pyef","many_one","0","direct_first","1","Eck7rt11","0","24","1","1","3","1","","0","1","0","82556","","{""codeword_enter"":""Eck7rt11""}","","","","","","","","","","","",""
"","survey-html-form","4","174150","0.0-4.0","c8fl74pyef","many_one","0","direct_first","1","Eck7rt11","0","24","1","1","3","1","","0","1","0","14282","","{""age"":""24"",""education"":""1"",""subject"":""3"",""gender"":""0"",""handedness"":""1"",""chinese"":""1""}","","","","","","","","","","","",""
"","survey-html-form","5","182939","0.0-5.0","c8fl74pyef","many_one","0","direct_first","1","Eck7rt11","0","24","1","1","3","1","","0","1","0","8784","","{}","","","","","","","","","","","",""
"","html-keyboard-response","6","186976","0.0-6.0-0.0-0.0","c8fl74pyef","many_one","0","direct_first","1","Eck7rt11","0","24","1","1","3","1","","0","1","0","null","","","<div class = 'row'><div class = 'column'><img src = 'usneg/6570.1.bmp' width = '100%;'></div><div class = 'column'><img src = 'category2/CS3.png' width = '70%;'></div></div>","null","neg","CS","CS","2","category2/CS3.png","","","","",""
"","html-keyboard-response","7","189515","0.0-6.0-0.0-0.1","c8fl74pyef","many_one","0","direct_first","1","Eck7rt11","0","24","1","1","3","1","","0","1","0","null","","","<div class = 'row'><div class = 'column'><img src = 'uspos/8080.bmp' width = '100%;'></div><div class = 'column'><img src = 'category1/CS10.png' width = '70%;'></div></div>","null","pos","CS","CS","1","category1/CS10.png","","","","",""
"","html-keyboard-response","8","192049","0.0-6.0-0.0-0.2","c8fl74pyef","many_one","0","direct_first","1","Eck7rt11","0","24","1","1","3","1","","0","1","0","null","","","<div class = 'row'><div class = 'column'><img src = 'uspos/2341.bmp' width = '100%;'></div><div class = 'column'><img src = 'category1/CS3.png' width = '70%;'></div></div>","null","pos","CS","CS","1","category1/CS3.png","","","","",""
"","html-keyboard-response","9","194566","0.0-6.0-0.0-0.3","c8fl74pyef","many_one","0","direct_first","1","Eck7rt11","0","24","1","1","3","1","","0","1","0","null","","","<div class = 'row'><div class = 'column'><img src = 'category4/CS7.png' width = '70%;'></div><div class = 'column'><img src = 'usneg/9415.bmp' width = '100%;'></div></div>","null","neg","CS","CS","4","category4/CS7.png","","","","",""
"","html-keyboard-response","10","197085","0.0-6.0-0.0-0.4","c8fl74pyef","many_one","0","direct_first","1","Eck7rt11","0","24","1","1","3","1","","0","1","0","null","","","<div class = 'row'><div class = 'column'><img src = 'usneg/7380.bmp' width = '100%;'></div><div class = 'column'><img src = 'category4/CS4.png' width = '70%;'></div></div>","null","neg","CS","CS","4","category4/CS4.png","","","","",""
"","html-keyboard-response","11","199604","0.0-6.0-0.0-0.5","c8fl74pyef","many_one","0","direct_first","1","Eck7rt11","0","24","1","1","3","1","","0","1","0","null","","","<div class = 'row'><div class = 'column'><img src = 'category3/CS7.png' width = '70%;'></div><div class = 'column'><img src = 'uspos/5600.bmp' width = '100%;'></div></div>","null","pos","CS","CS","3","category3/CS7.png","","","","",""
"","html-keyboard-response","12","202133","0.0-6.0-0.0-0.6","c8fl74pyef","many_one","0","direct_first","1","Eck7rt11","0","24","1","1","3","1","","0","1","0","null","","","<div class = 'row'><div class = 'column'><img src = 'usneg/6838.bmp' width = '100%;'></div><div class = 'column'><img src = 'category2/CS6.png' width = '70%;'></div></div>","null","neg","CS","CS","2","category2/CS6.png","","","","",""
"","html-keyboard-response","13","204656","0.0-6.0-0.0-0.7","c8fl74pyef","many_one","0","direct_first","1","Eck7rt11","0","24","1","1","3","1","","0","1","0","null","","","<div class = 'row'><div class = 'column'><img src = 'usneg/9421.bmp' width = '100%;'></div><div class = 'column'><img src = 'category4/CS6.png' width = '70%;'></div></div>","null","neg","CS","CS","4","category4/CS6.png","","","","",""
"","html-keyboard-response","14","207181","0.0-6.0-0.0-0.8","c8fl74pyef","many_one","0","direct_first","1","Eck7rt11","0","24","1","1","3","1","","0","1","0","null","","","<div class = 'row'><div class = 'column'><img src = 'category1/CS6.png' width = '70%;'></div><div class = 'column'><img src = 'uspos/5621.bmp' width = '100%;'></div></div>","null","pos","CS","CS","1","category1/CS6.png","","","","",""
"","html-keyboard-response","15","209703","0.0-6.0-0.0-0.9","c8fl74pyef","many_one","0","direct_first","1","Eck7rt11","0","24","1","1","3","1","","0","1","0","null","","","<div class = 'row'><div class = 'column'><img src = 'uspos/2550.bmp' width = '100%;'></div><div class = 'column'><img src = 'category3/CS10.png' width = '70%;'></div></div>","null","pos","CS","CS","3","category3/CS10.png","","","","",""
"","html-keyboard-response","16","212219","0.0-6.0-0.0-0.10","c8fl74pyef","many_one","0","direct_first","1","Eck7rt11","0","24","1","1","3","1","","0","1","0","null","","","<div class = 'row'><div class = 'column'><img src = 'category4/CS9.png' width = '70%;'></div><div class = 'column'><img src = 'usneg/9435.bmp' width = '100%;'></div></div>","null","neg","CS","CS","4","category4/CS9.png","","","","",""
"","html-keyboard-response","17","214739","0.0-6.0-0.0-0.11","c8fl74pyef","many_one","0","direct_first","1","Eck7rt11","0","24","1","1","3","1","","0","1","0","null","","","<div class = 'row'><div class = 'column'><img src = 'category3/CS3.png' width = '70%;'></div><div class = 'column'><img src = 'uspos/5470.bmp' width = '100%;'></div></div>","null","pos","CS","CS","3","category3/CS3.png","","","","",""
"","html-keyboard-response","18","217260","0.0-6.0-0.0-0.12","c8fl74pyef","many_one","0","direct_first","1","Eck7rt11","0","24","1","1","3","1","","0","1","0","null","","","<div class = 'row'><div class = 'column'><img src = 'category4/CS10.png' width = '70%;'></div><div class = 'column'><img src = 'usneg/9340.bmp' width = '100%;'></div></div>","null","neg","CS","CS","4","category4/CS10.png","","","","",""
"","html-keyboard-response","19","219787","0.0-6.0-0.0-0.13","c8fl74pyef","many_one","0","direct_first","1","Eck7rt11","0","24","1","1","3","1","","0","1","0","null","","","<div class = 'row'><div class = 'column'><img src = 'usneg/2205.bmp' width = '100%;'></div><div class = 'column'><img src = 'category2/CS8.png' width = '70%;'></div></div>","null","neg","CS","CS","2","category2/CS8.png","","","","",""
"","html-keyboard-response","20","222305","0.0-6.0-0.0-0.14","c8fl74pyef","many_one","0","direct_first","1","Eck7rt11","0","24","1","1","3","1","","0","1","0","null","","","<div class = 'row'><div class = 'column'><img src = 'uspos/5831.bmp' width = '100%;'></div><div class = 'column'><img src = 'category1/CS7.png' width = '70%;'></div></div>","null","pos","CS","CS","1","category1/CS7.png","","","","",""
"","html-keyboard-response","21","224834","0.0-6.0-0.0-0.15","c8fl74pyef","many_one","0","direct_first","1","Eck7rt11","0","24","1","1","3","1","","0","1","0","null","","","<div class = 'row'><div class = 'column'><img src = 'category3/CS1.png' width = '70%;'></div><div class = 'column'><img src = 'uspos/2900.2.bmp' width = '100%;'></div></div>","null","pos","CS","CS","3","category3/CS1.png","","","","",""
"","html-keyboard-response","22","227361","0.0-6.0-0.0-0.16","c8fl74pyef","many_one","0","direct_first","1","Eck7rt11","0","24","1","1","3","1","","0","1","0","null","","","<div class = 'row'><div class = 'column'><img src = 'category3/CS4.png' width = '70%;'></div><div class = 'column'><img src = 'uspos/2150.bmp' width = '100%;'></div></div>","null","pos","CS","CS","3","category3/CS4.png","","","","",""
"","html-keyboard-response","23","229882","0.0-6.0-0.0-0.17","c8fl74pyef","many_one","0","direct_first","1","Eck7rt11","0","24","1","1","3","1","","0","1","0","null","","","<div class = 'row'><div class = 'column'><img src = 'category2/CS1.png' width = '70%;'></div><div class = 'column'><img src = 'usneg/2750.bmp' width = '100%;'></div></div>","null","neg","CS","CS","2","category2/CS1.png","","","","",""
"","html-keyboard-response","24","232401","0.0-6.0-0.0-0.18","c8fl74pyef","many_one","0","direct_first","1","Eck7rt11","0","24","1","1","3","1","","0","1","0","null","","","<div class = 'row'><div class = 'column'><img src = 'category1/CS5.png' width = '70%;'></div><div class = 'column'><img src = 'uspos/4625.bmp' width = '100%;'></div></div>","null","pos","CS","CS","1","category1/CS5.png","","","","",""
"","html-keyboard-response","25","234923","0.0-6.0-0.0-0.19","c8fl74pyef","many_one","0","direct_first","1","Eck7rt11","0","24","1","1","3","1","","0","1","0","null","","","<div class = 'row'><div class = 'column'><img src = 'usneg/9290.bmp' width = '100%;'></div><div class = 'column'><img src = 'category2/CS9.png' width = '70%;'></div></div>","null","neg","CS","CS","2","category2/CS9.png","","","","",""
"","survey-html-form","26","243357","0.0-6.0-1.0","c8fl74pyef","many_one","0","direct_first","1","Eck7rt11","0","24","1","1","3","1","","0","1","0","7923","","{}","","","","","","","","","","","",""
"","html-keyboard-response","27","247374","0.0-6.0-2.0-0.0","c8fl74pyef","many_one","0","direct_first","1","Eck7rt11","0","24","1","1","3","1","","0","1","0","null","","","<div class = 'row'><div class = 'column'><img src = 'uspos/2900.2.bmp' width = '100%;'></div><div class = 'column'><img src = 'category3/CS1.png' width = '70%;'></div></div>","null","pos","CS","CS","3","category3/CS1.png","","","","",""
"","html-keyboard-response","28","249896","0.0-6.0-2.0-0.1","c8fl74pyef","many_one","0","direct_first","1","Eck7rt11","0","24","1","1","3","1","","0","1","0","null","","","<div class = 'row'><div class = 'column'><img src = 'category3/CS4.png' width = '70%;'></div><div class = 'column'><img src = 'uspos/2150.bmp' width = '100%;'></div></div>","null","pos","CS","CS","3","category3/CS4.png","","","","",""
"","html-keyboard-response","29","252416","0.0-6.0-2.0-0.2","c8fl74pyef","many_one","0","direct_first","1","Eck7rt11","0","24","1","1","3","1","","0","1","0","null","","","<div class = 'row'><div class = 'column'><img src = 'category1/CS3.png' width = '70%;'></div><div class = 'column'><img src = 'uspos/2341.bmp' width = '100%;'></div></div>","null","pos","CS","CS","1","category1/CS3.png","","","","",""
"","html-keyboard-response","30","254936","0.0-6.0-2.0-0.3","c8fl74pyef","many_one","0","direct_first","1","Eck7rt11","0","24","1","1","3","1","","0","1","0","null","","","<div class = 'row'><div class = 'column'><img src = 'usneg/6838.bmp' width = '100%;'></div><div class = 'column'><img src = 'category2/CS6.png' width = '70%;'></div></div>","null","neg","CS","CS","2","category2/CS6.png","","","","",""
"","html-keyboard-response","31","257455","0.0-6.0-2.0-0.4","c8fl74pyef","many_one","0","direct_first","1","Eck7rt11","0","24","1","1","3","1","","0","1","0","null","","","<div class = 'row'><div class = 'column'><img src = 'category2/CS3.png' width = '70%;'></div><div class = 'column'><img src = 'usneg/6570.1.bmp' width = '100%;'></div></div>","null","neg","CS","CS","2","category2/CS3.png","","","","",""
"","html-keyboard-response","32","259969","0.0-6.0-2.0-0.5","c8fl74pyef","many_one","0","direct_first","1","Eck7rt11","0","24","1","1","3","1","","0","1","0","null","","","<div class = 'row'><div class = 'column'><img src = 'uspos/5600.bmp' width = '100%;'></div><div class = 'column'><img src = 'category3/CS7.png' width = '70%;'></div></div>","null","pos","CS","CS","3","category3/CS7.png","","","","",""
"","html-keyboard-response","33","262481","0.0-6.0-2.0-0.6","c8fl74pyef","many_one","0","direct_first","1","Eck7rt11","0","24","1","1","3","1","","0","1","0","null","","","<div class = 'row'><div class = 'column'><img src = 'category1/CS6.png' width = '70%;'></div><div class = 'column'><img src = 'uspos/5621.bmp' width = '100%;'></div></div>","null","pos","CS","CS","1","category1/CS6.png","","","","",""
"","html-keyboard-response","34","264995","0.0-6.0-2.0-0.7","c8fl74pyef","many_one","0","direct_first","1","Eck7rt11","0","24","1","1","3","1","","0","1","0","null","","","<div class = 'row'><div class = 'column'><img src = 'category4/CS9.png' width = '70%;'></div><div class = 'column'><img src = 'usneg/9435.bmp' width = '100%;'></div></div>","null","neg","CS","CS","4","category4/CS9.png","","","","",""
"","html-keyboard-response","35","267516","0.0-6.0-2.0-0.8","c8fl74pyef","many_one","0","direct_first","1","Eck7rt11","0","24","1","1","3","1","","0","1","0","null","","","<div class = 'row'><div class = 'column'><img src = 'category2/CS1.png' width = '70%;'></div><div class = 'column'><img src = 'usneg/2750.bmp' width = '100%;'></div></div>","null","neg","CS","CS","2","category2/CS1.png","","","","",""
"","html-keyboard-response","36","270026","0.0-6.0-2.0-0.9","c8fl74pyef","many_one","0","direct_first","1","Eck7rt11","0","24","1","1","3","1","","0","1","0","null","","","<div class = 'row'><div class = 'column'><img src = 'category2/CS9.png' width = '70%;'></div><div class = 'column'><img src = 'usneg/9290.bmp' width = '100%;'></div></div>","null","neg","CS","CS","2","category2/CS9.png","","","","",""
"","html-keyboard-response","37","272546","0.0-6.0-2.0-0.10","c8fl74pyef","many_one","0","direct_first","1","Eck7rt11","0","24","1","1","3","1","","0","1","0","null","","","<div class = 'row'><div class = 'column'><img src = 'usneg/9340.bmp' width = '100%;'></div><div class = 'column'><img src = 'category4/CS10.png' width = '70%;'></div></div>","null","neg","CS","CS","4","category4/CS10.png","","","","",""
"","html-keyboard-response","38","275066","0.0-6.0-2.0-0.11","c8fl74pyef","many_one","0","direct_first","1","Eck7rt11","0","24","1","1","3","1","","0","1","0","null","","","<div class = 'row'><div class = 'column'><img src = 'usneg/9415.bmp' width = '100%;'></div><div class = 'column'><img src = 'category4/CS7.png' width = '70%;'></div></div>","null","neg","CS","CS","4","category4/CS7.png","","","","",""
"","html-keyboard-response","39","277585","0.0-6.0-2.0-0.12","c8fl74pyef","many_one","0","direct_first","1","Eck7rt11","0","24","1","1","3","1","","0","1","0","null","","","<div class = 'row'><div class = 'column'><img src = 'category1/CS7.png' width = '70%;'></div><div class = 'column'><img src = 'uspos/5831.bmp' width = '100%;'></div></div>","null","pos","CS","CS","1","category1/CS7.png","","","","",""
"","html-keyboard-response","40","280106","0.0-6.0-2.0-0.13","c8fl74pyef","many_one","0","direct_first","1","Eck7rt11","0","24","1","1","3","1","","0","1","0","null","","","<div class = 'row'><div class = 'column'><img src = 'category1/CS10.png' width = '70%;'></div><div class = 'column'><img src = 'uspos/8080.bmp' width = '100%;'></div></div>","null","pos","CS","CS","1","category1/CS10.png","","","","",""
"","html-keyboard-response","41","282621","0.0-6.0-2.0-0.14","c8fl74pyef","many_one","0","direct_first","1","Eck7rt11","0","24","1","1","3","1","","0","1","0","null","","","<div class = 'row'><div class = 'column'><img src = 'category2/CS8.png' width = '70%;'></div><div class = 'column'><img src = 'usneg/2205.bmp' width = '100%;'></div></div>","null","neg","CS","CS","2","category2/CS8.png","","","","",""
"","html-keyboard-response","42","285132","0.0-6.0-2.0-0.15","c8fl74pyef","many_one","0","direct_first","1","Eck7rt11","0","24","1","1","3","1","","0","1","0","null","","","<div class = 'row'><div class = 'column'><img src = 'category3/CS10.png' width = '70%;'></div><div class = 'column'><img src = 'uspos/2550.bmp' width = '100%;'></div></div>","null","pos","CS","CS","3","category3/CS10.png","","","","",""
"","html-keyboard-response","43","287642","0.0-6.0-2.0-0.16","c8fl74pyef","many_one","0","direct_first","1","Eck7rt11","0","24","1","1","3","1","","0","1","0","null","","","<div class = 'row'><div class = 'column'><img src = 'uspos/5470.bmp' width = '100%;'></div><div class = 'column'><img src = 'category3/CS3.png' width = '70%;'></div></div>","null","pos","CS","CS","3","category3/CS3.png","","","","",""
"","html-keyboard-response","44","290164","0.0-6.0-2.0-0.17","c8fl74pyef","many_one","0","direct_first","1","Eck7rt11","0","24","1","1","3","1","","0","1","0","null","","","<div class = 'row'><div class = 'column'><img src = 'usneg/9421.bmp' width = '100%;'></div><div class = 'column'><img src = 'category4/CS6.png' width = '70%;'></div></div>","null","neg","CS","CS","4","category4/CS6.png","","","","",""
"","html-keyboard-response","45","292698","0.0-6.0-2.0-0.18","c8fl74pyef","many_one","0","direct_first","1","Eck7rt11","0","24","1","1","3","1","","0","1","0","null","","","<div class = 'row'><div class = 'column'><img src = 'usneg/7380.bmp' width = '100%;'></div><div class = 'column'><img src = 'category4/CS4.png' width = '70%;'></div></div>","null","neg","CS","CS","4","category4/CS4.png","","","","",""
"","html-keyboard-response","46","295211","0.0-6.0-2.0-0.19","c8fl74pyef","many_one","0","direct_first","1","Eck7rt11","0","24","1","1","3","1","","0","1","0","null","","","<div class = 'row'><div class = 'column'><img src = 'uspos/4625.bmp' width = '100%;'></div><div class = 'column'><img src = 'category1/CS5.png' width = '70%;'></div></div>","null","pos","CS","CS","1","category1/CS5.png","","","","",""
"","survey-html-form","47","306973","0.0-6.0-3.0","c8fl74pyef","many_one","0","direct_first","1","Eck7rt11","0","24","1","1","3","1","","0","1","0","11247","","{}","","","","","","","","","","","",""
"","html-keyboard-response","48","310985","0.0-6.0-4.0-0.0","c8fl74pyef","many_one","0","direct_first","1","Eck7rt11","0","24","1","1","3","1","","0","1","0","null","","","<div class = 'row'><div class = 'column'><img src = 'category4/CS10.png' width = '70%;'></div><div class = 'column'><img src = 'usneg/9340.bmp' width = '100%;'></div></div>","null","neg","CS","CS","4","category4/CS10.png","","","","",""
"","html-keyboard-response","49","313504","0.0-6.0-4.0-0.1","c8fl74pyef","many_one","0","direct_first","1","Eck7rt11","0","24","1","1","3","1","","0","1","0","null","","","<div class = 'row'><div class = 'column'><img src = 'category2/CS1.png' width = '70%;'></div><div class = 'column'><img src = 'usneg/2750.bmp' width = '100%;'></div></div>","null","neg","CS","CS","2","category2/CS1.png","","","","",""
"","html-keyboard-response","50","316020","0.0-6.0-4.0-0.2","c8fl74pyef","many_one","0","direct_first","1","Eck7rt11","0","24","1","1","3","1","","0","1","0","null","","","<div class = 'row'><div class = 'column'><img src = 'usneg/9415.bmp' width = '100%;'></div><div class = 'column'><img src = 'category4/CS7.png' width = '70%;'></div></div>","null","neg","CS","CS","4","category4/CS7.png","","","","",""
"","html-keyboard-response","51","318538","0.0-6.0-4.0-0.3","c8fl74pyef","many_one","0","direct_first","1","Eck7rt11","0","24","1","1","3","1","","0","1","0","null","","","<div class = 'row'><div class = 'column'><img src = 'usneg/2205.bmp' width = '100%;'></div><div class = 'column'><img src = 'category2/CS8.png' width = '70%;'></div></div>","null","neg","CS","CS","2","category2/CS8.png","","","","",""
"","html-keyboard-response","52","321058","0.0-6.0-4.0-0.4","c8fl74pyef","many_one","0","direct_first","1","Eck7rt11","0","24","1","1","3","1","","0","1","0","null","","","<div class = 'row'><div class = 'column'><img src = 'usneg/9435.bmp' width = '100%;'></div><div class = 'column'><img src = 'category4/CS9.png' width = '70%;'></div></div>","null","neg","CS","CS","4","category4/CS9.png","","","","",""
"","html-keyboard-response","53","323582","0.0-6.0-4.0-0.5","c8fl74pyef","many_one","0","direct_first","1","Eck7rt11","0","24","1","1","3","1","","0","1","0","null","","","<div class = 'row'><div class = 'column'><img src = 'usneg/7380.bmp' width = '100%;'></div><div class = 'column'><img src = 'category4/CS4.png' width = '70%;'></div></div>","null","neg","CS","CS","4","category4/CS4.png","","","","",""
"","html-keyboard-response","54","326107","0.0-6.0-4.0-0.6","c8fl74pyef","many_one","0","direct_first","1","Eck7rt11","0","24","1","1","3","1","","0","1","0","null","","","<div class = 'row'><div class = 'column'><img src = 'usneg/9290.bmp' width = '100%;'></div><div class = 'column'><img src = 'category2/CS9.png' width = '70%;'></div></div>","null","neg","CS","CS","2","category2/CS9.png","","","","",""
"","html-keyboard-response","55","328635","0.0-6.0-4.0-0.7","c8fl74pyef","many_one","0","direct_first","1","Eck7rt11","0","24","1","1","3","1","","0","1","0","null","","","<div class = 'row'><div class = 'column'><img src = 'uspos/2341.bmp' width = '100%;'></div><div class = 'column'><img src = 'category1/CS3.png' width = '70%;'></div></div>","null","pos","CS","CS","1","category1/CS3.png","","","","",""
"","html-keyboard-response","56","331152","0.0-6.0-4.0-0.8","c8fl74pyef","many_one","0","direct_first","1","Eck7rt11","0","24","1","1","3","1","","0","1","0","null","","","<div class = 'row'><div class = 'column'><img src = 'category2/CS6.png' width = '70%;'></div><div class = 'column'><img src = 'usneg/6838.bmp' width = '100%;'></div></div>","null","neg","CS","CS","2","category2/CS6.png","","","","",""
"","html-keyboard-response","57","333668","0.0-6.0-4.0-0.9","c8fl74pyef","many_one","0","direct_first","1","Eck7rt11","0","24","1","1","3","1","","0","1","0","null","","","<div class = 'row'><div class = 'column'><img src = 'category3/CS3.png' width = '70%;'></div><div class = 'column'><img src = 'uspos/5470.bmp' width = '100%;'></div></div>","null","pos","CS","CS","3","category3/CS3.png","","","","",""
"","html-keyboard-response","58","336175","0.0-6.0-4.0-0.10","c8fl74pyef","many_one","0","direct_first","1","Eck7rt11","0","24","1","1","3","1","","0","1","0","null","","","<div class = 'row'><div class = 'column'><img src = 'category2/CS3.png' width = '70%;'></div><div class = 'column'><img src = 'usneg/6570.1.bmp' width = '100%;'></div></div>","null","neg","CS","CS","2","category2/CS3.png","","","","",""
"","html-keyboard-response","59","338693","0.0-6.0-4.0-0.11","c8fl74pyef","many_one","0","direct_first","1","Eck7rt11","0","24","1","1","3","1","","0","1","0","null","","","<div class = 'row'><div class = 'column'><img src = 'category3/CS4.png' width = '70%;'></div><div class = 'column'><img src = 'uspos/2150.bmp' width = '100%;'></div></div>","null","pos","CS","CS","3","category3/CS4.png","","","","",""
"","html-keyboard-response","60","341215","0.0-6.0-4.0-0.12","c8fl74pyef","many_one","0","direct_first","1","Eck7rt11","0","24","1","1","3","1","","0","1","0","null","","","<div class = 'row'><div class = 'column'><img src = 'uspos/4625.bmp' width = '100%;'></div><div class = 'column'><img src = 'category1/CS5.png' width = '70%;'></div></div>","null","pos","CS","CS","1","category1/CS5.png","","","","",""
"","html-keyboard-response","61","343741","0.0-6.0-4.0-0.13","c8fl74pyef","many_one","0","direct_first","1","Eck7rt11","0","24","1","1","3","1","","0","1","0","null","","","<div class = 'row'><div class = 'column'><img src = 'uspos/5621.bmp' width = '100%;'></div><div class = 'column'><img src = 'category1/CS6.png' width = '70%;'></div></div>","null","pos","CS","CS","1","category1/CS6.png","","","","",""
"","html-keyboard-response","62","346265","0.0-6.0-4.0-0.14","c8fl74pyef","many_one","0","direct_first","1","Eck7rt11","0","24","1","1","3","1","","0","1","0","null","","","<div class = 'row'><div class = 'column'><img src = 'category4/CS6.png' width = '70%;'></div><div class = 'column'><img src = 'usneg/9421.bmp' width = '100%;'></div></div>","null","neg","CS","CS","4","category4/CS6.png","","","","",""
"","html-keyboard-response","63","348785","0.0-6.0-4.0-0.15","c8fl74pyef","many_one","0","direct_first","1","Eck7rt11","0","24","1","1","3","1","","0","1","0","null","","","<div class = 'row'><div class = 'column'><img src = 'uspos/5600.bmp' width = '100%;'></div><div class = 'column'><img src = 'category3/CS7.png' width = '70%;'></div></div>","null","pos","CS","CS","3","category3/CS7.png","","","","",""
"","html-keyboard-response","64","351301","0.0-6.0-4.0-0.16","c8fl74pyef","many_one","0","direct_first","1","Eck7rt11","0","24","1","1","3","1","","0","1","0","null","","","<div class = 'row'><div class = 'column'><img src = 'uspos/8080.bmp' width = '100%;'></div><div class = 'column'><img src = 'category1/CS10.png' width = '70%;'></div></div>","null","pos","CS","CS","1","category1/CS10.png","","","","",""
"","html-keyboard-response","65","353823","0.0-6.0-4.0-0.17","c8fl74pyef","many_one","0","direct_first","1","Eck7rt11","0","24","1","1","3","1","","0","1","0","null","","","<div class = 'row'><div class = 'column'><img src = 'uspos/5831.bmp' width = '100%;'></div><div class = 'column'><img src = 'category1/CS7.png' width = '70%;'></div></div>","null","pos","CS","CS","1","category1/CS7.png","","","","",""
"","html-keyboard-response","66","356351","0.0-6.0-4.0-0.18","c8fl74pyef","many_one","0","direct_first","1","Eck7rt11","0","24","1","1","3","1","","0","1","0","null","","","<div class = 'row'><div class = 'column'><img src = 'category3/CS10.png' width = '70%;'></div><div class = 'column'><img src = 'uspos/2550.bmp' width = '100%;'></div></div>","null","pos","CS","CS","3","category3/CS10.png","","","","",""
"","html-keyboard-response","67","358878","0.0-6.0-4.0-0.19","c8fl74pyef","many_one","0","direct_first","1","Eck7rt11","0","24","1","1","3","1","","0","1","0","null","","","<div class = 'row'><div class = 'column'><img src = 'uspos/2900.2.bmp' width = '100%;'></div><div class = 'column'><img src = 'category3/CS1.png' width = '70%;'></div></div>","null","pos","CS","CS","3","category3/CS1.png","","","","",""
"","survey-html-form","68","365040","0.0-6.0-5.0","c8fl74pyef","many_one","0","direct_first","1","Eck7rt11","0","24","1","1","3","1","","0","1","0","5650","","{}","","","","","","","","","","","",""
"","html-keyboard-response","69","369067","0.0-6.0-6.0-0.0","c8fl74pyef","many_one","0","direct_first","1","Eck7rt11","0","24","1","1","3","1","","0","1","0","null","","","<div class = 'row'><div class = 'column'><img src = 'usneg/9290.bmp' width = '100%;'></div><div class = 'column'><img src = 'category2/CS9.png' width = '70%;'></div></div>","null","neg","CS","CS","2","category2/CS9.png","","","","",""
"","html-keyboard-response","70","371586","0.0-6.0-6.0-0.1","c8fl74pyef","many_one","0","direct_first","1","Eck7rt11","0","24","1","1","3","1","","0","1","0","null","","","<div class = 'row'><div class = 'column'><img src = 'uspos/5470.bmp' width = '100%;'></div><div class = 'column'><img src = 'category3/CS3.png' width = '70%;'></div></div>","null","pos","CS","CS","3","category3/CS3.png","","","","",""
"","html-keyboard-response","71","374109","0.0-6.0-6.0-0.2","c8fl74pyef","many_one","0","direct_first","1","Eck7rt11","0","24","1","1","3","1","","0","1","0","null","","","<div class = 'row'><div class = 'column'><img src = 'usneg/6570.1.bmp' width = '100%;'></div><div class = 'column'><img src = 'category2/CS3.png' width = '70%;'></div></div>","null","neg","CS","CS","2","category2/CS3.png","","","","",""
"","html-keyboard-response","72","376629","0.0-6.0-6.0-0.3","c8fl74pyef","many_one","0","direct_first","1","Eck7rt11","0","24","1","1","3","1","","0","1","0","null","","","<div class = 'row'><div class = 'column'><img src = 'category3/CS4.png' width = '70%;'></div><div class = 'column'><img src = 'uspos/2150.bmp' width = '100%;'></div></div>","null","pos","CS","CS","3","category3/CS4.png","","","","",""
"","html-keyboard-response","73","379151","0.0-6.0-6.0-0.4","c8fl74pyef","many_one","0","direct_first","1","Eck7rt11","0","24","1","1","3","1","","0","1","0","null","","","<div class = 'row'><div class = 'column'><img src = 'uspos/2900.2.bmp' width = '100%;'></div><div class = 'column'><img src = 'category3/CS1.png' width = '70%;'></div></div>","null","pos","CS","CS","3","category3/CS1.png","","","","",""
"","html-keyboard-response","74","381680","0.0-6.0-6.0-0.5","c8fl74pyef","many_one","0","direct_first","1","Eck7rt11","0","24","1","1","3","1","","0","1","0","null","","","<div class = 'row'><div class = 'column'><img src = 'category1/CS7.png' width = '70%;'></div><div class = 'column'><img src = 'uspos/5831.bmp' width = '100%;'></div></div>","null","pos","CS","CS","1","category1/CS7.png","","","","",""
"","html-keyboard-response","75","384203","0.0-6.0-6.0-0.6","c8fl74pyef","many_one","0","direct_first","1","Eck7rt11","0","24","1","1","3","1","","0","1","0","null","","","<div class = 'row'><div class = 'column'><img src = 'usneg/9435.bmp' width = '100%;'></div><div class = 'column'><img src = 'category4/CS9.png' width = '70%;'></div></div>","null","neg","CS","CS","4","category4/CS9.png","","","","",""
"","html-keyboard-response","76","386736","0.0-6.0-6.0-0.7","c8fl74pyef","many_one","0","direct_first","1","Eck7rt11","0","24","1","1","3","1","","0","1","0","null","","","<div class = 'row'><div class = 'column'><img src = 'category3/CS7.png' width = '70%;'></div><div class = 'column'><img src = 'uspos/5600.bmp' width = '100%;'></div></div>","null","pos","CS","CS","3","category3/CS7.png","","","","",""
"","html-keyboard-response","77","389255","0.0-6.0-6.0-0.8","c8fl74pyef","many_one","0","direct_first","1","Eck7rt11","0","24","1","1","3","1","","0","1","0","null","","","<div class = 'row'><div class = 'column'><img src = 'category1/CS10.png' width = '70%;'></div><div class = 'column'><img src = 'uspos/8080.bmp' width = '100%;'></div></div>","null","pos","CS","CS","1","category1/CS10.png","","","","",""
"","html-keyboard-response","78","391779","0.0-6.0-6.0-0.9","c8fl74pyef","many_one","0","direct_first","1","Eck7rt11","0","24","1","1","3","1","","0","1","0","null","","","<div class = 'row'><div class = 'column'><img src = 'usneg/6838.bmp' width = '100%;'></div><div class = 'column'><img src = 'category2/CS6.png' width = '70%;'></div></div>","null","neg","CS","CS","2","category2/CS6.png","","","","",""
"","html-keyboard-response","79","394291","0.0-6.0-6.0-0.10","c8fl74pyef","many_one","0","direct_first","1","Eck7rt11","0","24","1","1","3","1","","0","1","0","null","","","<div class = 'row'><div class = 'column'><img src = 'usneg/9340.bmp' width = '100%;'></div><div class = 'column'><img src = 'category4/CS10.png' width = '70%;'></div></div>","null","neg","CS","CS","4","category4/CS10.png","","","","",""
"","html-keyboard-response","80","396799","0.0-6.0-6.0-0.11","c8fl74pyef","many_one","0","direct_first","1","Eck7rt11","0","24","1","1","3","1","","0","1","0","null","","","<div class = 'row'><div class = 'column'><img src = 'category1/CS5.png' width = '70%;'></div><div class = 'column'><img src = 'uspos/4625.bmp' width = '100%;'></div></div>","null","pos","CS","CS","1","category1/CS5.png","","","","",""
"","html-keyboard-response","81","399321","0.0-6.0-6.0-0.12","c8fl74pyef","many_one","0","direct_first","1","Eck7rt11","0","24","1","1","3","1","","0","1","0","null","","","<div class = 'row'><div class = 'column'><img src = 'usneg/7380.bmp' width = '100%;'></div><div class = 'column'><img src = 'category4/CS4.png' width = '70%;'></div></div>","null","neg","CS","CS","4","category4/CS4.png","","","","",""
"","html-keyboard-response","82","401842","0.0-6.0-6.0-0.13","c8fl74pyef","many_one","0","direct_first","1","Eck7rt11","0","24","1","1","3","1","","0","1","0","null","","","<div class = 'row'><div class = 'column'><img src = 'category1/CS6.png' width = '70%;'></div><div class = 'column'><img src = 'uspos/5621.bmp' width = '100%;'></div></div>","null","pos","CS","CS","1","category1/CS6.png","","","","",""
"","html-keyboard-response","83","404364","0.0-6.0-6.0-0.14","c8fl74pyef","many_one","0","direct_first","1","Eck7rt11","0","24","1","1","3","1","","0","1","0","null","","","<div class = 'row'><div class = 'column'><img src = 'uspos/2341.bmp' width = '100%;'></div><div class = 'column'><img src = 'category1/CS3.png' width = '70%;'></div></div>","null","pos","CS","CS","1","category1/CS3.png","","","","",""
"","html-keyboard-response","84","406886","0.0-6.0-6.0-0.15","c8fl74pyef","many_one","0","direct_first","1","Eck7rt11","0","24","1","1","3","1","","0","1","0","null","","","<div class = 'row'><div class = 'column'><img src = 'category2/CS8.png' width = '70%;'></div><div class = 'column'><img src = 'usneg/2205.bmp' width = '100%;'></div></div>","null","neg","CS","CS","2","category2/CS8.png","","","","",""
"","html-keyboard-response","85","409417","0.0-6.0-6.0-0.16","c8fl74pyef","many_one","0","direct_first","1","Eck7rt11","0","24","1","1","3","1","","0","1","0","null","","","<div class = 'row'><div class = 'column'><img src = 'usneg/2750.bmp' width = '100%;'></div><div class = 'column'><img src = 'category2/CS1.png' width = '70%;'></div></div>","null","neg","CS","CS","2","category2/CS1.png","","","","",""
"","html-keyboard-response","86","411933","0.0-6.0-6.0-0.17","c8fl74pyef","many_one","0","direct_first","1","Eck7rt11","0","24","1","1","3","1","","0","1","0","null","","","<div class = 'row'><div class = 'column'><img src = 'category4/CS7.png' width = '70%;'></div><div class = 'column'><img src = 'usneg/9415.bmp' width = '100%;'></div></div>","null","neg","CS","CS","4","category4/CS7.png","","","","",""
"","html-keyboard-response","87","414455","0.0-6.0-6.0-0.18","c8fl74pyef","many_one","0","direct_first","1","Eck7rt11","0","24","1","1","3","1","","0","1","0","null","","","<div class = 'row'><div class = 'column'><img src = 'usneg/9421.bmp' width = '100%;'></div><div class = 'column'><img src = 'category4/CS6.png' width = '70%;'></div></div>","null","neg","CS","CS","4","category4/CS6.png","","","","",""
"","html-keyboard-response","88","416981","0.0-6.0-6.0-0.19","c8fl74pyef","many_one","0","direct_first","1","Eck7rt11","0","24","1","1","3","1","","0","1","0","null","","","<div class = 'row'><div class = 'column'><img src = 'uspos/2550.bmp' width = '100%;'></div><div class = 'column'><img src = 'category3/CS10.png' width = '70%;'></div></div>","null","pos","CS","CS","3","category3/CS10.png","","","","",""
"","survey-html-form","89","427626","0.0-7.0","c8fl74pyef","many_one","0","direct_first","1","Eck7rt11","0","24","1","1","3","1","","0","1","0","10128","","{}","","","","","","","","","","","",""
"","image-slider-response","90","437000","0.0-8.0-0.0","c8fl74pyef","many_one","0","direct_first","1","Eck7rt11","0","24","1","1","3","1","","0","1","0","7299","","","","","neg","CS","CS","4","category4/CS4.png","-43","targets/25.png","direct","",""
"","image-slider-response","91","441328","0.0-8.0-0.1","c8fl74pyef","many_one","0","direct_first","1","Eck7rt11","0","24","1","1","3","1","","0","1","0","4320","","","","","pos","CS","CS","3","category3/CS4.png","77","targets/29.png","direct","",""
"","image-slider-response","92","444856","0.0-8.0-0.2","c8fl74pyef","many_one","0","direct_first","1","Eck7rt11","0","24","1","1","3","1","","0","1","0","3519","","","","","neg","GS","GSnew","4","category4/GS2.png","-33","targets/40.png","direct","",""
"","image-slider-response","93","448520","0.0-8.0-0.3","c8fl74pyef","many_one","0","direct_first","1","Eck7rt11","0","24","1","1","3","1","","0","1","0","3657","","","","","pos","GS","GSold","1","category1/CS9.png","29","targets/46.png","direct","",""
"","image-slider-response","94","451161","0.0-8.0-0.4","c8fl74pyef","many_one","0","direct_first","1","Eck7rt11","0","24","1","1","3","1","","0","1","0","2634","","","","","neg","GS","GSold","4","category4/CS2.png","-69","targets/31.png","direct","",""
"","image-slider-response","95","457745","0.0-8.0-0.5","c8fl74pyef","many_one","0","direct_first","1","Eck7rt11","0","24","1","1","3","1","","0","1","0","6576","","","","","pos","GS","GSold","3","category3/CS2.png","57","targets/28.png","direct","",""
"","image-slider-response","96","460793","0.0-8.0-0.6","c8fl74pyef","many_one","0","direct_first","1","Eck7rt11","0","24","1","1","3","1","","0","1","0","3040","","","","","neg","GS","GSnew","2","category2/GS2.png","-53","targets/9.png","direct","",""
"","image-slider-response","97","463473","0.0-8.0-0.7","c8fl74pyef","many_one","0","direct_first","1","Eck7rt11","0","24","1","1","3","1","","0","1","0","2671","","","","","pos","GS","GSnew","1","category1/GS2.png","-48","targets/33.png","direct","",""
"","image-slider-response","98","466369","0.0-8.0-0.8","c8fl74pyef","many_one","0","direct_first","1","Eck7rt11","0","24","1","1","3","1","","0","1","0","2889","","","","","pos","GS","GSold","1","category1/CS2.png","40","targets/43.png","direct","",""
"","image-slider-response","99","468914","0.0-8.0-0.9","c8fl74pyef","many_one","0","direct_first","1","Eck7rt11","0","24","1","1","3","1","","0","1","0","2536","","","","","neg","CS","CS","2","category2/CS3.png","-59","targets/26.png","direct","",""
"","image-slider-response","100","471378","0.0-8.0-0.10","c8fl74pyef","many_one","0","direct_first","1","Eck7rt11","0","24","1","1","3","1","","0","1","0","2455","","","","","neg","GS","abstract","2","category2/men.png","-53","targets/10.png","direct","",""
"","image-slider-response","101","474209","0.0-8.0-0.11","c8fl74pyef","many_one","0","direct_first","1","Eck7rt11","0","24","1","1","3","1","","0","1","0","2822","","","","","pos","GS","GSold","3","category3/CS8.png","27","targets/24.png","direct","",""
"","image-slider-response","102","476993","0.0-8.0-0.12","c8fl74pyef","many_one","0","direct_first","1","Eck7rt11","0","24","1","1","3","1","","0","1","0","2776","","","","","neg","CS","CS","4","category4/CS10.png","-67","targets/14.png","direct","",""
"","image-slider-response","103","479409","0.0-8.0-0.13","c8fl74pyef","many_one","0","direct_first","1","Eck7rt11","0","24","1","1","3","1","","0","1","0","2408","","","","","pos","GS","abstract","1","category1/ma.png","-44","targets/16.png","direct","",""
"","image-slider-response","104","482202","0.0-8.0-0.14","c8fl74pyef","many_one","0","direct_first","1","Eck7rt11","0","24","1","1","3","1","","0","1","0","2786","","","","","pos","GS","GSnew","3","category3/GS2.png","12","targets/27.png","direct","",""
"","image-slider-response","105","484929","0.0-8.0-0.15","c8fl74pyef","many_one","0","direct_first","1","Eck7rt11","0","24","1","1","3","1","","0","1","0","2721","","","","","pos","CS","CS","1","category1/CS3.png","29","targets/15.png","direct","",""
"","image-slider-response","106","487978","0.0-8.0-0.16","c8fl74pyef","many_one","0","direct_first","1","Eck7rt11","0","24","1","1","3","1","","0","1","0","3039","","","","","pos","GS","abstract","3","category3/wang.png","15","targets/48.png","direct","",""
"","image-slider-response","107","490850","0.0-8.0-0.17","c8fl74pyef","many_one","0","direct_first","1","Eck7rt11","0","24","1","1","3","1","","0","1","0","2865","","","","","pos","GS","GSnew","1","category1/GS3.png","21","targets/4.png","direct","",""
"","image-slider-response","108","493210","0.0-8.0-0.18","c8fl74pyef","many_one","0","direct_first","1","Eck7rt11","0","24","1","1","3","1","","0","1","0","2353","","","","","pos","CS","CS","1","category1/CS10.png","40","targets/44.png","direct","",""
"","image-slider-response","109","495729","0.0-8.0-0.19","c8fl74pyef","many_one","0","direct_first","1","Eck7rt11","0","24","1","1","3","1","","0","1","0","2513","","","","","pos","GS","GSold","1","category1/CS8.png","-41","targets/41.png","direct","",""
"","image-slider-response","110","498074","0.0-8.0-0.20","c8fl74pyef","many_one","0","direct_first","1","Eck7rt11","0","24","1","1","3","1","","0","1","0","2336","","","","","neg","CS","CS","4","category4/CS9.png","-56","targets/32.png","direct","",""
"","image-slider-response","111","500178","0.0-8.0-0.21","c8fl74pyef","many_one","0","direct_first","1","Eck7rt11","0","24","1","1","3","1","","0","1","0","2097","","","","","neg","GS","GSold","4","category4/CS8.png","24","targets/8.png","direct","",""
"","image-slider-response","112","502466","0.0-8.0-0.22","c8fl74pyef","many_one","0","direct_first","1","Eck7rt11","0","24","1","1","3","1","","0","1","0","2282","","","","","pos","CS","CS","3","category3/CS7.png","28","targets/11.png","direct","",""
"","image-slider-response","113","505443","0.0-8.0-0.23","c8fl74pyef","many_one","0","direct_first","1","Eck7rt11","0","24","1","1","3","1","","0","1","0","2969","","","","","neg","GS","GSold","2","category2/CS10.png","-81","targets/19.png","direct","",""
"","image-slider-response","114","507618","0.0-8.0-0.24","c8fl74pyef","many_one","0","direct_first","1","Eck7rt11","0","24","1","1","3","1","","0","1","0","2168","","","","","neg","GS","GSnew","4","category4/GS3.png","23","targets/34.png","direct","",""
"","image-slider-response","115","509866","0.0-8.0-0.25","c8fl74pyef","many_one","0","direct_first","1","Eck7rt11","0","24","1","1","3","1","","0","1","0","2241","","","","","neg","CS","CS","2","category2/CS1.png","28","targets/47.png","direct","",""
"","image-slider-response","116","512738","0.0-8.0-0.26","c8fl74pyef","many_one","0","direct_first","1","Eck7rt11","0","24","1","1","3","1","","0","1","0","2865","","","","","pos","CS","CS","3","category3/CS10.png","30","targets/1.png","direct","",""
"","image-slider-response","117","515235","0.0-8.0-0.27","c8fl74pyef","many_one","0","direct_first","1","Eck7rt11","0","24","1","1","3","1","","0","1","0","2489","","","","","pos","CS","CS","1","category1/CS5.png","-51","targets/35.png","direct","",""
"","image-slider-response","118","517371","0.0-8.0-0.28","c8fl74pyef","many_one","0","direct_first","1","Eck7rt11","0","24","1","1","3","1","","0","1","0","2129","","","","","pos","CS","CS","1","category1/CS6.png","37","targets/39.png","direct","",""
"","image-slider-response","119","520211","0.0-8.0-0.29","c8fl74pyef","many_one","0","direct_first","1","Eck7rt11","0","24","1","1","3","1","","0","1","0","2832","","","","","neg","GS","GSold","2","category2/CS2.png","26","targets/3.png","direct","",""
"","image-slider-response","120","522355","0.0-8.0-0.30","c8fl74pyef","many_one","0","direct_first","1","Eck7rt11","0","24","1","1","3","1","","0","1","0","2137","","","","","pos","GS","GSnew","3","category3/GS1.png","24","targets/45.png","direct","",""
"","image-slider-response","121","524396","0.0-8.0-0.31","c8fl74pyef","many_one","0","direct_first","1","Eck7rt11","0","24","1","1","3","1","","0","1","0","2033","","","","","neg","CS","CS","2","category2/CS9.png","-53","targets/38.png","direct","",""
"","image-slider-response","122","526419","0.0-8.0-0.32","c8fl74pyef","many_one","0","direct_first","1","Eck7rt11","0","24","1","1","3","1","","0","1","0","2016","","","","","pos","GS","GSnew","3","category3/GS3.png","18","targets/17.png","direct","",""
"","image-slider-response","123","528394","0.0-8.0-0.33","c8fl74pyef","many_one","0","direct_first","1","Eck7rt11","0","24","1","1","3","1","","0","1","0","1971","","","","","pos","GS","GSold","3","category3/CS6.png","28","targets/36.png","direct","",""
"","image-slider-response","124","530483","0.0-8.0-0.34","c8fl74pyef","many_one","0","direct_first","1","Eck7rt11","0","24","1","1","3","1","","0","1","0","2082","","","","","neg","GS","GSold","4","category4/CS5.png","-51","targets/30.png","direct","",""
"","image-slider-response","125","532395","0.0-8.0-0.35","c8fl74pyef","many_one","0","direct_first","1","Eck7rt11","0","24","1","1","3","1","","0","1","0","1904","","","","","neg","CS","CS","2","category2/CS8.png","28","targets/2.png","direct","",""
"","image-slider-response","126","535116","0.0-8.0-0.36","c8fl74pyef","many_one","0","direct_first","1","Eck7rt11","0","24","1","1","3","1","","0","1","0","2714","","","","","neg","CS","CS","4","category4/CS6.png","-69","targets/6.png","direct","",""
"","image-slider-response","127","540067","0.0-8.0-0.37","c8fl74pyef","many_one","0","direct_first","1","Eck7rt11","0","24","1","1","3","1","","0","1","0","4942","","","","","neg","GS","abstract","4","category4/lin.png","-52","targets/5.png","direct","",""
"","image-slider-response","128","542459","0.0-8.0-0.38","c8fl74pyef","many_one","0","direct_first","1","Eck7rt11","0","24","1","1","3","1","","0","1","0","2384","","","","","neg","GS","GSnew","2","category2/GS1.png","-60","targets/20.png","direct","",""
"","image-slider-response","129","544604","0.0-8.0-0.39","c8fl74pyef","many_one","0","direct_first","1","Eck7rt11","0","24","1","1","3","1","","0","1","0","2137","","","","","neg","GS","GSnew","4","category4/GS1.png","11","targets/7.png","direct","",""
"","image-slider-response","130","547387","0.0-8.0-0.40","c8fl74pyef","many_one","0","direct_first","1","Eck7rt11","0","24","1","1","3","1","","0","1","0","2778","","","","","pos","CS","CS","1","category1/CS7.png","46","targets/12.png","direct","",""
"","image-slider-response","131","549971","0.0-8.0-0.41","c8fl74pyef","many_one","0","direct_first","1","Eck7rt11","0","24","1","1","3","1","","0","1","0","2576","","","","","pos","GS","GSnew","1","category1/GS1.png","-61","targets/22.png","direct","",""
"","image-slider-response","132","552212","0.0-8.0-0.42","c8fl74pyef","many_one","0","direct_first","1","Eck7rt11","0","24","1","1","3","1","","0","1","0","2233","","","","","neg","CS","CS","4","category4/CS7.png","24","targets/23.png","direct","",""
"","image-slider-response","133","554500","0.0-8.0-0.43","c8fl74pyef","many_one","0","direct_first","1","Eck7rt11","0","24","1","1","3","1","","0","1","0","2280","","","","","neg","CS","CS","2","category2/CS6.png","25","targets/13.png","direct","",""
"","image-slider-response","134","557460","0.0-8.0-0.44","c8fl74pyef","many_one","0","direct_first","1","Eck7rt11","0","24","1","1","3","1","","0","1","0","2953","","","","","pos","CS","CS","3","category3/CS3.png","51","targets/37.png","direct","",""
"","image-slider-response","135","559444","0.0-8.0-0.45","c8fl74pyef","many_one","0","direct_first","1","Eck7rt11","0","24","1","1","3","1","","0","1","0","1976","","","","","pos","CS","CS","3","category3/CS1.png","40","targets/18.png","direct","",""
"","image-slider-response","136","561724","0.0-8.0-0.46","c8fl74pyef","many_one","0","direct_first","1","Eck7rt11","0","24","1","1","3","1","","0","1","0","2271","","","","","neg","GS","GSold","2","category2/CS5.png","-53","targets/21.png","direct","",""
"","image-slider-response","137","564404","0.0-8.0-0.47","c8fl74pyef","many_one","0","direct_first","1","Eck7rt11","0","24","1","1","3","1","","0","1","0","2672","","","","","neg","GS","GSnew","2","category2/GS3.png","-47","targets/42.png","direct","",""
"","html-keyboard-response","138","604503","0.0-9.0","c8fl74pyef","many_one","0","direct_first","1","Eck7rt11","0","24","1","1","3","1","","0","1","0","40092","","","<p>Sie sehen nun die chinesischen Zeichen nur ganz kurz. Danach sehen Sie die jeweilige Aussprache der Zeichen als Silbe auf dem Bildschrim. Ihre Aufgabe ist es, für jede Silbe anzugeben, ob diese etwas angenehmes, oder unangenehmes bedeuten könnte. Verlassen Sie sich hier vor allem auf Ihre Intuition.<br><br>Die Zeichen werden nur zur Orientierung dargestellt, beachten Sie sie deshalb nicht. Konzentrieren Sie sich vor allem auf die Silben. <br>Reagieren Sie mit folgenden zwei Tasten: <br><br><b>'D' </b> wenn die Silbe etwas <b>unangenehmes</b> bedeuten könnte. <br><b>'K'</b> wenn die Silbe etwas <b>angenehmes</b> bedeuten könnte. <br><br>Bitte legen Sie nun den Zeigefinger der linken Hand auf die Taste 'D' und den Zeigefinger der rechten Hand auf die Taste 'K'. <br>Reagieren Sie auf jede Silbe so schnell wie möglich. Uns interessiert Ihre spontane Reaktion. <br> <br> <br>Drücken Sie 'D' oder 'K', um die nächste Aufgabe zu starten. </p>","68","","","","","","","","","",""
"","html-keyboard-response","139","607525","0.0-10.0-0.0","c8fl74pyef","many_one","0","direct_first","1","Eck7rt11","0","24","1","1","3","1","","0","1","0","null","","","<div style=""font-size:60px;"">+</div>","null","","","","","","","","","",""
"","html-keyboard-response","140","607634","0.0-10.0-1.0","c8fl74pyef","many_one","0","direct_first","1","Eck7rt11","0","24","1","1","3","1","","0","1","0","null","","","<img src = 'category1/CS3.png' width = '100%;'>","null","","","","","","","","","",""
"","html-keyboard-response","141","607901","0.0-10.0-2.0","c8fl74pyef","many_one","0","direct_first","1","Eck7rt11","0","24","1","1","3","1","","0","1","0","null","","","<img src = 'targets/15.png' width = '100%;'>","null","","","","","","","","","",""
"","html-keyboard-response","142","609745","0.0-10.0-3.0","c8fl74pyef","many_one","0","direct_first","1","Eck7rt11","0","24","1","1","3","1","","0","1","0","1833","","","<img src = 'targets/mask.png' width = '100%;'>","68","pos","CS","CS","1","category1/CS3.png","","targets/15.png","indirect","0","0"
"","html-keyboard-response","143","611264","0.0-10.0-0.1","c8fl74pyef","many_one","0","direct_first","1","Eck7rt11","0","24","1","1","3","1","","0","1","0","null","","","<div style=""font-size:60px;"">+</div>","null","","","","","","","","","",""
"","html-keyboard-response","144","611372","0.0-10.0-1.1","c8fl74pyef","many_one","0","direct_first","1","Eck7rt11","0","24","1","1","3","1","","0","1","0","null","","","<img src = 'category2/CS8.png' width = '100%;'>","null","","","","","","","","","",""
"","html-keyboard-response","145","611643","0.0-10.0-2.1","c8fl74pyef","many_one","0","direct_first","1","Eck7rt11","0","24","1","1","3","1","","0","1","0","null","","","<img src = 'targets/2.png' width = '100%;'>","null","","","","","","","","","",""
"","html-keyboard-response","146","612946","0.0-10.0-3.1","c8fl74pyef","many_one","0","direct_first","1","Eck7rt11","0","24","1","1","3","1","","0","1","0","1297","","","<img src = 'targets/mask.png' width = '100%;'>","75","neg","CS","CS","2","category2/CS8.png","","targets/2.png","indirect","1","1"
"","html-keyboard-response","147","614467","0.0-10.0-0.2","c8fl74pyef","many_one","0","direct_first","1","Eck7rt11","0","24","1","1","3","1","","0","1","0","null","","","<div style=""font-size:60px;"">+</div>","null","","","","","","","","","",""
"","html-keyboard-response","148","614577","0.0-10.0-1.2","c8fl74pyef","many_one","0","direct_first","1","Eck7rt11","0","24","1","1","3","1","","0","1","0","null","","","<img src = 'category3/CS4.png' width = '100%;'>","null","","","","","","","","","",""
"","html-keyboard-response","149","614857","0.0-10.0-2.2","c8fl74pyef","many_one","0","direct_first","1","Eck7rt11","0","24","1","1","3","1","","0","1","0","null","","","<img src = 'targets/29.png' width = '100%;'>","null","","","","","","","","","",""
"","html-keyboard-response","150","616213","0.0-10.0-3.2","c8fl74pyef","many_one","0","direct_first","1","Eck7rt11","0","24","1","1","3","1","","0","1","0","1351","","","<img src = 'targets/mask.png' width = '100%;'>","75","pos","CS","CS","3","category3/CS4.png","","targets/29.png","indirect","1","2"
"","html-keyboard-response","151","617733","0.0-10.0-0.3","c8fl74pyef","many_one","0","direct_first","1","Eck7rt11","0","24","1","1","3","1","","0","1","0","null","","","<div style=""font-size:60px;"">+</div>","null","","","","","","","","","",""
"","html-keyboard-response","152","617841","0.0-10.0-1.3","c8fl74pyef","many_one","0","direct_first","1","Eck7rt11","0","24","1","1","3","1","","0","1","0","null","","","<img src = 'category2/CS3.png' width = '100%;'>","null","","","","","","","","","",""
"","html-keyboard-response","153","618121","0.0-10.0-2.3","c8fl74pyef","many_one","0","direct_first","1","Eck7rt11","0","24","1","1","3","1","","0","1","0","null","","","<img src = 'targets/26.png' width = '100%;'>","null","","","","","","","","","",""
"","html-keyboard-response","154","619198","0.0-10.0-3.3","c8fl74pyef","many_one","0","direct_first","1","Eck7rt11","0","24","1","1","3","1","","0","1","0","1072","","","<img src = 'targets/mask.png' width = '100%;'>","68","neg","CS","CS","2","category2/CS3.png","","targets/26.png","indirect","0","3"
"","html-keyboard-response","155","620707","0.0-10.0-0.4","c8fl74pyef","many_one","0","direct_first","1","Eck7rt11","0","24","1","1","3","1","","0","1","0","null","","","<div style=""font-size:60px;"">+</div>","null","","","","","","","","","",""
"","html-keyboard-response","156","620816","0.0-10.0-1.4","c8fl74pyef","many_one","0","direct_first","1","Eck7rt11","0","24","1","1","3","1","","0","1","0","null","","","<img src = 'category1/CS5.png' width = '100%;'>","null","","","","","","","","","",""
"","html-keyboard-response","157","621084","0.0-10.0-2.4","c8fl74pyef","many_one","0","direct_first","1","Eck7rt11","0","24","1","1","3","1","","0","1","0","null","","","<img src = 'targets/35.png' width = '100%;'>","null","","","","","","","","","",""
"","html-keyboard-response","158","621829","0.0-10.0-3.4","c8fl74pyef","many_one","0","direct_first","1","Eck7rt11","0","24","1","1","3","1","","0","1","0","740","","","<img src = 'targets/mask.png' width = '100%;'>","75","pos","CS","CS","1","category1/CS5.png","","targets/35.png","indirect","1","4"
"","html-keyboard-response","159","623349","0.0-10.0-0.5","c8fl74pyef","many_one","0","direct_first","1","Eck7rt11","0","24","1","1","3","1","","0","1","0","null","","","<div style=""font-size:60px;"">+</div>","null","","","","","","","","","",""
"","html-keyboard-response","160","623443","0.0-10.0-1.5","c8fl74pyef","many_one","0","direct_first","1","Eck7rt11","0","24","1","1","3","1","","0","1","0","null","","","<img src = 'category4/CS4.png' width = '100%;'>","null","","","","","","","","","",""
"","html-keyboard-response","161","623721","0.0-10.0-2.5","c8fl74pyef","many_one","0","direct_first","1","Eck7rt11","0","24","1","1","3","1","","0","1","0","null","","","<img src = 'targets/25.png' width = '100%;'>","null","","","","","","","","","",""
"","html-keyboard-response","162","624502","0.0-10.0-3.5","c8fl74pyef","many_one","0","direct_first","1","Eck7rt11","0","24","1","1","3","1","","0","1","0","776","","","<img src = 'targets/mask.png' width = '100%;'>","75","neg","CS","CS","4","category4/CS4.png","","targets/25.png","indirect","1","5"
"","html-keyboard-response","163","626030","0.0-10.0-0.6","c8fl74pyef","many_one","0","direct_first","1","Eck7rt11","0","24","1","1","3","1","","0","1","0","null","","","<div style=""font-size:60px;"">+</div>","null","","","","","","","","","",""
"","html-keyboard-response","164","626124","0.0-10.0-1.6","c8fl74pyef","many_one","0","direct_first","1","Eck7rt11","0","24","1","1","3","1","","0","1","0","null","","","<img src = 'category3/CS3.png' width = '100%;'>","null","","","","","","","","","",""
"","html-keyboard-response","165","626403","0.0-10.0-2.6","c8fl74pyef","many_one","0","direct_first","1","Eck7rt11","0","24","1","1","3","1","","0","1","0","null","","","<img src = 'targets/37.png' width = '100%;'>","null","","","","","","","","","",""
"","html-keyboard-response","166","626766","0.0-10.0-3.6","c8fl74pyef","many_one","0","direct_first","1","Eck7rt11","0","24","1","1","3","1","","0","1","0","360","","","<img src = 'targets/mask.png' width = '100%;'>","75","pos","CS","CS","3","category3/CS3.png","","targets/37.png","indirect","1","6"
"","html-keyboard-response","167","628288","0.0-10.0-0.7","c8fl74pyef","many_one","0","direct_first","1","Eck7rt11","0","24","1","1","3","1","","0","1","0","null","","","<div style=""font-size:60px;"">+</div>","null","","","","","","","","","",""
"","html-keyboard-response","168","628383","0.0-10.0-1.7","c8fl74pyef","many_one","0","direct_first","1","Eck7rt11","0","24","1","1","3","1","","0","1","0","null","","","<img src = 'category2/CS1.png' width = '100%;'>","null","","","","","","","","","",""
"","html-keyboard-response","169","628661","0.0-10.0-2.7","c8fl74pyef","many_one","0","direct_first","1","Eck7rt11","0","24","1","1","3","1","","0","1","0","null","","","<img src = 'targets/47.png' width = '100%;'>","null","","","","","","","","","",""
"","html-keyboard-response","170","629093","0.0-10.0-3.7","c8fl74pyef","many_one","0","direct_first","1","Eck7rt11","0","24","1","1","3","1","","0","1","0","427","","","<img src = 'targets/mask.png' width = '100%;'>","68","neg","CS","CS","2","category2/CS1.png","","targets/47.png","indirect","0","7"
"","html-keyboard-response","171","630616","0.0-10.0-0.8","c8fl74pyef","many_one","0","direct_first","1","Eck7rt11","0","24","1","1","3","1","","0","1","0","null","","","<div style=""font-size:60px;"">+</div>","null","","","","","","","","","",""
"","html-keyboard-response","172","630724","0.0-10.0-1.8","c8fl74pyef","many_one","0","direct_first","1","Eck7rt11","0","24","1","1","3","1","","0","1","0","null","","","<img src = 'category1/CS6.png' width = '100%;'>","null","","","","","","","","","",""
"","html-keyboard-response","173","631003","0.0-10.0-2.8","c8fl74pyef","many_one","0","direct_first","1","Eck7rt11","0","24","1","1","3","1","","0","1","0","null","","","<img src = 'targets/39.png' width = '100%;'>","null","","","","","","","","","",""
"","html-keyboard-response","174","631730","0.0-10.0-3.8","c8fl74pyef","many_one","0","direct_first","1","Eck7rt11","0","24","1","1","3","1","","0","1","0","724","","","<img src = 'targets/mask.png' width = '100%;'>","75","pos","CS","CS","1","category1/CS6.png","","targets/39.png","indirect","1","8"
"","html-keyboard-response","175","633249","0.0-10.0-0.9","c8fl74pyef","many_one","0","direct_first","1","Eck7rt11","0","24","1","1","3","1","","0","1","0","null","","","<div style=""font-size:60px;"">+</div>","null","","","","","","","","","",""
"","html-keyboard-response","176","633358","0.0-10.0-1.9","c8fl74pyef","many_one","0","direct_first","1","Eck7rt11","0","24","1","1","3","1","","0","1","0","null","","","<img src = 'category1/CS10.png' width = '100%;'>","null","","","","","","","","","",""
"","html-keyboard-response","177","633636","0.0-10.0-2.9","c8fl74pyef","many_one","0","direct_first","1","Eck7rt11","0","24","1","1","3","1","","0","1","0","null","","","<img src = 'targets/44.png' width = '100%;'>","null","","","","","","","","","",""
"","html-keyboard-response","178","634156","0.0-10.0-3.9","c8fl74pyef","many_one","0","direct_first","1","Eck7rt11","0","24","1","1","3","1","","0","1","0","517","","","<img src = 'targets/mask.png' width = '100%;'>","75","pos","CS","CS","1","category1/CS10.png","","targets/44.png","indirect","1","9"
"","html-keyboard-response","179","635668","0.0-10.0-0.10","c8fl74pyef","many_one","0","direct_first","1","Eck7rt11","0","24","1","1","3","1","","0","1","0","null","","","<div style=""font-size:60px;"">+</div>","null","","","","","","","","","",""
"","html-keyboard-response","180","635761","0.0-10.0-1.10","c8fl74pyef","many_one","0","direct_first","1","Eck7rt11","0","24","1","1","3","1","","0","1","0","null","","","<img src = 'category4/CS8.png' width = '100%;'>","null","","","","","","","","","",""
"","html-keyboard-response","181","636040","0.0-10.0-2.10","c8fl74pyef","many_one","0","direct_first","1","Eck7rt11","0","24","1","1","3","1","","0","1","0","null","","","<img src = 'targets/8.png' width = '100%;'>","null","","","","","","","","","",""
"","html-keyboard-response","182","637051","0.0-10.0-3.10","c8fl74pyef","many_one","0","direct_first","1","Eck7rt11","0","24","1","1","3","1","","0","1","0","1009","","","<img src = 'targets/mask.png' width = '100%;'>","68","neg","GS","GSold","4","category4/CS8.png","","targets/8.png","indirect","0","10"
"","html-keyboard-response","183","638569","0.0-10.0-0.11","c8fl74pyef","many_one","0","direct_first","1","Eck7rt11","0","24","1","1","3","1","","0","1","0","null","","","<div style=""font-size:60px;"">+</div>","null","","","","","","","","","",""
"","html-keyboard-response","184","638662","0.0-10.0-1.11","c8fl74pyef","many_one","0","direct_first","1","Eck7rt11","0","24","1","1","3","1","","0","1","0","null","","","<img src = 'category4/CS2.png' width = '100%;'>","null","","","","","","","","","",""
"","html-keyboard-response","185","638942","0.0-10.0-2.11","c8fl74pyef","many_one","0","direct_first","1","Eck7rt11","0","24","1","1","3","1","","0","1","0","null","","","<img src = 'targets/31.png' width = '100%;'>","null","","","","","","","","","",""
"","html-keyboard-response","186","639630","0.0-10.0-3.11","c8fl74pyef","many_one","0","direct_first","1","Eck7rt11","0","24","1","1","3","1","","0","1","0","685","","","<img src = 'targets/mask.png' width = '100%;'>","68","neg","GS","GSold","4","category4/CS2.png","","targets/31.png","indirect","0","11"
"","html-keyboard-response","187","641145","0.0-10.0-0.12","c8fl74pyef","many_one","0","direct_first","1","Eck7rt11","0","24","1","1","3","1","","0","1","0","null","","","<div style=""font-size:60px;"">+</div>","null","","","","","","","","","",""
"","html-keyboard-response","188","641239","0.0-10.0-1.12","c8fl74pyef","many_one","0","direct_first","1","Eck7rt11","0","24","1","1","3","1","","0","1","0","null","","","<img src = 'category4/CS6.png' width = '100%;'>","null","","","","","","","","","",""
"","html-keyboard-response","189","641518","0.0-10.0-2.12","c8fl74pyef","many_one","0","direct_first","1","Eck7rt11","0","24","1","1","3","1","","0","1","0","null","","","<img src = 'targets/6.png' width = '100%;'>","null","","","","","","","","","",""
"","html-keyboard-response","190","642339","0.0-10.0-3.12","c8fl74pyef","many_one","0","direct_first","1","Eck7rt11","0","24","1","1","3","1","","0","1","0","818","","","<img src = 'targets/mask.png' width = '100%;'>","68","neg","CS","CS","4","category4/CS6.png","","targets/6.png","indirect","0","12"
"","html-keyboard-response","191","643858","0.0-10.0-0.13","c8fl74pyef","many_one","0","direct_first","1","Eck7rt11","0","24","1","1","3","1","","0","1","0","null","","","<div style=""font-size:60px;"">+</div>","null","","","","","","","","","",""
"","html-keyboard-response","192","643967","0.0-10.0-1.13","c8fl74pyef","many_one","0","direct_first","1","Eck7rt11","0","24","1","1","3","1","","0","1","0","null","","","<img src = 'category3/CS7.png' width = '100%;'>","null","","","","","","","","","",""
"","html-keyboard-response","193","644246","0.0-10.0-2.13","c8fl74pyef","many_one","0","direct_first","1","Eck7rt11","0","24","1","1","3","1","","0","1","0","null","","","<img src = 'targets/11.png' width = '100%;'>","null","","","","","","","","","",""
"","html-keyboard-response","194","645041","0.0-10.0-3.13","c8fl74pyef","many_one","0","direct_first","1","Eck7rt11","0","24","1","1","3","1","","0","1","0","790","","","<img src = 'targets/mask.png' width = '100%;'>","75","pos","CS","CS","3","category3/CS7.png","","targets/11.png","indirect","1","13"
"","html-keyboard-response","195","646549","0.0-10.0-0.14","c8fl74pyef","many_one","0","direct_first","1","Eck7rt11","0","24","1","1","3","1","","0","1","0","null","","","<div style=""font-size:60px;"">+</div>","null","","","","","","","","","",""
"","html-keyboard-response","196","646658","0.0-10.0-1.14","c8fl74pyef","many_one","0","direct_first","1","Eck7rt11","0","24","1","1","3","1","","0","1","0","null","","","<img src = 'category4/CS9.png' width = '100%;'>","null","","","","","","","","","",""
"","html-keyboard-response","197","646928","0.0-10.0-2.14","c8fl74pyef","many_one","0","direct_first","1","Eck7rt11","0","24","1","1","3","1","","0","1","0","null","","","<img src = 'targets/32.png' width = '100%;'>","null","","","","","","","","","",""
"","html-keyboard-response","198","648231","0.0-10.0-3.14","c8fl74pyef","many_one","0","direct_first","1","Eck7rt11","0","24","1","1","3","1","","0","1","0","1298","","","<img src = 'targets/mask.png' width = '100%;'>","68","neg","CS","CS","4","category4/CS9.png","","targets/32.png","indirect","0","14"
"","html-keyboard-response","199","649740","0.0-10.0-0.15","c8fl74pyef","many_one","0","direct_first","1","Eck7rt11","0","24","1","1","3","1","","0","1","0","null","","","<div style=""font-size:60px;"">+</div>","null","","","","","","","","","",""
"","html-keyboard-response","200","649833","0.0-10.0-1.15","c8fl74pyef","many_one","0","direct_first","1","Eck7rt11","0","24","1","1","3","1","","0","1","0","null","","","<img src = 'category4/CS7.png' width = '100%;'>","null","","","","","","","","","",""
"","html-keyboard-response","201","650104","0.0-10.0-2.15","c8fl74pyef","many_one","0","direct_first","1","Eck7rt11","0","24","1","1","3","1","","0","1","0","null","","","<img src = 'targets/23.png' width = '100%;'>","null","","","","","","","","","",""
"","html-keyboard-response","202","650706","0.0-10.0-3.15","c8fl74pyef","many_one","0","direct_first","1","Eck7rt11","0","24","1","1","3","1","","0","1","0","600","","","<img src = 'targets/mask.png' width = '100%;'>","75","neg","CS","CS","4","category4/CS7.png","","targets/23.png","indirect","1","15"
"","html-keyboard-response","203","652220","0.0-10.0-0.16","c8fl74pyef","many_one","0","direct_first","1","Eck7rt11","0","24","1","1","3","1","","0","1","0","null","","","<div style=""font-size:60px;"">+</div>","null","","","","","","","","","",""
"","html-keyboard-response","204","652329","0.0-10.0-1.16","c8fl74pyef","many_one","0","direct_first","1","Eck7rt11","0","24","1","1","3","1","","0","1","0","null","","","<img src = 'category3/CS1.png' width = '100%;'>","null","","","","","","","","","",""
"","html-keyboard-response","205","652609","0.0-10.0-2.16","c8fl74pyef","many_one","0","direct_first","1","Eck7rt11","0","24","1","1","3","1","","0","1","0","null","","","<img src = 'targets/18.png' width = '100%;'>","null","","","","","","","","","",""
"","html-keyboard-response","206","653225","0.0-10.0-3.16","c8fl74pyef","many_one","0","direct_first","1","Eck7rt11","0","24","1","1","3","1","","0","1","0","613","","","<img src = 'targets/mask.png' width = '100%;'>","68","pos","CS","CS","3","category3/CS1.png","","targets/18.png","indirect","0","16"
"","html-keyboard-response","207","654748","0.0-10.0-0.17","c8fl74pyef","many_one","0","direct_first","1","Eck7rt11","0","24","1","1","3","1","","0","1","0","null","","","<div style=""font-size:60px;"">+</div>","null","","","","","","","","","",""
"","html-keyboard-response","208","654857","0.0-10.0-1.17","c8fl74pyef","many_one","0","direct_first","1","Eck7rt11","0","24","1","1","3","1","","0","1","0","null","","","<img src = 'category3/CS8.png' width = '100%;'>","null","","","","","","","","","",""
"","html-keyboard-response","209","655135","0.0-10.0-2.17","c8fl74pyef","many_one","0","direct_first","1","Eck7rt11","0","24","1","1","3","1","","0","1","0","null","","","<img src = 'targets/24.png' width = '100%;'>","null","","","","","","","","","",""
"","html-keyboard-response","210","655879","0.0-10.0-3.17","c8fl74pyef","many_one","0","direct_first","1","Eck7rt11","0","24","1","1","3","1","","0","1","0","741","","","<img src = 'targets/mask.png' width = '100%;'>","75","pos","GS","GSold","3","category3/CS8.png","","targets/24.png","indirect","1","17"
"","html-keyboard-response","211","657391","0.0-10.0-0.18","c8fl74pyef","many_one","0","direct_first","1","Eck7rt11","0","24","1","1","3","1","","0","1","0","null","","","<div style=""font-size:60px;"">+</div>","null","","","","","","","","","",""
"","html-keyboard-response","212","657500","0.0-10.0-1.18","c8fl74pyef","many_one","0","direct_first","1","Eck7rt11","0","24","1","1","3","1","","0","1","0","null","","","<img src = 'category2/CS9.png' width = '100%;'>","null","","","","","","","","","",""
"","html-keyboard-response","213","657766","0.0-10.0-2.18","c8fl74pyef","many_one","0","direct_first","1","Eck7rt11","0","24","1","1","3","1","","0","1","0","null","","","<img src = 'targets/38.png' width = '100%;'>","null","","","","","","","","","",""
"","html-keyboard-response","214","658389","0.0-10.0-3.18","c8fl74pyef","many_one","0","direct_first","1","Eck7rt11","0","24","1","1","3","1","","0","1","0","618","","","<img src = 'targets/mask.png' width = '100%;'>","68","neg","CS","CS","2","category2/CS9.png","","targets/38.png","indirect","0","18"
"","html-keyboard-response","215","659919","0.0-10.0-0.19","c8fl74pyef","many_one","0","direct_first","1","Eck7rt11","0","24","1","1","3","1","","0","1","0","null","","","<div style=""font-size:60px;"">+</div>","null","","","","","","","","","",""
"","html-keyboard-response","216","660013","0.0-10.0-1.19","c8fl74pyef","many_one","0","direct_first","1","Eck7rt11","0","24","1","1","3","1","","0","1","0","null","","","<img src = 'category3/CS10.png' width = '100%;'>","null","","","","","","","","","",""
"","html-keyboard-response","217","660284","0.0-10.0-2.19","c8fl74pyef","many_one","0","direct_first","1","Eck7rt11","0","24","1","1","3","1","","0","1","0","null","","","<img src = 'targets/1.png' width = '100%;'>","null","","","","","","","","","",""
"","html-keyboard-response","218","661074","0.0-10.0-3.19","c8fl74pyef","many_one","0","direct_first","1","Eck7rt11","0","24","1","1","3","1","","0","1","0","786","","","<img src = 'targets/mask.png' width = '100%;'>","68","pos","CS","CS","3","category3/CS10.png","","targets/1.png","indirect","0","19"
"","html-keyboard-response","219","662595","0.0-10.0-0.20","c8fl74pyef","many_one","0","direct_first","1","Eck7rt11","0","24","1","1","3","1","","0","1","0","null","","","<div style=""font-size:60px;"">+</div>","null","","","","","","","","","",""
"","html-keyboard-response","220","662704","0.0-10.0-1.20","c8fl74pyef","many_one","0","direct_first","1","Eck7rt11","0","24","1","1","3","1","","0","1","0","null","","","<img src = 'category4/CS5.png' width = '100%;'>","null","","","","","","","","","",""
"","html-keyboard-response","221","662974","0.0-10.0-2.20","c8fl74pyef","many_one","0","direct_first","1","Eck7rt11","0","24","1","1","3","1","","0","1","0","null","","","<img src = 'targets/30.png' width = '100%;'>","null","","","","","","","","","",""
"","html-keyboard-response","222","663976","0.0-10.0-3.20","c8fl74pyef","many_one","0","direct_first","1","Eck7rt11","0","24","1","1","3","1","","0","1","0","999","","","<img src = 'targets/mask.png' width = '100%;'>","75","neg","GS","GSold","4","category4/CS5.png","","targets/30.png","indirect","1","20"
"","html-keyboard-response","223","665497","0.0-10.0-0.21","c8fl74pyef","many_one","0","direct_first","1","Eck7rt11","0","24","1","1","3","1","","0","1","0","null","","","<div style=""font-size:60px;"">+</div>","null","","","","","","","","","",""
"","html-keyboard-response","224","665606","0.0-10.0-1.21","c8fl74pyef","many_one","0","direct_first","1","Eck7rt11","0","24","1","1","3","1","","0","1","0","null","","","<img src = 'category4/CS10.png' width = '100%;'>","null","","","","","","","","","",""
"","html-keyboard-response","225","665871","0.0-10.0-2.21","c8fl74pyef","many_one","0","direct_first","1","Eck7rt11","0","24","1","1","3","1","","0","1","0","null","","","<img src = 'targets/14.png' width = '100%;'>","null","","","","","","","","","",""
"","html-keyboard-response","226","666860","0.0-10.0-3.21","c8fl74pyef","many_one","0","direct_first","1","Eck7rt11","0","24","1","1","3","1","","0","1","0","983","","","<img src = 'targets/mask.png' width = '100%;'>","68","neg","CS","CS","4","category4/CS10.png","","targets/14.png","indirect","0","21"
"","html-keyboard-response","227","668380","0.0-10.0-0.22","c8fl74pyef","many_one","0","direct_first","1","Eck7rt11","0","24","1","1","3","1","","0","1","0","null","","","<div style=""font-size:60px;"">+</div>","null","","","","","","","","","",""
"","html-keyboard-response","228","668473","0.0-10.0-1.22","c8fl74pyef","many_one","0","direct_first","1","Eck7rt11","0","24","1","1","3","1","","0","1","0","null","","","<img src = 'category1/CS7.png' width = '100%;'>","null","","","","","","","","","",""
"","html-keyboard-response","229","668751","0.0-10.0-2.22","c8fl74pyef","many_one","0","direct_first","1","Eck7rt11","0","24","1","1","3","1","","0","1","0","null","","","<img src = 'targets/12.png' width = '100%;'>","null","","","","","","","","","",""
"","html-keyboard-response","230","669363","0.0-10.0-3.22","c8fl74pyef","many_one","0","direct_first","1","Eck7rt11","0","24","1","1","3","1","","0","1","0","608","","","<img src = 'targets/mask.png' width = '100%;'>","75","pos","CS","CS","1","category1/CS7.png","","targets/12.png","indirect","1","22"
"","html-keyboard-response","231","670888","0.0-10.0-0.23","c8fl74pyef","many_one","0","direct_first","1","Eck7rt11","0","24","1","1","3","1","","0","1","0","null","","","<div style=""font-size:60px;"">+</div>","null","","","","","","","","","",""
"","html-keyboard-response","232","670998","0.0-10.0-1.23","c8fl74pyef","many_one","0","direct_first","1","Eck7rt11","0","24","1","1","3","1","","0","1","0","null","","","<img src = 'category2/CS6.png' width = '100%;'>","null","","","","","","","","","",""
"","html-keyboard-response","233","671275","0.0-10.0-2.23","c8fl74pyef","many_one","0","direct_first","1","Eck7rt11","0","24","1","1","3","1","","0","1","0","null","","","<img src = 'targets/13.png' width = '100%;'>","null","","","","","","","","","",""
"","html-keyboard-response","234","672154","0.0-10.0-3.23","c8fl74pyef","many_one","0","direct_first","1","Eck7rt11","0","24","1","1","3","1","","0","1","0","874","","","<img src = 'targets/mask.png' width = '100%;'>","75","neg","CS","CS","2","category2/CS6.png","","targets/13.png","indirect","1","23"
"","survey-html-form","235","679438","0.0-11.0","c8fl74pyef","many_one","0","direct_first","1","Eck7rt11","0","24","1","1","3","1","","0","1","0","6778","","{}","","","","","","","","","","","",""
"","html-keyboard-response","236","682460","0.0-12.0-0.0","c8fl74pyef","many_one","0","direct_first","1","Eck7rt11","0","24","1","1","3","1","","0","1","0","null","","","<div style=""font-size:60px;"">+</div>","null","","","","","","","","","",""
"","html-keyboard-response","237","682555","0.0-12.0-1.0","c8fl74pyef","many_one","0","direct_first","1","Eck7rt11","0","24","1","1","3","1","","0","1","0","null","","","<img src = 'category3/CS6.png' width = '100%;'>","null","","","","","","","","","",""
"","html-keyboard-response","238","682815","0.0-12.0-2.0","c8fl74pyef","many_one","0","direct_first","1","Eck7rt11","0","24","1","1","3","1","","0","1","0","null","","","<img src = 'targets/36.png' width = '100%;'>","null","","","","","","","","","",""
"","html-keyboard-response","239","683310","0.0-12.0-3.0","c8fl74pyef","many_one","0","direct_first","1","Eck7rt11","0","24","1","1","3","1","","0","1","0","492","","","<img src = 'targets/mask.png' width = '100%;'>","68","pos","GS","GSold","3","category3/CS6.png","","targets/36.png","indirect","0","24"
"","html-keyboard-response","240","684841","0.0-12.0-0.1","c8fl74pyef","many_one","0","direct_first","1","Eck7rt11","0","24","1","1","3","1","","0","1","0","null","","","<div style=""font-size:60px;"">+</div>","null","","","","","","","","","",""
"","html-keyboard-response","241","684940","0.0-12.0-1.1","c8fl74pyef","many_one","0","direct_first","1","Eck7rt11","0","24","1","1","3","1","","0","1","0","null","","","<img src = 'category2/CS2.png' width = '100%;'>","null","","","","","","","","","",""
"","html-keyboard-response","242","685218","0.0-12.0-2.1","c8fl74pyef","many_one","0","direct_first","1","Eck7rt11","0","24","1","1","3","1","","0","1","0","null","","","<img src = 'targets/3.png' width = '100%;'>","null","","","","","","","","","",""
"","html-keyboard-response","243","685725","0.0-12.0-3.1","c8fl74pyef","many_one","0","direct_first","1","Eck7rt11","0","24","1","1","3","1","","0","1","0","503","","","<img src = 'targets/mask.png' width = '100%;'>","68","neg","GS","GSold","2","category2/CS2.png","","targets/3.png","indirect","0","25"
"","html-keyboard-response","244","687245","0.0-12.0-0.2","c8fl74pyef","many_one","0","direct_first","1","Eck7rt11","0","24","1","1","3","1","","0","1","0","null","","","<div style=""font-size:60px;"">+</div>","null","","","","","","","","","",""
"","html-keyboard-response","245","687338","0.0-12.0-1.2","c8fl74pyef","many_one","0","direct_first","1","Eck7rt11","0","24","1","1","3","1","","0","1","0","null","","","<img src = 'category1/CS9.png' width = '100%;'>","null","","","","","","","","","",""
"","html-keyboard-response","246","687605","0.0-12.0-2.2","c8fl74pyef","many_one","0","direct_first","1","Eck7rt11","0","24","1","1","3","1","","0","1","0","null","","","<img src = 'targets/46.png' width = '100%;'>","null","","","","","","","","","",""
"","html-keyboard-response","247","688125","0.0-12.0-3.2","c8fl74pyef","many_one","0","direct_first","1","Eck7rt11","0","24","1","1","3","1","","0","1","0","515","","","<img src = 'targets/mask.png' width = '100%;'>","75","pos","GS","GSold","1","category1/CS9.png","","targets/46.png","indirect","1","26"
"","html-keyboard-response","248","689653","0.0-12.0-0.3","c8fl74pyef","many_one","0","direct_first","1","Eck7rt11","0","24","1","1","3","1","","0","1","0","null","","","<div style=""font-size:60px;"">+</div>","null","","","","","","","","","",""
"","html-keyboard-response","249","689761","0.0-12.0-1.3","c8fl74pyef","many_one","0","direct_first","1","Eck7rt11","0","24","1","1","3","1","","0","1","0","null","","","<img src = 'category2/men.png' width = '100%;'>","null","","","","","","","","","",""
"","html-keyboard-response","250","690040","0.0-12.0-2.3","c8fl74pyef","many_one","0","direct_first","1","Eck7rt11","0","24","1","1","3","1","","0","1","0","null","","","<img src = 'targets/10.png' width = '100%;'>","null","","","","","","","","","",""
"","html-keyboard-response","251","690265","0.0-12.0-3.3","c8fl74pyef","many_one","0","direct_first","1","Eck7rt11","0","24","1","1","3","1","","0","1","0","221","","","<img src = 'targets/mask.png' width = '100%;'>","68","neg","GS","abstract","2","category2/men.png","","targets/10.png","indirect","0","27"
"","html-keyboard-response","252","691780","0.0-12.0-0.4","c8fl74pyef","many_one","0","direct_first","1","Eck7rt11","0","24","1","1","3","1","","0","1","0","null","","","<div style=""font-size:60px;"">+</div>","null","","","","","","","","","",""
"","html-keyboard-response","253","691889","0.0-12.0-1.4","c8fl74pyef","many_one","0","direct_first","1","Eck7rt11","0","24","1","1","3","1","","0","1","0","null","","","<img src = 'category4/GS1.png' width = '100%;'>","null","","","","","","","","","",""
"","html-keyboard-response","254","692158","0.0-12.0-2.4","c8fl74pyef","many_one","0","direct_first","1","Eck7rt11","0","24","1","1","3","1","","0","1","0","null","","","<img src = 'targets/7.png' width = '100%;'>","null","","","","","","","","","",""
"","html-keyboard-response","255","692682","0.0-12.0-3.4","c8fl74pyef","many_one","0","direct_first","1","Eck7rt11","0","24","1","1","3","1","","0","1","0","520","","","<img src = 'targets/mask.png' width = '100%;'>","75","neg","GS","GSnew","4","category4/GS1.png","","targets/7.png","indirect","1","28"
"","html-keyboard-response","256","694189","0.0-12.0-0.5","c8fl74pyef","many_one","0","direct_first","1","Eck7rt11","0","24","1","1","3","1","","0","1","0","null","","","<div style=""font-size:60px;"">+</div>","null","","","","","","","","","",""
"","html-keyboard-response","257","694296","0.0-12.0-1.5","c8fl74pyef","many_one","0","direct_first","1","Eck7rt11","0","24","1","1","3","1","","0","1","0","null","","","<img src = 'category1/CS8.png' width = '100%;'>","null","","","","","","","","","",""
"","html-keyboard-response","258","694564","0.0-12.0-2.5","c8fl74pyef","many_one","0","direct_first","1","Eck7rt11","0","24","1","1","3","1","","0","1","0","null","","","<img src = 'targets/41.png' width = '100%;'>","null","","","","","","","","","",""
"","html-keyboard-response","259","695067","0.0-12.0-3.5","c8fl74pyef","many_one","0","direct_first","1","Eck7rt11","0","24","1","1","3","1","","0","1","0","498","","","<img src = 'targets/mask.png' width = '100%;'>","68","pos","GS","GSold","1","category1/CS8.png","","targets/41.png","indirect","0","29"
"","html-keyboard-response","260","696591","0.0-12.0-0.6","c8fl74pyef","many_one","0","direct_first","1","Eck7rt11","0","24","1","1","3","1","","0","1","0","null","","","<div style=""font-size:60px;"">+</div>","null","","","","","","","","","",""
"","html-keyboard-response","261","696701","0.0-12.0-1.6","c8fl74pyef","many_one","0","direct_first","1","Eck7rt11","0","24","1","1","3","1","","0","1","0","null","","","<img src = 'category2/GS2.png' width = '100%;'>","null","","","","","","","","","",""
"","html-keyboard-response","262","696981","0.0-12.0-2.6","c8fl74pyef","many_one","0","direct_first","1","Eck7rt11","0","24","1","1","3","1","","0","1","0","null","","","<img src = 'targets/9.png' width = '100%;'>","null","","","","","","","","","",""
"","html-keyboard-response","263","697791","0.0-12.0-3.6","c8fl74pyef","many_one","0","direct_first","1","Eck7rt11","0","24","1","1","3","1","","0","1","0","806","","","<img src = 'targets/mask.png' width = '100%;'>","68","neg","GS","GSnew","2","category2/GS2.png","","targets/9.png","indirect","0","30"
"","html-keyboard-response","264","699316","0.0-12.0-0.7","c8fl74pyef","many_one","0","direct_first","1","Eck7rt11","0","24","1","1","3","1","","0","1","0","null","","","<div style=""font-size:60px;"">+</div>","null","","","","","","","","","",""
"","html-keyboard-response","265","699410","0.0-12.0-1.7","c8fl74pyef","many_one","0","direct_first","1","Eck7rt11","0","24","1","1","3","1","","0","1","0","null","","","<img src = 'category3/GS3.png' width = '100%;'>","null","","","","","","","","","",""
"","html-keyboard-response","266","699688","0.0-12.0-2.7","c8fl74pyef","many_one","0","direct_first","1","Eck7rt11","0","24","1","1","3","1","","0","1","0","null","","","<img src = 'targets/17.png' width = '100%;'>","null","","","","","","","","","",""
"","html-keyboard-response","267","700086","0.0-12.0-3.7","c8fl74pyef","many_one","0","direct_first","1","Eck7rt11","0","24","1","1","3","1","","0","1","0","394","","","<img src = 'targets/mask.png' width = '100%;'>","75","pos","GS","GSnew","3","category3/GS3.png","","targets/17.png","indirect","1","31"
"","html-keyboard-response","268","701589","0.0-12.0-0.8","c8fl74pyef","many_one","0","direct_first","1","Eck7rt11","0","24","1","1","3","1","","0","1","0","null","","","<div style=""font-size:60px;"">+</div>","null","","","","","","","","","",""
"","html-keyboard-response","269","701697","0.0-12.0-1.8","c8fl74pyef","many_one","0","direct_first","1","Eck7rt11","0","24","1","1","3","1","","0","1","0","null","","","<img src = 'category1/GS3.png' width = '100%;'>","null","","","","","","","","","",""
"","html-keyboard-response","270","701977","0.0-12.0-2.8","c8fl74pyef","many_one","0","direct_first","1","Eck7rt11","0","24","1","1","3","1","","0","1","0","null","","","<img src = 'targets/4.png' width = '100%;'>","null","","","","","","","","","",""
"","html-keyboard-response","271","702362","0.0-12.0-3.8","c8fl74pyef","many_one","0","direct_first","1","Eck7rt11","0","24","1","1","3","1","","0","1","0","381","","","<img src = 'targets/mask.png' width = '100%;'>","68","pos","GS","GSnew","1","category1/GS3.png","","targets/4.png","indirect","0","32"
"","html-keyboard-response","272","703867","0.0-12.0-0.9","c8fl74pyef","many_one","0","direct_first","1","Eck7rt11","0","24","1","1","3","1","","0","1","0","null","","","<div style=""font-size:60px;"">+</div>","null","","","","","","","","","",""
"","html-keyboard-response","273","703976","0.0-12.0-1.9","c8fl74pyef","many_one","0","direct_first","1","Eck7rt11","0","24","1","1","3","1","","0","1","0","null","","","<img src = 'category4/lin.png' width = '100%;'>","null","","","","","","","","","",""
"","html-keyboard-response","274","704241","0.0-12.0-2.9","c8fl74pyef","many_one","0","direct_first","1","Eck7rt11","0","24","1","1","3","1","","0","1","0","null","","","<img src = 'targets/5.png' width = '100%;'>","null","","","","","","","","","",""
"","html-keyboard-response","275","704593","0.0-12.0-3.9","c8fl74pyef","many_one","0","direct_first","1","Eck7rt11","0","24","1","1","3","1","","0","1","0","348","","","<img src = 'targets/mask.png' width = '100%;'>","68","neg","GS","abstract","4","category4/lin.png","","targets/5.png","indirect","0","33"
"","html-keyboard-response","276","706111","0.0-12.0-0.10","c8fl74pyef","many_one","0","direct_first","1","Eck7rt11","0","24","1","1","3","1","","0","1","0","null","","","<div style=""font-size:60px;"">+</div>","null","","","","","","","","","",""
"","html-keyboard-response","277","706220","0.0-12.0-1.10","c8fl74pyef","many_one","0","direct_first","1","Eck7rt11","0","24","1","1","3","1","","0","1","0","null","","","<img src = 'category4/GS3.png' width = '100%;'>","null","","","","","","","","","",""
"","html-keyboard-response","278","706499","0.0-12.0-2.10","c8fl74pyef","many_one","0","direct_first","1","Eck7rt11","0","24","1","1","3","1","","0","1","0","null","","","<img src = 'targets/34.png' width = '100%;'>","null","","","","","","","","","",""
"","html-keyboard-response","279","706976","0.0-12.0-3.10","c8fl74pyef","many_one","0","direct_first","1","Eck7rt11","0","24","1","1","3","1","","0","1","0","474","","","<img src = 'targets/mask.png' width = '100%;'>","68","neg","GS","GSnew","4","category4/GS3.png","","targets/34.png","indirect","0","34"
"","html-keyboard-response","280","708482","0.0-12.0-0.11","c8fl74pyef","many_one","0","direct_first","1","Eck7rt11","0","24","1","1","3","1","","0","1","0","null","","","<div style=""font-size:60px;"">+</div>","null","","","","","","","","","",""
"","html-keyboard-response","281","708582","0.0-12.0-1.11","c8fl74pyef","many_one","0","direct_first","1","Eck7rt11","0","24","1","1","3","1","","0","1","0","null","","","<img src = 'category1/GS2.png' width = '100%;'>","null","","","","","","","","","",""
"","html-keyboard-response","282","708838","0.0-12.0-2.11","c8fl74pyef","many_one","0","direct_first","1","Eck7rt11","0","24","1","1","3","1","","0","1","0","null","","","<img src = 'targets/33.png' width = '100%;'>","null","","","","","","","","","",""
"","html-keyboard-response","283","709318","0.0-12.0-3.11","c8fl74pyef","many_one","0","direct_first","1","Eck7rt11","0","24","1","1","3","1","","0","1","0","476","","","<img src = 'targets/mask.png' width = '100%;'>","75","pos","GS","GSnew","1","category1/GS2.png","","targets/33.png","indirect","1","35"
"","html-keyboard-response","284","710836","0.0-12.0-0.12","c8fl74pyef","many_one","0","direct_first","1","Eck7rt11","0","24","1","1","3","1","","0","1","0","null","","","<div style=""font-size:60px;"">+</div>","null","","","","","","","","","",""
"","html-keyboard-response","285","710945","0.0-12.0-1.12","c8fl74pyef","many_one","0","direct_first","1","Eck7rt11","0","24","1","1","3","1","","0","1","0","null","","","<img src = 'category1/ma.png' width = '100%;'>","null","","","","","","","","","",""
"","html-keyboard-response","286","711222","0.0-12.0-2.12","c8fl74pyef","many_one","0","direct_first","1","Eck7rt11","0","24","1","1","3","1","","0","1","0","null","","","<img src = 'targets/16.png' width = '100%;'>","null","","","","","","","","","",""
"","html-keyboard-response","287","711814","0.0-12.0-3.12","c8fl74pyef","many_one","0","direct_first","1","Eck7rt11","0","24","1","1","3","1","","0","1","0","590","","","<img src = 'targets/mask.png' width = '100%;'>","75","pos","GS","abstract","1","category1/ma.png","","targets/16.png","indirect","1","36"
"","html-keyboard-response","288","713334","0.0-12.0-0.13","c8fl74pyef","many_one","0","direct_first","1","Eck7rt11","0","24","1","1","3","1","","0","1","0","null","","","<div style=""font-size:60px;"">+</div>","null","","","","","","","","","",""
"","html-keyboard-response","289","713427","0.0-12.0-1.13","c8fl74pyef","many_one","0","direct_first","1","Eck7rt11","0","24","1","1","3","1","","0","1","0","null","","","<img src = 'category3/wang.png' width = '100%;'>","null","","","","","","","","","",""
"","html-keyboard-response","290","713696","0.0-12.0-2.13","c8fl74pyef","many_one","0","direct_first","1","Eck7rt11","0","24","1","1","3","1","","0","1","0","null","","","<img src = 'targets/48.png' width = '100%;'>","null","","","","","","","","","",""
"","html-keyboard-response","291","714245","0.0-12.0-3.13","c8fl74pyef","many_one","0","direct_first","1","Eck7rt11","0","24","1","1","3","1","","0","1","0","544","","","<img src = 'targets/mask.png' width = '100%;'>","75","pos","GS","abstract","3","category3/wang.png","","targets/48.png","indirect","1","37"
"","html-keyboard-response","292","715755","0.0-12.0-0.14","c8fl74pyef","many_one","0","direct_first","1","Eck7rt11","0","24","1","1","3","1","","0","1","0","null","","","<div style=""font-size:60px;"">+</div>","null","","","","","","","","","",""
"","html-keyboard-response","293","715864","0.0-12.0-1.14","c8fl74pyef","many_one","0","direct_first","1","Eck7rt11","0","24","1","1","3","1","","0","1","0","null","","","<img src = 'category3/GS1.png' width = '100%;'>","null","","","","","","","","","",""
"","html-keyboard-response","294","716132","0.0-12.0-2.14","c8fl74pyef","many_one","0","direct_first","1","Eck7rt11","0","24","1","1","3","1","","0","1","0","null","","","<img src = 'targets/45.png' width = '100%;'>","null","","","","","","","","","",""
"","html-keyboard-response","295","716829","0.0-12.0-3.14","c8fl74pyef","many_one","0","direct_first","1","Eck7rt11","0","24","1","1","3","1","","0","1","0","693","","","<img src = 'targets/mask.png' width = '100%;'>","75","pos","GS","GSnew","3","category3/GS1.png","","targets/45.png","indirect","1","38"
"","html-keyboard-response","296","718349","0.0-12.0-0.15","c8fl74pyef","many_one","0","direct_first","1","Eck7rt11","0","24","1","1","3","1","","0","1","0","null","","","<div style=""font-size:60px;"">+</div>","null","","","","","","","","","",""
"","html-keyboard-response","297","718458","0.0-12.0-1.15","c8fl74pyef","many_one","0","direct_first","1","Eck7rt11","0","24","1","1","3","1","","0","1","0","null","","","<img src = 'category3/CS2.png' width = '100%;'>","null","","","","","","","","","",""
"","html-keyboard-response","298","718737","0.0-12.0-2.15","c8fl74pyef","many_one","0","direct_first","1","Eck7rt11","0","24","1","1","3","1","","0","1","0","null","","","<img src = 'targets/28.png' width = '100%;'>","null","","","","","","","","","",""
"","html-keyboard-response","299","719194","0.0-12.0-3.15","c8fl74pyef","many_one","0","direct_first","1","Eck7rt11","0","24","1","1","3","1","","0","1","0","455","","","<img src = 'targets/mask.png' width = '100%;'>","75","pos","GS","GSold","3","category3/CS2.png","","targets/28.png","indirect","1","39"
"","html-keyboard-response","300","720729","0.0-12.0-0.16","c8fl74pyef","many_one","0","direct_first","1","Eck7rt11","0","24","1","1","3","1","","0","1","0","null","","","<div style=""font-size:60px;"">+</div>","null","","","","","","","","","",""
"","html-keyboard-response","301","720837","0.0-12.0-1.16","c8fl74pyef","many_one","0","direct_first","1","Eck7rt11","0","24","1","1","3","1","","0","1","0","null","","","<img src = 'category2/GS3.png' width = '100%;'>","null","","","","","","","","","",""
"","html-keyboard-response","302","721105","0.0-12.0-2.16","c8fl74pyef","many_one","0","direct_first","1","Eck7rt11","0","24","1","1","3","1","","0","1","0","null","","","<img src = 'targets/42.png' width = '100%;'>","null","","","","","","","","","",""
"","html-keyboard-response","303","721593","0.0-12.0-3.16","c8fl74pyef","many_one","0","direct_first","1","Eck7rt11","0","24","1","1","3","1","","0","1","0","483","","","<img src = 'targets/mask.png' width = '100%;'>","68","neg","GS","GSnew","2","category2/GS3.png","","targets/42.png","indirect","0","40"
"","html-keyboard-response","304","723118","0.0-12.0-0.17","c8fl74pyef","many_one","0","direct_first","1","Eck7rt11","0","24","1","1","3","1","","0","1","0","null","","","<div style=""font-size:60px;"">+</div>","null","","","","","","","","","",""
"","html-keyboard-response","305","723226","0.0-12.0-1.17","c8fl74pyef","many_one","0","direct_first","1","Eck7rt11","0","24","1","1","3","1","","0","1","0","null","","","<img src = 'category1/GS1.png' width = '100%;'>","null","","","","","","","","","",""
"","html-keyboard-response","306","723504","0.0-12.0-2.17","c8fl74pyef","many_one","0","direct_first","1","Eck7rt11","0","24","1","1","3","1","","0","1","0","null","","","<img src = 'targets/22.png' width = '100%;'>","null","","","","","","","","","",""
"","html-keyboard-response","307","724068","0.0-12.0-3.17","c8fl74pyef","many_one","0","direct_first","1","Eck7rt11","0","24","1","1","3","1","","0","1","0","559","","","<img src = 'targets/mask.png' width = '100%;'>","75","pos","GS","GSnew","1","category1/GS1.png","","targets/22.png","indirect","1","41"
"","html-keyboard-response","308","725583","0.0-12.0-0.18","c8fl74pyef","many_one","0","direct_first","1","Eck7rt11","0","24","1","1","3","1","","0","1","0","null","","","<div style=""font-size:60px;"">+</div>","null","","","","","","","","","",""
"","html-keyboard-response","309","725693","0.0-12.0-1.18","c8fl74pyef","many_one","0","direct_first","1","Eck7rt11","0","24","1","1","3","1","","0","1","0","null","","","<img src = 'category3/GS2.png' width = '100%;'>","null","","","","","","","","","",""
"","html-keyboard-response","310","725961","0.0-12.0-2.18","c8fl74pyef","many_one","0","direct_first","1","Eck7rt11","0","24","1","1","3","1","","0","1","0","null","","","<img src = 'targets/27.png' width = '100%;'>","null","","","","","","","","","",""
"","html-keyboard-response","311","726374","0.0-12.0-3.18","c8fl74pyef","many_one","0","direct_first","1","Eck7rt11","0","24","1","1","3","1","","0","1","0","409","","","<img src = 'targets/mask.png' width = '100%;'>","75","pos","GS","GSnew","3","category3/GS2.png","","targets/27.png","indirect","1","42"
"","html-keyboard-response","312","727882","0.0-12.0-0.19","c8fl74pyef","many_one","0","direct_first","1","Eck7rt11","0","24","1","1","3","1","","0","1","0","null","","","<div style=""font-size:60px;"">+</div>","null","","","","","","","","","",""
"","html-keyboard-response","313","727991","0.0-12.0-1.19","c8fl74pyef","many_one","0","direct_first","1","Eck7rt11","0","24","1","1","3","1","","0","1","0","null","","","<img src = 'category2/CS10.png' width = '100%;'>","null","","","","","","","","","",""
"","html-keyboard-response","314","728269","0.0-12.0-2.19","c8fl74pyef","many_one","0","direct_first","1","Eck7rt11","0","24","1","1","3","1","","0","1","0","null","","","<img src = 'targets/19.png' width = '100%;'>","null","","","","","","","","","",""
"","html-keyboard-response","315","728698","0.0-12.0-3.19","c8fl74pyef","many_one","0","direct_first","1","Eck7rt11","0","24","1","1","3","1","","0","1","0","421","","","<img src = 'targets/mask.png' width = '100%;'>","68","neg","GS","GSold","2","category2/CS10.png","","targets/19.png","indirect","0","43"
"","html-keyboard-response","316","730206","0.0-12.0-0.20","c8fl74pyef","many_one","0","direct_first","1","Eck7rt11","0","24","1","1","3","1","","0","1","0","null","","","<div style=""font-size:60px;"">+</div>","null","","","","","","","","","",""
"","html-keyboard-response","317","730316","0.0-12.0-1.20","c8fl74pyef","many_one","0","direct_first","1","Eck7rt11","0","24","1","1","3","1","","0","1","0","null","","","<img src = 'category4/GS2.png' width = '100%;'>","null","","","","","","","","","",""
"","html-keyboard-response","318","730582","0.0-12.0-2.20","c8fl74pyef","many_one","0","direct_first","1","Eck7rt11","0","24","1","1","3","1","","0","1","0","null","","","<img src = 'targets/40.png' width = '100%;'>","null","","","","","","","","","",""
"","html-keyboard-response","319","731083","0.0-12.0-3.20","c8fl74pyef","many_one","0","direct_first","1","Eck7rt11","0","24","1","1","3","1","","0","1","0","496","","","<img src = 'targets/mask.png' width = '100%;'>","68","neg","GS","GSnew","4","category4/GS2.png","","targets/40.png","indirect","0","44"
"","html-keyboard-response","320","732599","0.0-12.0-0.21","c8fl74pyef","many_one","0","direct_first","1","Eck7rt11","0","24","1","1","3","1","","0","1","0","null","","","<div style=""font-size:60px;"">+</div>","null","","","","","","","","","",""
"","html-keyboard-response","321","732708","0.0-12.0-1.21","c8fl74pyef","many_one","0","direct_first","1","Eck7rt11","0","24","1","1","3","1","","0","1","0","null","","","<img src = 'category1/CS2.png' width = '100%;'>","null","","","","","","","","","",""
"","html-keyboard-response","322","732987","0.0-12.0-2.21","c8fl74pyef","many_one","0","direct_first","1","Eck7rt11","0","24","1","1","3","1","","0","1","0","null","","","<img src = 'targets/43.png' width = '100%;'>","null","","","","","","","","","",""
"","html-keyboard-response","323","733445","0.0-12.0-3.21","c8fl74pyef","many_one","0","direct_first","1","Eck7rt11","0","24","1","1","3","1","","0","1","0","456","","","<img src = 'targets/mask.png' width = '100%;'>","75","pos","GS","GSold","1","category1/CS2.png","","targets/43.png","indirect","1","45"
"","html-keyboard-response","324","734949","0.0-12.0-0.22","c8fl74pyef","many_one","0","direct_first","1","Eck7rt11","0","24","1","1","3","1","","0","1","0","null","","","<div style=""font-size:60px;"">+</div>","null","","","","","","","","","",""
"","html-keyboard-response","325","735049","0.0-12.0-1.22","c8fl74pyef","many_one","0","direct_first","1","Eck7rt11","0","24","1","1","3","1","","0","1","0","null","","","<img src = 'category2/CS5.png' width = '100%;'>","null","","","","","","","","","",""
"","html-keyboard-response","326","735331","0.0-12.0-2.22","c8fl74pyef","many_one","0","direct_first","1","Eck7rt11","0","24","1","1","3","1","","0","1","0","null","","","<img src = 'targets/21.png' width = '100%;'>","null","","","","","","","","","",""
"","html-keyboard-response","327","735739","0.0-12.0-3.22","c8fl74pyef","many_one","0","direct_first","1","Eck7rt11","0","24","1","1","3","1","","0","1","0","403","","","<img src = 'targets/mask.png' width = '100%;'>","75","neg","GS","GSold","2","category2/CS5.png","","targets/21.png","indirect","1","46"
"","html-keyboard-response","328","737265","0.0-12.0-0.23","c8fl74pyef","many_one","0","direct_first","1","Eck7rt11","0","24","1","1","3","1","","0","1","0","null","","","<div style=""font-size:60px;"">+</div>","null","","","","","","","","","",""
"","html-keyboard-response","329","737374","0.0-12.0-1.23","c8fl74pyef","many_one","0","direct_first","1","Eck7rt11","0","24","1","1","3","1","","0","1","0","null","","","<img src = 'category2/GS1.png' width = '100%;'>","null","","","","","","","","","",""
"","html-keyboard-response","330","737652","0.0-12.0-2.23","c8fl74pyef","many_one","0","direct_first","1","Eck7rt11","0","24","1","1","3","1","","0","1","0","null","","","<img src = 'targets/20.png' width = '100%;'>","null","","","","","","","","","",""
"","html-keyboard-response","331","738230","0.0-12.0-3.23","c8fl74pyef","many_one","0","direct_first","1","Eck7rt11","0","24","1","1","3","1","","0","1","0","575","","","<img src = 'targets/mask.png' width = '100%;'>","68","neg","GS","GSnew","2","category2/GS1.png","","targets/20.png","indirect","0","47"
"","survey-html-form","332","744460","0.0-13.0","c8fl74pyef","many_one","0","direct_first","1","Eck7rt11","0","24","1","1","3","1","","0","1","0","5723","","{}","","","","","","","","","","","",""
