"success","trial_type","trial_index","time_elapsed","internal_node_id","subject","condition","condition_code","measure","measure_code","codeword","gender","age","education","chinese","fach","handedness","comment","hinschauen","ablenkung","gewissenhaft","rt","url","responses","stimulus","key_press","val","type","type_specific","category","cs_selected","target","indirect","task","nr_pres","response"
"true","fullscreen","0","350218","0.0-0.0","s2pynh202w","many_one","0","indirect_first","0","er06as09","0","24","1","1","3","1","","0","0","0","","","","","","","","","","","","","","",""
"","external-html","1","358507","0.0-1.0","s2pynh202w","many_one","0","indirect_first","0","er06as09","0","24","1","1","3","1","","0","0","0","8225.360000000335","text/information.html","","","","","","","","","","","","",""
"","external-html","2","366234","0.0-2.0","s2pynh202w","many_one","0","indirect_first","0","er06as09","0","24","1","1","3","1","","0","0","0","7697.06000000221","text/consent.html","","","","","","","","","","","","",""
"","survey-html-form","3","416080","0.0-3.0","s2pynh202w","many_one","0","indirect_first","0","er06as09","0","24","1","1","3","1","","0","0","0","49840.28000000038","","{""codeword_enter"":""er06as09""}","","","","","","","","","","","",""
"","survey-html-form","4","437035","0.0-4.0","s2pynh202w","many_one","0","indirect_first","0","er06as09","0","24","1","1","3","1","","0","0","0","20946.670000001148","","{""age"":""24"",""education"":""1"",""subject"":""3"",""gender"":""0"",""handedness"":""1"",""chinese"":""1""}","","","","","","","","","","","",""
"","survey-html-form","5","442269","0.0-5.0","s2pynh202w","many_one","0","indirect_first","0","er06as09","0","24","1","1","3","1","","0","0","0","5226.869999998598","","{}","","","","","","","","","","","",""
"","html-keyboard-response","6","446275","0.0-6.0-0.0-0.0","s2pynh202w","many_one","0","indirect_first","0","er06as09","0","24","1","1","3","1","","0","0","0","null","","","<div class = 'row'><div class = 'column'><img src = 'category4/CS1.png' width = '70%;'></div><div class = 'column'><img src = 'uspos/1710.bmp' width = '100%;'></div></div>","null","pos","CS","CS","4","category4/CS1.png","","","","",""
"","html-keyboard-response","7","448778","0.0-6.0-0.0-0.1","s2pynh202w","many_one","0","indirect_first","0","er06as09","0","24","1","1","3","1","","0","0","0","null","","","<div class = 'row'><div class = 'column'><img src = 'category1/CS3.png' width = '70%;'></div><div class = 'column'><img src = 'usneg/9180.bmp' width = '100%;'></div></div>","null","neg","CS","CS","1","category1/CS3.png","","","","",""
"","html-keyboard-response","8","451281","0.0-6.0-0.0-0.2","s2pynh202w","many_one","0","indirect_first","0","er06as09","0","24","1","1","3","1","","0","0","0","null","","","<div class = 'row'><div class = 'column'><img src = 'uspos/8350.bmp' width = '100%;'></div><div class = 'column'><img src = 'category2/CS10.png' width = '70%;'></div></div>","null","pos","CS","CS","2","category2/CS10.png","","","","",""
"","html-keyboard-response","9","453784","0.0-6.0-0.0-0.3","s2pynh202w","many_one","0","indirect_first","0","er06as09","0","24","1","1","3","1","","0","0","0","null","","","<div class = 'row'><div class = 'column'><img src = 'uspos/2208.bmp' width = '100%;'></div><div class = 'column'><img src = 'category4/CS4.png' width = '70%;'></div></div>","null","pos","CS","CS","4","category4/CS4.png","","","","",""
"","html-keyboard-response","10","456288","0.0-6.0-0.0-0.4","s2pynh202w","many_one","0","indirect_first","0","er06as09","0","24","1","1","3","1","","0","0","0","null","","","<div class = 'row'><div class = 'column'><img src = 'category3/CS8.png' width = '70%;'></div><div class = 'column'><img src = 'usneg/7380.bmp' width = '100%;'></div></div>","null","neg","CS","CS","3","category3/CS8.png","","","","",""
"","html-keyboard-response","11","458791","0.0-6.0-0.0-0.5","s2pynh202w","many_one","0","indirect_first","0","er06as09","0","24","1","1","3","1","","0","0","0","null","","","<div class = 'row'><div class = 'column'><img src = 'category1/CS8.png' width = '70%;'></div><div class = 'column'><img src = 'usneg/9421.bmp' width = '100%;'></div></div>","null","neg","CS","CS","1","category1/CS8.png","","","","",""
"","html-keyboard-response","12","461294","0.0-6.0-0.0-0.6","s2pynh202w","many_one","0","indirect_first","0","er06as09","0","24","1","1","3","1","","0","0","0","null","","","<div class = 'row'><div class = 'column'><img src = 'category3/CS7.png' width = '70%;'></div><div class = 'column'><img src = 'usneg/9181.bmp' width = '100%;'></div></div>","null","neg","CS","CS","3","category3/CS7.png","","","","",""
"","html-keyboard-response","13","463797","0.0-6.0-0.0-0.7","s2pynh202w","many_one","0","indirect_first","0","er06as09","0","24","1","1","3","1","","0","0","0","null","","","<div class = 'row'><div class = 'column'><img src = 'usneg/9220.bmp' width = '100%;'></div><div class = 'column'><img src = 'category1/CS7.png' width = '70%;'></div></div>","null","neg","CS","CS","1","category1/CS7.png","","","","",""
"","html-keyboard-response","14","466301","0.0-6.0-0.0-0.8","s2pynh202w","many_one","0","indirect_first","0","er06as09","0","24","1","1","3","1","","0","0","0","null","","","<div class = 'row'><div class = 'column'><img src = 'usneg/3181.bmp' width = '100%;'></div><div class = 'column'><img src = 'category3/CS9.png' width = '70%;'></div></div>","null","neg","CS","CS","3","category3/CS9.png","","","","",""
"","html-keyboard-response","15","468804","0.0-6.0-0.0-0.9","s2pynh202w","many_one","0","indirect_first","0","er06as09","0","24","1","1","3","1","","0","0","0","null","","","<div class = 'row'><div class = 'column'><img src = 'category4/CS5.png' width = '70%;'></div><div class = 'column'><img src = 'uspos/1440.bmp' width = '100%;'></div></div>","null","pos","CS","CS","4","category4/CS5.png","","","","",""
"","html-keyboard-response","16","471308","0.0-6.0-0.0-0.10","s2pynh202w","many_one","0","indirect_first","0","er06as09","0","24","1","1","3","1","","0","0","0","null","","","<div class = 'row'><div class = 'column'><img src = 'category3/CS2.png' width = '70%;'></div><div class = 'column'><img src = 'usneg/9340.bmp' width = '100%;'></div></div>","null","neg","CS","CS","3","category3/CS2.png","","","","",""
"","html-keyboard-response","17","473811","0.0-6.0-0.0-0.11","s2pynh202w","many_one","0","indirect_first","0","er06as09","0","24","1","1","3","1","","0","0","0","null","","","<div class = 'row'><div class = 'column'><img src = 'category2/CS4.png' width = '70%;'></div><div class = 'column'><img src = 'uspos/4599.bmp' width = '100%;'></div></div>","null","pos","CS","CS","2","category2/CS4.png","","","","",""
"","html-keyboard-response","18","476313","0.0-6.0-0.0-0.12","s2pynh202w","many_one","0","indirect_first","0","er06as09","0","24","1","1","3","1","","0","0","0","null","","","<div class = 'row'><div class = 'column'><img src = 'uspos/2530.bmp' width = '100%;'></div><div class = 'column'><img src = 'category2/CS8.png' width = '70%;'></div></div>","null","pos","CS","CS","2","category2/CS8.png","","","","",""
"","html-keyboard-response","19","478818","0.0-6.0-0.0-0.13","s2pynh202w","many_one","0","indirect_first","0","er06as09","0","24","1","1","3","1","","0","0","0","null","","","<div class = 'row'><div class = 'column'><img src = 'uspos/5760.bmp' width = '100%;'></div><div class = 'column'><img src = 'category2/CS9.png' width = '70%;'></div></div>","null","pos","CS","CS","2","category2/CS9.png","","","","",""
"","html-keyboard-response","20","481321","0.0-6.0-0.0-0.14","s2pynh202w","many_one","0","indirect_first","0","er06as09","0","24","1","1","3","1","","0","0","0","null","","","<div class = 'row'><div class = 'column'><img src = 'category3/CS4.png' width = '70%;'></div><div class = 'column'><img src = 'usneg/1280.bmp' width = '100%;'></div></div>","null","neg","CS","CS","3","category3/CS4.png","","","","",""
"","html-keyboard-response","21","483823","0.0-6.0-0.0-0.15","s2pynh202w","many_one","0","indirect_first","0","er06as09","0","24","1","1","3","1","","0","0","0","null","","","<div class = 'row'><div class = 'column'><img src = 'category4/CS6.png' width = '70%;'></div><div class = 'column'><img src = 'uspos/7325.bmp' width = '100%;'></div></div>","null","pos","CS","CS","4","category4/CS6.png","","","","",""
"","html-keyboard-response","22","486325","0.0-6.0-0.0-0.16","s2pynh202w","many_one","0","indirect_first","0","er06as09","0","24","1","1","3","1","","0","0","0","null","","","<div class = 'row'><div class = 'column'><img src = 'uspos/2340.bmp' width = '100%;'></div><div class = 'column'><img src = 'category4/CS8.png' width = '70%;'></div></div>","null","pos","CS","CS","4","category4/CS8.png","","","","",""
"","html-keyboard-response","23","488828","0.0-6.0-0.0-0.17","s2pynh202w","many_one","0","indirect_first","0","er06as09","0","24","1","1","3","1","","0","0","0","null","","","<div class = 'row'><div class = 'column'><img src = 'usneg/9330.bmp' width = '100%;'></div><div class = 'column'><img src = 'category1/CS9.png' width = '70%;'></div></div>","null","neg","CS","CS","1","category1/CS9.png","","","","",""
"","html-keyboard-response","24","491332","0.0-6.0-0.0-0.18","s2pynh202w","many_one","0","indirect_first","0","er06as09","0","24","1","1","3","1","","0","0","0","null","","","<div class = 'row'><div class = 'column'><img src = 'category1/CS10.png' width = '70%;'></div><div class = 'column'><img src = 'usneg/9560.bmp' width = '100%;'></div></div>","null","neg","CS","CS","1","category1/CS10.png","","","","",""
"","html-keyboard-response","25","493836","0.0-6.0-0.0-0.19","s2pynh202w","many_one","0","indirect_first","0","er06as09","0","24","1","1","3","1","","0","0","0","null","","","<div class = 'row'><div class = 'column'><img src = 'category2/CS1.png' width = '70%;'></div><div class = 'column'><img src = 'uspos/8540.bmp' width = '100%;'></div></div>","null","pos","CS","CS","2","category2/CS1.png","","","","",""
"","survey-html-form","26","498705","0.0-6.0-1.0","s2pynh202w","many_one","0","indirect_first","0","er06as09","0","24","1","1","3","1","","0","0","0","4367.679999999353","","{}","","","","","","","","","","","",""
"","html-keyboard-response","27","502709","0.0-6.0-2.0-0.0","s2pynh202w","many_one","0","indirect_first","0","er06as09","0","24","1","1","3","1","","0","0","0","null","","","<div class = 'row'><div class = 'column'><img src = 'usneg/1280.bmp' width = '100%;'></div><div class = 'column'><img src = 'category3/CS4.png' width = '70%;'></div></div>","null","neg","CS","CS","3","category3/CS4.png","","","","",""
"","html-keyboard-response","28","505211","0.0-6.0-2.0-0.1","s2pynh202w","many_one","0","indirect_first","0","er06as09","0","24","1","1","3","1","","0","0","0","null","","","<div class = 'row'><div class = 'column'><img src = 'category3/CS7.png' width = '70%;'></div><div class = 'column'><img src = 'usneg/9181.bmp' width = '100%;'></div></div>","null","neg","CS","CS","3","category3/CS7.png","","","","",""
"","html-keyboard-response","29","507714","0.0-6.0-2.0-0.2","s2pynh202w","many_one","0","indirect_first","0","er06as09","0","24","1","1","3","1","","0","0","0","null","","","<div class = 'row'><div class = 'column'><img src = 'category2/CS10.png' width = '70%;'></div><div class = 'column'><img src = 'uspos/8350.bmp' width = '100%;'></div></div>","null","pos","CS","CS","2","category2/CS10.png","","","","",""
"","html-keyboard-response","30","510216","0.0-6.0-2.0-0.3","s2pynh202w","many_one","0","indirect_first","0","er06as09","0","24","1","1","3","1","","0","0","0","null","","","<div class = 'row'><div class = 'column'><img src = 'category2/CS4.png' width = '70%;'></div><div class = 'column'><img src = 'uspos/4599.bmp' width = '100%;'></div></div>","null","pos","CS","CS","2","category2/CS4.png","","","","",""
"","html-keyboard-response","31","512719","0.0-6.0-2.0-0.4","s2pynh202w","many_one","0","indirect_first","0","er06as09","0","24","1","1","3","1","","0","0","0","null","","","<div class = 'row'><div class = 'column'><img src = 'category1/CS9.png' width = '70%;'></div><div class = 'column'><img src = 'usneg/9330.bmp' width = '100%;'></div></div>","null","neg","CS","CS","1","category1/CS9.png","","","","",""
"","html-keyboard-response","32","515222","0.0-6.0-2.0-0.5","s2pynh202w","many_one","0","indirect_first","0","er06as09","0","24","1","1","3","1","","0","0","0","null","","","<div class = 'row'><div class = 'column'><img src = 'category1/CS10.png' width = '70%;'></div><div class = 'column'><img src = 'usneg/9560.bmp' width = '100%;'></div></div>","null","neg","CS","CS","1","category1/CS10.png","","","","",""
"","html-keyboard-response","33","517724","0.0-6.0-2.0-0.6","s2pynh202w","many_one","0","indirect_first","0","er06as09","0","24","1","1","3","1","","0","0","0","null","","","<div class = 'row'><div class = 'column'><img src = 'uspos/2530.bmp' width = '100%;'></div><div class = 'column'><img src = 'category2/CS8.png' width = '70%;'></div></div>","null","pos","CS","CS","2","category2/CS8.png","","","","",""
"","html-keyboard-response","34","520228","0.0-6.0-2.0-0.7","s2pynh202w","many_one","0","indirect_first","0","er06as09","0","24","1","1","3","1","","0","0","0","null","","","<div class = 'row'><div class = 'column'><img src = 'category1/CS3.png' width = '70%;'></div><div class = 'column'><img src = 'usneg/9180.bmp' width = '100%;'></div></div>","null","neg","CS","CS","1","category1/CS3.png","","","","",""
"","html-keyboard-response","35","522730","0.0-6.0-2.0-0.8","s2pynh202w","many_one","0","indirect_first","0","er06as09","0","24","1","1","3","1","","0","0","0","null","","","<div class = 'row'><div class = 'column'><img src = 'usneg/3181.bmp' width = '100%;'></div><div class = 'column'><img src = 'category3/CS9.png' width = '70%;'></div></div>","null","neg","CS","CS","3","category3/CS9.png","","","","",""
"","html-keyboard-response","36","525234","0.0-6.0-2.0-0.9","s2pynh202w","many_one","0","indirect_first","0","er06as09","0","24","1","1","3","1","","0","0","0","null","","","<div class = 'row'><div class = 'column'><img src = 'category3/CS8.png' width = '70%;'></div><div class = 'column'><img src = 'usneg/7380.bmp' width = '100%;'></div></div>","null","neg","CS","CS","3","category3/CS8.png","","","","",""
"","html-keyboard-response","37","527737","0.0-6.0-2.0-0.10","s2pynh202w","many_one","0","indirect_first","0","er06as09","0","24","1","1","3","1","","0","0","0","null","","","<div class = 'row'><div class = 'column'><img src = 'category4/CS5.png' width = '70%;'></div><div class = 'column'><img src = 'uspos/1440.bmp' width = '100%;'></div></div>","null","pos","CS","CS","4","category4/CS5.png","","","","",""
"","html-keyboard-response","38","530240","0.0-6.0-2.0-0.11","s2pynh202w","many_one","0","indirect_first","0","er06as09","0","24","1","1","3","1","","0","0","0","null","","","<div class = 'row'><div class = 'column'><img src = 'category2/CS9.png' width = '70%;'></div><div class = 'column'><img src = 'uspos/5760.bmp' width = '100%;'></div></div>","null","pos","CS","CS","2","category2/CS9.png","","","","",""
"","html-keyboard-response","39","532743","0.0-6.0-2.0-0.12","s2pynh202w","many_one","0","indirect_first","0","er06as09","0","24","1","1","3","1","","0","0","0","null","","","<div class = 'row'><div class = 'column'><img src = 'category3/CS2.png' width = '70%;'></div><div class = 'column'><img src = 'usneg/9340.bmp' width = '100%;'></div></div>","null","neg","CS","CS","3","category3/CS2.png","","","","",""
"","html-keyboard-response","40","535246","0.0-6.0-2.0-0.13","s2pynh202w","many_one","0","indirect_first","0","er06as09","0","24","1","1","3","1","","0","0","0","null","","","<div class = 'row'><div class = 'column'><img src = 'uspos/2208.bmp' width = '100%;'></div><div class = 'column'><img src = 'category4/CS4.png' width = '70%;'></div></div>","null","pos","CS","CS","4","category4/CS4.png","","","","",""
"","html-keyboard-response","41","537749","0.0-6.0-2.0-0.14","s2pynh202w","many_one","0","indirect_first","0","er06as09","0","24","1","1","3","1","","0","0","0","null","","","<div class = 'row'><div class = 'column'><img src = 'category4/CS8.png' width = '70%;'></div><div class = 'column'><img src = 'uspos/2340.bmp' width = '100%;'></div></div>","null","pos","CS","CS","4","category4/CS8.png","","","","",""
"","html-keyboard-response","42","540253","0.0-6.0-2.0-0.15","s2pynh202w","many_one","0","indirect_first","0","er06as09","0","24","1","1","3","1","","0","0","0","null","","","<div class = 'row'><div class = 'column'><img src = 'uspos/8540.bmp' width = '100%;'></div><div class = 'column'><img src = 'category2/CS1.png' width = '70%;'></div></div>","null","pos","CS","CS","2","category2/CS1.png","","","","",""
"","html-keyboard-response","43","542756","0.0-6.0-2.0-0.16","s2pynh202w","many_one","0","indirect_first","0","er06as09","0","24","1","1","3","1","","0","0","0","null","","","<div class = 'row'><div class = 'column'><img src = 'category4/CS6.png' width = '70%;'></div><div class = 'column'><img src = 'uspos/7325.bmp' width = '100%;'></div></div>","null","pos","CS","CS","4","category4/CS6.png","","","","",""
"","html-keyboard-response","44","545260","0.0-6.0-2.0-0.17","s2pynh202w","many_one","0","indirect_first","0","er06as09","0","24","1","1","3","1","","0","0","0","null","","","<div class = 'row'><div class = 'column'><img src = 'usneg/9220.bmp' width = '100%;'></div><div class = 'column'><img src = 'category1/CS7.png' width = '70%;'></div></div>","null","neg","CS","CS","1","category1/CS7.png","","","","",""
"","html-keyboard-response","45","547763","0.0-6.0-2.0-0.18","s2pynh202w","many_one","0","indirect_first","0","er06as09","0","24","1","1","3","1","","0","0","0","null","","","<div class = 'row'><div class = 'column'><img src = 'uspos/1710.bmp' width = '100%;'></div><div class = 'column'><img src = 'category4/CS1.png' width = '70%;'></div></div>","null","pos","CS","CS","4","category4/CS1.png","","","","",""
"","html-keyboard-response","46","550267","0.0-6.0-2.0-0.19","s2pynh202w","many_one","0","indirect_first","0","er06as09","0","24","1","1","3","1","","0","0","0","null","","","<div class = 'row'><div class = 'column'><img src = 'usneg/9421.bmp' width = '100%;'></div><div class = 'column'><img src = 'category1/CS8.png' width = '70%;'></div></div>","null","neg","CS","CS","1","category1/CS8.png","","","","",""
"","survey-html-form","47","552520","0.0-6.0-3.0","s2pynh202w","many_one","0","indirect_first","0","er06as09","0","24","1","1","3","1","","0","0","0","1749.9549999992596","","{}","","","","","","","","","","","",""
"","html-keyboard-response","48","556523","0.0-6.0-4.0-0.0","s2pynh202w","many_one","0","indirect_first","0","er06as09","0","24","1","1","3","1","","0","0","0","null","","","<div class = 'row'><div class = 'column'><img src = 'uspos/2530.bmp' width = '100%;'></div><div class = 'column'><img src = 'category2/CS8.png' width = '70%;'></div></div>","null","pos","CS","CS","2","category2/CS8.png","","","","",""
"","html-keyboard-response","49","559027","0.0-6.0-4.0-0.1","s2pynh202w","many_one","0","indirect_first","0","er06as09","0","24","1","1","3","1","","0","0","0","null","","","<div class = 'row'><div class = 'column'><img src = 'category2/CS4.png' width = '70%;'></div><div class = 'column'><img src = 'uspos/4599.bmp' width = '100%;'></div></div>","null","pos","CS","CS","2","category2/CS4.png","","","","",""
"","html-keyboard-response","50","561530","0.0-6.0-4.0-0.2","s2pynh202w","many_one","0","indirect_first","0","er06as09","0","24","1","1","3","1","","0","0","0","null","","","<div class = 'row'><div class = 'column'><img src = 'uspos/1710.bmp' width = '100%;'></div><div class = 'column'><img src = 'category4/CS1.png' width = '70%;'></div></div>","null","pos","CS","CS","4","category4/CS1.png","","","","",""
"","html-keyboard-response","51","564033","0.0-6.0-4.0-0.3","s2pynh202w","many_one","0","indirect_first","0","er06as09","0","24","1","1","3","1","","0","0","0","null","","","<div class = 'row'><div class = 'column'><img src = 'category4/CS8.png' width = '70%;'></div><div class = 'column'><img src = 'uspos/2340.bmp' width = '100%;'></div></div>","null","pos","CS","CS","4","category4/CS8.png","","","","",""
"","html-keyboard-response","52","566536","0.0-6.0-4.0-0.4","s2pynh202w","many_one","0","indirect_first","0","er06as09","0","24","1","1","3","1","","0","0","0","null","","","<div class = 'row'><div class = 'column'><img src = 'category3/CS8.png' width = '70%;'></div><div class = 'column'><img src = 'usneg/7380.bmp' width = '100%;'></div></div>","null","neg","CS","CS","3","category3/CS8.png","","","","",""
"","html-keyboard-response","53","569040","0.0-6.0-4.0-0.5","s2pynh202w","many_one","0","indirect_first","0","er06as09","0","24","1","1","3","1","","0","0","0","null","","","<div class = 'row'><div class = 'column'><img src = 'usneg/9560.bmp' width = '100%;'></div><div class = 'column'><img src = 'category1/CS10.png' width = '70%;'></div></div>","null","neg","CS","CS","1","category1/CS10.png","","","","",""
"","html-keyboard-response","54","571542","0.0-6.0-4.0-0.6","s2pynh202w","many_one","0","indirect_first","0","er06as09","0","24","1","1","3","1","","0","0","0","null","","","<div class = 'row'><div class = 'column'><img src = 'category3/CS4.png' width = '70%;'></div><div class = 'column'><img src = 'usneg/1280.bmp' width = '100%;'></div></div>","null","neg","CS","CS","3","category3/CS4.png","","","","",""
"","html-keyboard-response","55","574045","0.0-6.0-4.0-0.7","s2pynh202w","many_one","0","indirect_first","0","er06as09","0","24","1","1","3","1","","0","0","0","null","","","<div class = 'row'><div class = 'column'><img src = 'uspos/1440.bmp' width = '100%;'></div><div class = 'column'><img src = 'category4/CS5.png' width = '70%;'></div></div>","null","pos","CS","CS","4","category4/CS5.png","","","","",""
"","html-keyboard-response","56","576548","0.0-6.0-4.0-0.8","s2pynh202w","many_one","0","indirect_first","0","er06as09","0","24","1","1","3","1","","0","0","0","null","","","<div class = 'row'><div class = 'column'><img src = 'usneg/9421.bmp' width = '100%;'></div><div class = 'column'><img src = 'category1/CS8.png' width = '70%;'></div></div>","null","neg","CS","CS","1","category1/CS8.png","","","","",""
"","html-keyboard-response","57","579051","0.0-6.0-4.0-0.9","s2pynh202w","many_one","0","indirect_first","0","er06as09","0","24","1","1","3","1","","0","0","0","null","","","<div class = 'row'><div class = 'column'><img src = 'category1/CS3.png' width = '70%;'></div><div class = 'column'><img src = 'usneg/9180.bmp' width = '100%;'></div></div>","null","neg","CS","CS","1","category1/CS3.png","","","","",""
"","html-keyboard-response","58","581554","0.0-6.0-4.0-0.10","s2pynh202w","many_one","0","indirect_first","0","er06as09","0","24","1","1","3","1","","0","0","0","null","","","<div class = 'row'><div class = 'column'><img src = 'uspos/8540.bmp' width = '100%;'></div><div class = 'column'><img src = 'category2/CS1.png' width = '70%;'></div></div>","null","pos","CS","CS","2","category2/CS1.png","","","","",""
"","html-keyboard-response","59","584058","0.0-6.0-4.0-0.11","s2pynh202w","many_one","0","indirect_first","0","er06as09","0","24","1","1","3","1","","0","0","0","null","","","<div class = 'row'><div class = 'column'><img src = 'uspos/7325.bmp' width = '100%;'></div><div class = 'column'><img src = 'category4/CS6.png' width = '70%;'></div></div>","null","pos","CS","CS","4","category4/CS6.png","","","","",""
"","html-keyboard-response","60","586563","0.0-6.0-4.0-0.12","s2pynh202w","many_one","0","indirect_first","0","er06as09","0","24","1","1","3","1","","0","0","0","null","","","<div class = 'row'><div class = 'column'><img src = 'uspos/2208.bmp' width = '100%;'></div><div class = 'column'><img src = 'category4/CS4.png' width = '70%;'></div></div>","null","pos","CS","CS","4","category4/CS4.png","","","","",""
"","html-keyboard-response","61","589066","0.0-6.0-4.0-0.13","s2pynh202w","many_one","0","indirect_first","0","er06as09","0","24","1","1","3","1","","0","0","0","null","","","<div class = 'row'><div class = 'column'><img src = 'category3/CS9.png' width = '70%;'></div><div class = 'column'><img src = 'usneg/3181.bmp' width = '100%;'></div></div>","null","neg","CS","CS","3","category3/CS9.png","","","","",""
"","html-keyboard-response","62","591568","0.0-6.0-4.0-0.14","s2pynh202w","many_one","0","indirect_first","0","er06as09","0","24","1","1","3","1","","0","0","0","null","","","<div class = 'row'><div class = 'column'><img src = 'usneg/9181.bmp' width = '100%;'></div><div class = 'column'><img src = 'category3/CS7.png' width = '70%;'></div></div>","null","neg","CS","CS","3","category3/CS7.png","","","","",""
"","html-keyboard-response","63","594071","0.0-6.0-4.0-0.15","s2pynh202w","many_one","0","indirect_first","0","er06as09","0","24","1","1","3","1","","0","0","0","null","","","<div class = 'row'><div class = 'column'><img src = 'usneg/9330.bmp' width = '100%;'></div><div class = 'column'><img src = 'category1/CS9.png' width = '70%;'></div></div>","null","neg","CS","CS","1","category1/CS9.png","","","","",""
"","html-keyboard-response","64","596575","0.0-6.0-4.0-0.16","s2pynh202w","many_one","0","indirect_first","0","er06as09","0","24","1","1","3","1","","0","0","0","null","","","<div class = 'row'><div class = 'column'><img src = 'category3/CS2.png' width = '70%;'></div><div class = 'column'><img src = 'usneg/9340.bmp' width = '100%;'></div></div>","null","neg","CS","CS","3","category3/CS2.png","","","","",""
"","html-keyboard-response","65","599079","0.0-6.0-4.0-0.17","s2pynh202w","many_one","0","indirect_first","0","er06as09","0","24","1","1","3","1","","0","0","0","null","","","<div class = 'row'><div class = 'column'><img src = 'usneg/9220.bmp' width = '100%;'></div><div class = 'column'><img src = 'category1/CS7.png' width = '70%;'></div></div>","null","neg","CS","CS","1","category1/CS7.png","","","","",""
"","html-keyboard-response","66","601581","0.0-6.0-4.0-0.18","s2pynh202w","many_one","0","indirect_first","0","er06as09","0","24","1","1","3","1","","0","0","0","null","","","<div class = 'row'><div class = 'column'><img src = 'uspos/8350.bmp' width = '100%;'></div><div class = 'column'><img src = 'category2/CS10.png' width = '70%;'></div></div>","null","pos","CS","CS","2","category2/CS10.png","","","","",""
"","html-keyboard-response","67","604083","0.0-6.0-4.0-0.19","s2pynh202w","many_one","0","indirect_first","0","er06as09","0","24","1","1","3","1","","0","0","0","null","","","<div class = 'row'><div class = 'column'><img src = 'uspos/5760.bmp' width = '100%;'></div><div class = 'column'><img src = 'category2/CS9.png' width = '70%;'></div></div>","null","pos","CS","CS","2","category2/CS9.png","","","","",""
"","survey-html-form","68","609625","0.0-6.0-5.0","s2pynh202w","many_one","0","indirect_first","0","er06as09","0","24","1","1","3","1","","0","0","0","5039.829999997863","","{}","","","","","","","","","","","",""
"","html-keyboard-response","69","613629","0.0-6.0-6.0-0.0","s2pynh202w","many_one","0","indirect_first","0","er06as09","0","24","1","1","3","1","","0","0","0","null","","","<div class = 'row'><div class = 'column'><img src = 'category4/CS6.png' width = '70%;'></div><div class = 'column'><img src = 'uspos/7325.bmp' width = '100%;'></div></div>","null","pos","CS","CS","4","category4/CS6.png","","","","",""
"","html-keyboard-response","70","616132","0.0-6.0-6.0-0.1","s2pynh202w","many_one","0","indirect_first","0","er06as09","0","24","1","1","3","1","","0","0","0","null","","","<div class = 'row'><div class = 'column'><img src = 'uspos/1710.bmp' width = '100%;'></div><div class = 'column'><img src = 'category4/CS1.png' width = '70%;'></div></div>","null","pos","CS","CS","4","category4/CS1.png","","","","",""
"","html-keyboard-response","71","618635","0.0-6.0-6.0-0.2","s2pynh202w","many_one","0","indirect_first","0","er06as09","0","24","1","1","3","1","","0","0","0","null","","","<div class = 'row'><div class = 'column'><img src = 'category4/CS5.png' width = '70%;'></div><div class = 'column'><img src = 'uspos/1440.bmp' width = '100%;'></div></div>","null","pos","CS","CS","4","category4/CS5.png","","","","",""
"","html-keyboard-response","72","621138","0.0-6.0-6.0-0.3","s2pynh202w","many_one","0","indirect_first","0","er06as09","0","24","1","1","3","1","","0","0","0","null","","","<div class = 'row'><div class = 'column'><img src = 'category1/CS9.png' width = '70%;'></div><div class = 'column'><img src = 'usneg/9330.bmp' width = '100%;'></div></div>","null","neg","CS","CS","1","category1/CS9.png","","","","",""
"","html-keyboard-response","73","623641","0.0-6.0-6.0-0.4","s2pynh202w","many_one","0","indirect_first","0","er06as09","0","24","1","1","3","1","","0","0","0","null","","","<div class = 'row'><div class = 'column'><img src = 'category4/CS4.png' width = '70%;'></div><div class = 'column'><img src = 'uspos/2208.bmp' width = '100%;'></div></div>","null","pos","CS","CS","4","category4/CS4.png","","","","",""
"","html-keyboard-response","74","626145","0.0-6.0-6.0-0.5","s2pynh202w","many_one","0","indirect_first","0","er06as09","0","24","1","1","3","1","","0","0","0","null","","","<div class = 'row'><div class = 'column'><img src = 'category2/CS10.png' width = '70%;'></div><div class = 'column'><img src = 'uspos/8350.bmp' width = '100%;'></div></div>","null","pos","CS","CS","2","category2/CS10.png","","","","",""
"","html-keyboard-response","75","628648","0.0-6.0-6.0-0.6","s2pynh202w","many_one","0","indirect_first","0","er06as09","0","24","1","1","3","1","","0","0","0","null","","","<div class = 'row'><div class = 'column'><img src = 'usneg/9560.bmp' width = '100%;'></div><div class = 'column'><img src = 'category1/CS10.png' width = '70%;'></div></div>","null","neg","CS","CS","1","category1/CS10.png","","","","",""
"","html-keyboard-response","76","631150","0.0-6.0-6.0-0.7","s2pynh202w","many_one","0","indirect_first","0","er06as09","0","24","1","1","3","1","","0","0","0","null","","","<div class = 'row'><div class = 'column'><img src = 'category3/CS2.png' width = '70%;'></div><div class = 'column'><img src = 'usneg/9340.bmp' width = '100%;'></div></div>","null","neg","CS","CS","3","category3/CS2.png","","","","",""
"","html-keyboard-response","77","633652","0.0-6.0-6.0-0.8","s2pynh202w","many_one","0","indirect_first","0","er06as09","0","24","1","1","3","1","","0","0","0","null","","","<div class = 'row'><div class = 'column'><img src = 'usneg/9421.bmp' width = '100%;'></div><div class = 'column'><img src = 'category1/CS8.png' width = '70%;'></div></div>","null","neg","CS","CS","1","category1/CS8.png","","","","",""
"","html-keyboard-response","78","636156","0.0-6.0-6.0-0.9","s2pynh202w","many_one","0","indirect_first","0","er06as09","0","24","1","1","3","1","","0","0","0","null","","","<div class = 'row'><div class = 'column'><img src = 'category2/CS1.png' width = '70%;'></div><div class = 'column'><img src = 'uspos/8540.bmp' width = '100%;'></div></div>","null","pos","CS","CS","2","category2/CS1.png","","","","",""
"","html-keyboard-response","79","638659","0.0-6.0-6.0-0.10","s2pynh202w","many_one","0","indirect_first","0","er06as09","0","24","1","1","3","1","","0","0","0","null","","","<div class = 'row'><div class = 'column'><img src = 'uspos/2340.bmp' width = '100%;'></div><div class = 'column'><img src = 'category4/CS8.png' width = '70%;'></div></div>","null","pos","CS","CS","4","category4/CS8.png","","","","",""
"","html-keyboard-response","80","641163","0.0-6.0-6.0-0.11","s2pynh202w","many_one","0","indirect_first","0","er06as09","0","24","1","1","3","1","","0","0","0","null","","","<div class = 'row'><div class = 'column'><img src = 'category3/CS4.png' width = '70%;'></div><div class = 'column'><img src = 'usneg/1280.bmp' width = '100%;'></div></div>","null","neg","CS","CS","3","category3/CS4.png","","","","",""
"","html-keyboard-response","81","643666","0.0-6.0-6.0-0.12","s2pynh202w","many_one","0","indirect_first","0","er06as09","0","24","1","1","3","1","","0","0","0","null","","","<div class = 'row'><div class = 'column'><img src = 'category3/CS7.png' width = '70%;'></div><div class = 'column'><img src = 'usneg/9181.bmp' width = '100%;'></div></div>","null","neg","CS","CS","3","category3/CS7.png","","","","",""
"","html-keyboard-response","82","646169","0.0-6.0-6.0-0.13","s2pynh202w","many_one","0","indirect_first","0","er06as09","0","24","1","1","3","1","","0","0","0","null","","","<div class = 'row'><div class = 'column'><img src = 'category1/CS3.png' width = '70%;'></div><div class = 'column'><img src = 'usneg/9180.bmp' width = '100%;'></div></div>","null","neg","CS","CS","1","category1/CS3.png","","","","",""
"","html-keyboard-response","83","648672","0.0-6.0-6.0-0.14","s2pynh202w","many_one","0","indirect_first","0","er06as09","0","24","1","1","3","1","","0","0","0","null","","","<div class = 'row'><div class = 'column'><img src = 'category2/CS8.png' width = '70%;'></div><div class = 'column'><img src = 'uspos/2530.bmp' width = '100%;'></div></div>","null","pos","CS","CS","2","category2/CS8.png","","","","",""
"","html-keyboard-response","84","651176","0.0-6.0-6.0-0.15","s2pynh202w","many_one","0","indirect_first","0","er06as09","0","24","1","1","3","1","","0","0","0","null","","","<div class = 'row'><div class = 'column'><img src = 'uspos/4599.bmp' width = '100%;'></div><div class = 'column'><img src = 'category2/CS4.png' width = '70%;'></div></div>","null","pos","CS","CS","2","category2/CS4.png","","","","",""
"","html-keyboard-response","85","653679","0.0-6.0-6.0-0.16","s2pynh202w","many_one","0","indirect_first","0","er06as09","0","24","1","1","3","1","","0","0","0","null","","","<div class = 'row'><div class = 'column'><img src = 'usneg/3181.bmp' width = '100%;'></div><div class = 'column'><img src = 'category3/CS9.png' width = '70%;'></div></div>","null","neg","CS","CS","3","category3/CS9.png","","","","",""
"","html-keyboard-response","86","656180","0.0-6.0-6.0-0.17","s2pynh202w","many_one","0","indirect_first","0","er06as09","0","24","1","1","3","1","","0","0","0","null","","","<div class = 'row'><div class = 'column'><img src = 'usneg/7380.bmp' width = '100%;'></div><div class = 'column'><img src = 'category3/CS8.png' width = '70%;'></div></div>","null","neg","CS","CS","3","category3/CS8.png","","","","",""
"","html-keyboard-response","87","658683","0.0-6.0-6.0-0.18","s2pynh202w","many_one","0","indirect_first","0","er06as09","0","24","1","1","3","1","","0","0","0","null","","","<div class = 'row'><div class = 'column'><img src = 'category1/CS7.png' width = '70%;'></div><div class = 'column'><img src = 'usneg/9220.bmp' width = '100%;'></div></div>","null","neg","CS","CS","1","category1/CS7.png","","","","",""
"","html-keyboard-response","88","661186","0.0-6.0-6.0-0.19","s2pynh202w","many_one","0","indirect_first","0","er06as09","0","24","1","1","3","1","","0","0","0","null","","","<div class = 'row'><div class = 'column'><img src = 'category2/CS9.png' width = '70%;'></div><div class = 'column'><img src = 'uspos/5760.bmp' width = '100%;'></div></div>","null","pos","CS","CS","2","category2/CS9.png","","","","",""
"","html-keyboard-response","89","693223","0.0-7.0","s2pynh202w","many_one","0","indirect_first","0","er06as09","0","24","1","1","3","1","","0","0","0","31534.6199999986","","","<p>Sie sehen nun die chinesischen Zeichen nur ganz kurz. Danach sehen Sie die jeweilige Aussprache der Zeichen als Silbe auf dem Bildschrim. Ihre Aufgabe ist es, für jede Silbe anzugeben, ob diese etwas angenehmes, oder unangenehmes bedeuten könnte. Verlassen Sie sich hier vor allem auf Ihre Intuition.<br><br>Die Zeichen werden nur zur Orientierung dargestellt, beachten Sie sie deshalb nicht. Konzentrieren Sie sich vor allem auf die Silben. <br>Reagieren Sie mit folgenden zwei Tasten: <br><br><b>'D' </b> wenn die Silbe etwas <b>unangenehmes</b> bedeuten könnte. <br><b>'K'</b> wenn die Silbe etwas <b>angenehmes</b> bedeuten könnte. <br><br>Bitte legen Sie nun den Zeigefinger der linken Hand auf die Taste 'D' und den Zeigefinger der rechten Hand auf die Taste 'K'. <br>Reagieren Sie auf jede Silbe so schnell wie möglich. Uns interessiert Ihre spontane Reaktion. <br> <br> <br>Drücken Sie 'D' oder 'K', um die nächste Aufgabe zu starten. </p>","75","","","","","","","","","",""
"","html-keyboard-response","90","696226","0.0-8.0-0.0","s2pynh202w","many_one","0","indirect_first","0","er06as09","0","24","1","1","3","1","","0","0","0","null","","","<div style=""font-size:60px;"">+</div>","null","","","","","","","","","",""
"","html-keyboard-response","91","696317","0.0-8.0-1.0","s2pynh202w","many_one","0","indirect_first","0","er06as09","0","24","1","1","3","1","","0","0","0","null","","","<img src = 'category1/CS3.png' width = '100%;'>","null","","","","","","","","","",""
"","html-keyboard-response","92","696570","0.0-8.0-2.0","s2pynh202w","many_one","0","indirect_first","0","er06as09","0","24","1","1","3","1","","0","0","0","null","","","<img src = 'targets/37.png' width = '100%;'>","null","","","","","","","","","",""
"","html-keyboard-response","93","701703","0.0-8.0-3.0","s2pynh202w","many_one","0","indirect_first","0","er06as09","0","24","1","1","3","1","","0","0","0","5132.040000000503","","","<img src = 'targets/mask.png' width = '100%;'>","68","neg","CS","CS","1","category1/CS3.png","targets/37.png","0","indirect","0",""
"","html-keyboard-response","94","703205","0.0-8.0-0.1","s2pynh202w","many_one","0","indirect_first","0","er06as09","0","24","1","1","3","1","","0","0","0","null","","","<div style=""font-size:60px;"">+</div>","null","","","","","","","","","",""
"","html-keyboard-response","95","703296","0.0-8.0-1.1","s2pynh202w","many_one","0","indirect_first","0","er06as09","0","24","1","1","3","1","","0","0","0","null","","","<img src = 'category3/CS4.png' width = '100%;'>","null","","","","","","","","","",""
"","html-keyboard-response","96","703549","0.0-8.0-2.1","s2pynh202w","many_one","0","indirect_first","0","er06as09","0","24","1","1","3","1","","0","0","0","null","","","<img src = 'targets/3.png' width = '100%;'>","null","","","","","","","","","",""
"","html-keyboard-response","97","704595","0.0-8.0-3.1","s2pynh202w","many_one","0","indirect_first","0","er06as09","0","24","1","1","3","1","","0","0","0","1045.5949999996228","","","<img src = 'targets/mask.png' width = '100%;'>","68","neg","CS","CS","3","category3/CS4.png","targets/3.png","0","indirect","1",""
"","html-keyboard-response","98","706096","0.0-8.0-0.2","s2pynh202w","many_one","0","indirect_first","0","er06as09","0","24","1","1","3","1","","0","0","0","null","","","<div style=""font-size:60px;"">+</div>","null","","","","","","","","","",""
"","html-keyboard-response","99","706188","0.0-8.0-1.2","s2pynh202w","many_one","0","indirect_first","0","er06as09","0","24","1","1","3","1","","0","0","0","null","","","<img src = 'category3/CS7.png' width = '100%;'>","null","","","","","","","","","",""
"","html-keyboard-response","100","706441","0.0-8.0-2.2","s2pynh202w","many_one","0","indirect_first","0","er06as09","0","24","1","1","3","1","","0","0","0","null","","","<img src = 'targets/26.png' width = '100%;'>","null","","","","","","","","","",""
"","html-keyboard-response","101","707509","0.0-8.0-3.2","s2pynh202w","many_one","0","indirect_first","0","er06as09","0","24","1","1","3","1","","0","0","0","1066.564999997383","","","<img src = 'targets/mask.png' width = '100%;'>","75","neg","CS","CS","3","category3/CS7.png","targets/26.png","1","indirect","2",""
"","html-keyboard-response","102","709011","0.0-8.0-0.3","s2pynh202w","many_one","0","indirect_first","0","er06as09","0","24","1","1","3","1","","0","0","0","null","","","<div style=""font-size:60px;"">+</div>","null","","","","","","","","","",""
"","html-keyboard-response","103","709102","0.0-8.0-1.3","s2pynh202w","many_one","0","indirect_first","0","er06as09","0","24","1","1","3","1","","0","0","0","null","","","<img src = 'category1/CS7.png' width = '100%;'>","null","","","","","","","","","",""
"","html-keyboard-response","104","709354","0.0-8.0-2.3","s2pynh202w","many_one","0","indirect_first","0","er06as09","0","24","1","1","3","1","","0","0","0","null","","","<img src = 'targets/41.png' width = '100%;'>","null","","","","","","","","","",""
"","html-keyboard-response","105","710932","0.0-8.0-3.3","s2pynh202w","many_one","0","indirect_first","0","er06as09","0","24","1","1","3","1","","0","0","0","1576.8949999983888","","","<img src = 'targets/mask.png' width = '100%;'>","68","neg","CS","CS","1","category1/CS7.png","targets/41.png","0","indirect","3",""
"","html-keyboard-response","106","712433","0.0-8.0-0.4","s2pynh202w","many_one","0","indirect_first","0","er06as09","0","24","1","1","3","1","","0","0","0","null","","","<div style=""font-size:60px;"">+</div>","null","","","","","","","","","",""
"","html-keyboard-response","107","712524","0.0-8.0-1.4","s2pynh202w","many_one","0","indirect_first","0","er06as09","0","24","1","1","3","1","","0","0","0","null","","","<img src = 'category4/CS8.png' width = '100%;'>","null","","","","","","","","","",""
"","html-keyboard-response","108","712776","0.0-8.0-2.4","s2pynh202w","many_one","0","indirect_first","0","er06as09","0","24","1","1","3","1","","0","0","0","null","","","<img src = 'targets/43.png' width = '100%;'>","null","","","","","","","","","",""
"","html-keyboard-response","109","713981","0.0-8.0-3.4","s2pynh202w","many_one","0","indirect_first","0","er06as09","0","24","1","1","3","1","","0","0","0","1204.0499999966705","","","<img src = 'targets/mask.png' width = '100%;'>","68","pos","CS","CS","4","category4/CS8.png","targets/43.png","0","indirect","4",""
"","html-keyboard-response","110","715482","0.0-8.0-0.5","s2pynh202w","many_one","0","indirect_first","0","er06as09","0","24","1","1","3","1","","0","0","0","null","","","<div style=""font-size:60px;"">+</div>","null","","","","","","","","","",""
"","html-keyboard-response","111","715573","0.0-8.0-1.5","s2pynh202w","many_one","0","indirect_first","0","er06as09","0","24","1","1","3","1","","0","0","0","null","","","<img src = 'category2/CS8.png' width = '100%;'>","null","","","","","","","","","",""
"","html-keyboard-response","112","715826","0.0-8.0-2.5","s2pynh202w","many_one","0","indirect_first","0","er06as09","0","24","1","1","3","1","","0","0","0","null","","","<img src = 'targets/2.png' width = '100%;'>","null","","","","","","","","","",""
"","html-keyboard-response","113","716886","0.0-8.0-3.5","s2pynh202w","many_one","0","indirect_first","0","er06as09","0","24","1","1","3","1","","0","0","0","1058.6649999967776","","","<img src = 'targets/mask.png' width = '100%;'>","68","pos","CS","CS","2","category2/CS8.png","targets/2.png","0","indirect","5",""
"","html-keyboard-response","114","718387","0.0-8.0-0.6","s2pynh202w","many_one","0","indirect_first","0","er06as09","0","24","1","1","3","1","","0","0","0","null","","","<div style=""font-size:60px;"">+</div>","null","","","","","","","","","",""
"","html-keyboard-response","115","718478","0.0-8.0-1.6","s2pynh202w","many_one","0","indirect_first","0","er06as09","0","24","1","1","3","1","","0","0","0","null","","","<img src = 'category1/CS4.png' width = '100%;'>","null","","","","","","","","","",""
"","html-keyboard-response","116","718729","0.0-8.0-2.6","s2pynh202w","many_one","0","indirect_first","0","er06as09","0","24","1","1","3","1","","0","0","0","null","","","<img src = 'targets/4.png' width = '100%;'>","null","","","","","","","","","",""
"","html-keyboard-response","117","719575","0.0-8.0-3.6","s2pynh202w","many_one","0","indirect_first","0","er06as09","0","24","1","1","3","1","","0","0","0","844.9949999995297","","","<img src = 'targets/mask.png' width = '100%;'>","68","neg","GS","GSold","1","category1/CS4.png","targets/4.png","0","indirect","6",""
"","html-keyboard-response","118","721077","0.0-8.0-0.7","s2pynh202w","many_one","0","indirect_first","0","er06as09","0","24","1","1","3","1","","0","0","0","null","","","<div style=""font-size:60px;"">+</div>","null","","","","","","","","","",""
"","html-keyboard-response","119","721167","0.0-8.0-1.7","s2pynh202w","many_one","0","indirect_first","0","er06as09","0","24","1","1","3","1","","0","0","0","null","","","<img src = 'category1/CS8.png' width = '100%;'>","null","","","","","","","","","",""
"","html-keyboard-response","120","721420","0.0-8.0-2.7","s2pynh202w","many_one","0","indirect_first","0","er06as09","0","24","1","1","3","1","","0","0","0","null","","","<img src = 'targets/38.png' width = '100%;'>","null","","","","","","","","","",""
"","html-keyboard-response","121","722069","0.0-8.0-3.7","s2pynh202w","many_one","0","indirect_first","0","er06as09","0","24","1","1","3","1","","0","0","0","647.8800000004703","","","<img src = 'targets/mask.png' width = '100%;'>","68","neg","CS","CS","1","category1/CS8.png","targets/38.png","0","indirect","7",""
"","html-keyboard-response","122","723572","0.0-8.0-0.8","s2pynh202w","many_one","0","indirect_first","0","er06as09","0","24","1","1","3","1","","0","0","0","null","","","<div style=""font-size:60px;"">+</div>","null","","","","","","","","","",""
"","html-keyboard-response","123","723664","0.0-8.0-1.8","s2pynh202w","many_one","0","indirect_first","0","er06as09","0","24","1","1","3","1","","0","0","0","null","","","<img src = 'category4/CS7.png' width = '100%;'>","null","","","","","","","","","",""
"","html-keyboard-response","124","723916","0.0-8.0-2.8","s2pynh202w","many_one","0","indirect_first","0","er06as09","0","24","1","1","3","1","","0","0","0","null","","","<img src = 'targets/48.png' width = '100%;'>","null","","","","","","","","","",""
"","html-keyboard-response","125","724582","0.0-8.0-3.8","s2pynh202w","many_one","0","indirect_first","0","er06as09","0","24","1","1","3","1","","0","0","0","664.7699999994365","","","<img src = 'targets/mask.png' width = '100%;'>","68","pos","GS","GSold","4","category4/CS7.png","targets/48.png","0","indirect","8",""
"","html-keyboard-response","126","726084","0.0-8.0-0.9","s2pynh202w","many_one","0","indirect_first","0","er06as09","0","24","1","1","3","1","","0","0","0","null","","","<div style=""font-size:60px;"">+</div>","null","","","","","","","","","",""
"","html-keyboard-response","127","726175","0.0-8.0-1.9","s2pynh202w","many_one","0","indirect_first","0","er06as09","0","24","1","1","3","1","","0","0","0","null","","","<img src = 'category4/CS4.png' width = '100%;'>","null","","","","","","","","","",""
"","html-keyboard-response","128","726427","0.0-8.0-2.9","s2pynh202w","many_one","0","indirect_first","0","er06as09","0","24","1","1","3","1","","0","0","0","null","","","<img src = 'targets/19.png' width = '100%;'>","null","","","","","","","","","",""
"","html-keyboard-response","129","726927","0.0-8.0-3.9","s2pynh202w","many_one","0","indirect_first","0","er06as09","0","24","1","1","3","1","","0","0","0","499.0399999988731","","","<img src = 'targets/mask.png' width = '100%;'>","68","pos","CS","CS","4","category4/CS4.png","targets/19.png","0","indirect","9",""
"","html-keyboard-response","130","728429","0.0-8.0-0.10","s2pynh202w","many_one","0","indirect_first","0","er06as09","0","24","1","1","3","1","","0","0","0","null","","","<div style=""font-size:60px;"">+</div>","null","","","","","","","","","",""
"","html-keyboard-response","131","728520","0.0-8.0-1.10","s2pynh202w","many_one","0","indirect_first","0","er06as09","0","24","1","1","3","1","","0","0","0","null","","","<img src = 'category1/CS10.png' width = '100%;'>","null","","","","","","","","","",""
"","html-keyboard-response","132","728772","0.0-8.0-2.10","s2pynh202w","many_one","0","indirect_first","0","er06as09","0","24","1","1","3","1","","0","0","0","null","","","<img src = 'targets/42.png' width = '100%;'>","null","","","","","","","","","",""
"","html-keyboard-response","133","729420","0.0-8.0-3.10","s2pynh202w","many_one","0","indirect_first","0","er06as09","0","24","1","1","3","1","","0","0","0","646.9649999999674","","","<img src = 'targets/mask.png' width = '100%;'>","68","neg","CS","CS","1","category1/CS10.png","targets/42.png","0","indirect","10",""
"","html-keyboard-response","134","730922","0.0-8.0-0.11","s2pynh202w","many_one","0","indirect_first","0","er06as09","0","24","1","1","3","1","","0","0","0","null","","","<div style=""font-size:60px;"">+</div>","null","","","","","","","","","",""
"","html-keyboard-response","135","731013","0.0-8.0-1.11","s2pynh202w","many_one","0","indirect_first","0","er06as09","0","24","1","1","3","1","","0","0","0","null","","","<img src = 'category4/CS6.png' width = '100%;'>","null","","","","","","","","","",""
"","html-keyboard-response","136","731265","0.0-8.0-2.11","s2pynh202w","many_one","0","indirect_first","0","er06as09","0","24","1","1","3","1","","0","0","0","null","","","<img src = 'targets/39.png' width = '100%;'>","null","","","","","","","","","",""
"","html-keyboard-response","137","733482","0.0-8.0-3.11","s2pynh202w","many_one","0","indirect_first","0","er06as09","0","24","1","1","3","1","","0","0","0","2216.0949999997392","","","<img src = 'targets/mask.png' width = '100%;'>","75","pos","CS","CS","4","category4/CS6.png","targets/39.png","1","indirect","11",""
"","html-keyboard-response","138","734984","0.0-8.0-0.12","s2pynh202w","many_one","0","indirect_first","0","er06as09","0","24","1","1","3","1","","0","0","0","null","","","<div style=""font-size:60px;"">+</div>","null","","","","","","","","","",""
"","html-keyboard-response","139","735075","0.0-8.0-1.12","s2pynh202w","many_one","0","indirect_first","0","er06as09","0","24","1","1","3","1","","0","0","0","null","","","<img src = 'category1/CS9.png' width = '100%;'>","null","","","","","","","","","",""
"","html-keyboard-response","140","735327","0.0-8.0-2.12","s2pynh202w","many_one","0","indirect_first","0","er06as09","0","24","1","1","3","1","","0","0","0","null","","","<img src = 'targets/14.png' width = '100%;'>","null","","","","","","","","","",""
"","html-keyboard-response","141","737451","0.0-8.0-3.12","s2pynh202w","many_one","0","indirect_first","0","er06as09","0","24","1","1","3","1","","0","0","0","2123.3349999964703","","","<img src = 'targets/mask.png' width = '100%;'>","75","neg","CS","CS","1","category1/CS9.png","targets/14.png","1","indirect","12",""
"","html-keyboard-response","142","738953","0.0-8.0-0.13","s2pynh202w","many_one","0","indirect_first","0","er06as09","0","24","1","1","3","1","","0","0","0","null","","","<div style=""font-size:60px;"">+</div>","null","","","","","","","","","",""
"","html-keyboard-response","143","739045","0.0-8.0-1.13","s2pynh202w","many_one","0","indirect_first","0","er06as09","0","24","1","1","3","1","","0","0","0","null","","","<img src = 'category3/CS8.png' width = '100%;'>","null","","","","","","","","","",""
"","html-keyboard-response","144","739297","0.0-8.0-2.13","s2pynh202w","many_one","0","indirect_first","0","er06as09","0","24","1","1","3","1","","0","0","0","null","","","<img src = 'targets/8.png' width = '100%;'>","null","","","","","","","","","",""
"","html-keyboard-response","145","739878","0.0-8.0-3.13","s2pynh202w","many_one","0","indirect_first","0","er06as09","0","24","1","1","3","1","","0","0","0","579.555000000284","","","<img src = 'targets/mask.png' width = '100%;'>","68","neg","CS","CS","3","category3/CS8.png","targets/8.png","0","indirect","13",""
"","html-keyboard-response","146","741381","0.0-8.0-0.14","s2pynh202w","many_one","0","indirect_first","0","er06as09","0","24","1","1","3","1","","0","0","0","null","","","<div style=""font-size:60px;"">+</div>","null","","","","","","","","","",""
"","html-keyboard-response","147","741472","0.0-8.0-1.14","s2pynh202w","many_one","0","indirect_first","0","er06as09","0","24","1","1","3","1","","0","0","0","null","","","<img src = 'category2/CS4.png' width = '100%;'>","null","","","","","","","","","",""
"","html-keyboard-response","148","741723","0.0-8.0-2.14","s2pynh202w","many_one","0","indirect_first","0","er06as09","0","24","1","1","3","1","","0","0","0","null","","","<img src = 'targets/45.png' width = '100%;'>","null","","","","","","","","","",""
"","html-keyboard-response","149","742360","0.0-8.0-3.14","s2pynh202w","many_one","0","indirect_first","0","er06as09","0","24","1","1","3","1","","0","0","0","635.4549999996088","","","<img src = 'targets/mask.png' width = '100%;'>","75","pos","CS","CS","2","category2/CS4.png","targets/45.png","1","indirect","14",""
"","html-keyboard-response","150","743862","0.0-8.0-0.15","s2pynh202w","many_one","0","indirect_first","0","er06as09","0","24","1","1","3","1","","0","0","0","null","","","<div style=""font-size:60px;"">+</div>","null","","","","","","","","","",""
"","html-keyboard-response","151","743953","0.0-8.0-1.15","s2pynh202w","many_one","0","indirect_first","0","er06as09","0","24","1","1","3","1","","0","0","0","null","","","<img src = 'category2/CS1.png' width = '100%;'>","null","","","","","","","","","",""
"","html-keyboard-response","152","744205","0.0-8.0-2.15","s2pynh202w","many_one","0","indirect_first","0","er06as09","0","24","1","1","3","1","","0","0","0","null","","","<img src = 'targets/15.png' width = '100%;'>","null","","","","","","","","","",""
"","html-keyboard-response","153","744882","0.0-8.0-3.15","s2pynh202w","many_one","0","indirect_first","0","er06as09","0","24","1","1","3","1","","0","0","0","676.029999998631","","","<img src = 'targets/mask.png' width = '100%;'>","68","pos","CS","CS","2","category2/CS1.png","targets/15.png","0","indirect","15",""
"","html-keyboard-response","154","746384","0.0-8.0-0.16","s2pynh202w","many_one","0","indirect_first","0","er06as09","0","24","1","1","3","1","","0","0","0","null","","","<div style=""font-size:60px;"">+</div>","null","","","","","","","","","",""
"","html-keyboard-response","155","746476","0.0-8.0-1.16","s2pynh202w","many_one","0","indirect_first","0","er06as09","0","24","1","1","3","1","","0","0","0","null","","","<img src = 'category4/CS5.png' width = '100%;'>","null","","","","","","","","","",""
"","html-keyboard-response","156","746728","0.0-8.0-2.16","s2pynh202w","many_one","0","indirect_first","0","er06as09","0","24","1","1","3","1","","0","0","0","null","","","<img src = 'targets/27.png' width = '100%;'>","null","","","","","","","","","",""
"","html-keyboard-response","157","747697","0.0-8.0-3.16","s2pynh202w","many_one","0","indirect_first","0","er06as09","0","24","1","1","3","1","","0","0","0","968.3699999985984","","","<img src = 'targets/mask.png' width = '100%;'>","75","pos","CS","CS","4","category4/CS5.png","targets/27.png","1","indirect","16",""
"","html-keyboard-response","158","749199","0.0-8.0-0.17","s2pynh202w","many_one","0","indirect_first","0","er06as09","0","24","1","1","3","1","","0","0","0","null","","","<div style=""font-size:60px;"">+</div>","null","","","","","","","","","",""
"","html-keyboard-response","159","749291","0.0-8.0-1.17","s2pynh202w","many_one","0","indirect_first","0","er06as09","0","24","1","1","3","1","","0","0","0","null","","","<img src = 'category2/CS9.png' width = '100%;'>","null","","","","","","","","","",""
"","html-keyboard-response","160","749542","0.0-8.0-2.17","s2pynh202w","many_one","0","indirect_first","0","er06as09","0","24","1","1","3","1","","0","0","0","null","","","<img src = 'targets/10.png' width = '100%;'>","null","","","","","","","","","",""
"","html-keyboard-response","161","750190","0.0-8.0-3.17","s2pynh202w","many_one","0","indirect_first","0","er06as09","0","24","1","1","3","1","","0","0","0","647.3250000016997","","","<img src = 'targets/mask.png' width = '100%;'>","68","pos","CS","CS","2","category2/CS9.png","targets/10.png","0","indirect","17",""
"","html-keyboard-response","162","751693","0.0-8.0-0.18","s2pynh202w","many_one","0","indirect_first","0","er06as09","0","24","1","1","3","1","","0","0","0","null","","","<div style=""font-size:60px;"">+</div>","null","","","","","","","","","",""
"","html-keyboard-response","163","751784","0.0-8.0-1.18","s2pynh202w","many_one","0","indirect_first","0","er06as09","0","24","1","1","3","1","","0","0","0","null","","","<img src = 'category1/CS1.png' width = '100%;'>","null","","","","","","","","","",""
"","html-keyboard-response","164","752035","0.0-8.0-2.18","s2pynh202w","many_one","0","indirect_first","0","er06as09","0","24","1","1","3","1","","0","0","0","null","","","<img src = 'targets/20.png' width = '100%;'>","null","","","","","","","","","",""
"","html-keyboard-response","165","755788","0.0-8.0-3.18","s2pynh202w","many_one","0","indirect_first","0","er06as09","0","24","1","1","3","1","","0","0","0","3751.570000000298","","","<img src = 'targets/mask.png' width = '100%;'>","75","neg","GS","GSold","1","category1/CS1.png","targets/20.png","1","indirect","18",""
"","html-keyboard-response","166","757291","0.0-8.0-0.19","s2pynh202w","many_one","0","indirect_first","0","er06as09","0","24","1","1","3","1","","0","0","0","null","","","<div style=""font-size:60px;"">+</div>","null","","","","","","","","","",""
"","html-keyboard-response","167","757384","0.0-8.0-1.19","s2pynh202w","many_one","0","indirect_first","0","er06as09","0","24","1","1","3","1","","0","0","0","null","","","<img src = 'category3/CS2.png' width = '100%;'>","null","","","","","","","","","",""
"","html-keyboard-response","168","757635","0.0-8.0-2.19","s2pynh202w","many_one","0","indirect_first","0","er06as09","0","24","1","1","3","1","","0","0","0","null","","","<img src = 'targets/44.png' width = '100%;'>","null","","","","","","","","","",""
"","html-keyboard-response","169","758546","0.0-8.0-3.19","s2pynh202w","many_one","0","indirect_first","0","er06as09","0","24","1","1","3","1","","0","0","0","910.2950000015553","","","<img src = 'targets/mask.png' width = '100%;'>","75","neg","CS","CS","3","category3/CS2.png","targets/44.png","1","indirect","19",""
"","html-keyboard-response","170","760050","0.0-8.0-0.20","s2pynh202w","many_one","0","indirect_first","0","er06as09","0","24","1","1","3","1","","0","0","0","null","","","<div style=""font-size:60px;"">+</div>","null","","","","","","","","","",""
"","html-keyboard-response","171","760141","0.0-8.0-1.20","s2pynh202w","many_one","0","indirect_first","0","er06as09","0","24","1","1","3","1","","0","0","0","null","","","<img src = 'category1/CS2.png' width = '100%;'>","null","","","","","","","","","",""
"","html-keyboard-response","172","760393","0.0-8.0-2.20","s2pynh202w","many_one","0","indirect_first","0","er06as09","0","24","1","1","3","1","","0","0","0","null","","","<img src = 'targets/47.png' width = '100%;'>","null","","","","","","","","","",""
"","html-keyboard-response","173","761141","0.0-8.0-3.20","s2pynh202w","many_one","0","indirect_first","0","er06as09","0","24","1","1","3","1","","0","0","0","746.5950000004377","","","<img src = 'targets/mask.png' width = '100%;'>","75","neg","GS","GSold","1","category1/CS2.png","targets/47.png","1","indirect","20",""
"","html-keyboard-response","174","762643","0.0-8.0-0.21","s2pynh202w","many_one","0","indirect_first","0","er06as09","0","24","1","1","3","1","","0","0","0","null","","","<div style=""font-size:60px;"">+</div>","null","","","","","","","","","",""
"","html-keyboard-response","175","762736","0.0-8.0-1.21","s2pynh202w","many_one","0","indirect_first","0","er06as09","0","24","1","1","3","1","","0","0","0","null","","","<img src = 'category2/CS10.png' width = '100%;'>","null","","","","","","","","","",""
"","html-keyboard-response","176","762988","0.0-8.0-2.21","s2pynh202w","many_one","0","indirect_first","0","er06as09","0","24","1","1","3","1","","0","0","0","null","","","<img src = 'targets/5.png' width = '100%;'>","null","","","","","","","","","",""
"","html-keyboard-response","177","764356","0.0-8.0-3.21","s2pynh202w","many_one","0","indirect_first","0","er06as09","0","24","1","1","3","1","","0","0","0","1367.050000000745","","","<img src = 'targets/mask.png' width = '100%;'>","68","pos","CS","CS","2","category2/CS10.png","targets/5.png","0","indirect","21",""
"","html-keyboard-response","178","765859","0.0-8.0-0.22","s2pynh202w","many_one","0","indirect_first","0","er06as09","0","24","1","1","3","1","","0","0","0","null","","","<div style=""font-size:60px;"">+</div>","null","","","","","","","","","",""
"","html-keyboard-response","179","765951","0.0-8.0-1.22","s2pynh202w","many_one","0","indirect_first","0","er06as09","0","24","1","1","3","1","","0","0","0","null","","","<img src = 'category3/CS9.png' width = '100%;'>","null","","","","","","","","","",""
"","html-keyboard-response","180","766202","0.0-8.0-2.22","s2pynh202w","many_one","0","indirect_first","0","er06as09","0","24","1","1","3","1","","0","0","0","null","","","<img src = 'targets/12.png' width = '100%;'>","null","","","","","","","","","",""
"","html-keyboard-response","181","766980","0.0-8.0-3.22","s2pynh202w","many_one","0","indirect_first","0","er06as09","0","24","1","1","3","1","","0","0","0","776.8049999976065","","","<img src = 'targets/mask.png' width = '100%;'>","75","neg","CS","CS","3","category3/CS9.png","targets/12.png","1","indirect","22",""
"","html-keyboard-response","182","768482","0.0-8.0-0.23","s2pynh202w","many_one","0","indirect_first","0","er06as09","0","24","1","1","3","1","","0","0","0","null","","","<div style=""font-size:60px;"">+</div>","null","","","","","","","","","",""
"","html-keyboard-response","183","768573","0.0-8.0-1.23","s2pynh202w","many_one","0","indirect_first","0","er06as09","0","24","1","1","3","1","","0","0","0","null","","","<img src = 'category4/CS1.png' width = '100%;'>","null","","","","","","","","","",""
"","html-keyboard-response","184","768825","0.0-8.0-2.23","s2pynh202w","many_one","0","indirect_first","0","er06as09","0","24","1","1","3","1","","0","0","0","null","","","<img src = 'targets/6.png' width = '100%;'>","null","","","","","","","","","",""
"","html-keyboard-response","185","769508","0.0-8.0-3.23","s2pynh202w","many_one","0","indirect_first","0","er06as09","0","24","1","1","3","1","","0","0","0","681.3250000013504","","","<img src = 'targets/mask.png' width = '100%;'>","75","pos","CS","CS","4","category4/CS1.png","targets/6.png","1","indirect","23",""
"","survey-html-form","186","772482","0.0-9.0","s2pynh202w","many_one","0","indirect_first","0","er06as09","0","24","1","1","3","1","","0","0","0","2472.8350000004284","","{}","","","","","","","","","","","",""
"","html-keyboard-response","187","775484","0.0-10.0-0.0","s2pynh202w","many_one","0","indirect_first","0","er06as09","0","24","1","1","3","1","","0","0","0","null","","","<div style=""font-size:60px;"">+</div>","null","","","","","","","","","",""
"","html-keyboard-response","188","775575","0.0-10.0-1.0","s2pynh202w","many_one","0","indirect_first","0","er06as09","0","24","1","1","3","1","","0","0","0","null","","","<img src = 'category4/lin.png' width = '100%;'>","null","","","","","","","","","",""
"","html-keyboard-response","189","775827","0.0-10.0-2.0","s2pynh202w","many_one","0","indirect_first","0","er06as09","0","24","1","1","3","1","","0","0","0","null","","","<img src = 'targets/16.png' width = '100%;'>","null","","","","","","","","","",""
"","html-keyboard-response","190","776731","0.0-10.0-3.0","s2pynh202w","many_one","0","indirect_first","0","er06as09","0","24","1","1","3","1","","0","0","0","902.4000000027008","","","<img src = 'targets/mask.png' width = '100%;'>","68","pos","GS","abstract","4","category4/lin.png","targets/16.png","0","indirect","24",""
"","html-keyboard-response","191","778233","0.0-10.0-0.1","s2pynh202w","many_one","0","indirect_first","0","er06as09","0","24","1","1","3","1","","0","0","0","null","","","<div style=""font-size:60px;"">+</div>","null","","","","","","","","","",""
"","html-keyboard-response","192","778324","0.0-10.0-1.1","s2pynh202w","many_one","0","indirect_first","0","er06as09","0","24","1","1","3","1","","0","0","0","null","","","<img src = 'category2/GS3.png' width = '100%;'>","null","","","","","","","","","",""
"","html-keyboard-response","193","778576","0.0-10.0-2.1","s2pynh202w","many_one","0","indirect_first","0","er06as09","0","24","1","1","3","1","","0","0","0","null","","","<img src = 'targets/30.png' width = '100%;'>","null","","","","","","","","","",""
"","html-keyboard-response","194","779595","0.0-10.0-3.1","s2pynh202w","many_one","0","indirect_first","0","er06as09","0","24","1","1","3","1","","0","0","0","1018.1000000010245","","","<img src = 'targets/mask.png' width = '100%;'>","68","pos","GS","GSnew","2","category2/GS3.png","targets/30.png","0","indirect","25",""
"","html-keyboard-response","195","781097","0.0-10.0-0.2","s2pynh202w","many_one","0","indirect_first","0","er06as09","0","24","1","1","3","1","","0","0","0","null","","","<div style=""font-size:60px;"">+</div>","null","","","","","","","","","",""
"","html-keyboard-response","196","781188","0.0-10.0-1.2","s2pynh202w","many_one","0","indirect_first","0","er06as09","0","24","1","1","3","1","","0","0","0","null","","","<img src = 'category4/CS9.png' width = '100%;'>","null","","","","","","","","","",""
"","html-keyboard-response","197","781439","0.0-10.0-2.2","s2pynh202w","many_one","0","indirect_first","0","er06as09","0","24","1","1","3","1","","0","0","0","null","","","<img src = 'targets/29.png' width = '100%;'>","null","","","","","","","","","",""
"","html-keyboard-response","198","781991","0.0-10.0-3.2","s2pynh202w","many_one","0","indirect_first","0","er06as09","0","24","1","1","3","1","","0","0","0","550.5349999985192","","","<img src = 'targets/mask.png' width = '100%;'>","75","pos","GS","GSold","4","category4/CS9.png","targets/29.png","1","indirect","26",""
"","html-keyboard-response","199","783492","0.0-10.0-0.3","s2pynh202w","many_one","0","indirect_first","0","er06as09","0","24","1","1","3","1","","0","0","0","null","","","<div style=""font-size:60px;"">+</div>","null","","","","","","","","","",""
"","html-keyboard-response","200","783583","0.0-10.0-1.3","s2pynh202w","many_one","0","indirect_first","0","er06as09","0","24","1","1","3","1","","0","0","0","null","","","<img src = 'category1/ma.png' width = '100%;'>","null","","","","","","","","","",""
"","html-keyboard-response","201","783836","0.0-10.0-2.3","s2pynh202w","many_one","0","indirect_first","0","er06as09","0","24","1","1","3","1","","0","0","0","null","","","<img src = 'targets/24.png' width = '100%;'>","null","","","","","","","","","",""
"","html-keyboard-response","202","784543","0.0-10.0-3.3","s2pynh202w","many_one","0","indirect_first","0","er06as09","0","24","1","1","3","1","","0","0","0","706.8400000025285","","","<img src = 'targets/mask.png' width = '100%;'>","68","neg","GS","abstract","1","category1/ma.png","targets/24.png","0","indirect","27",""
"","html-keyboard-response","203","786046","0.0-10.0-0.4","s2pynh202w","many_one","0","indirect_first","0","er06as09","0","24","1","1","3","1","","0","0","0","null","","","<div style=""font-size:60px;"">+</div>","null","","","","","","","","","",""
"","html-keyboard-response","204","786137","0.0-10.0-1.4","s2pynh202w","many_one","0","indirect_first","0","er06as09","0","24","1","1","3","1","","0","0","0","null","","","<img src = 'category3/GS1.png' width = '100%;'>","null","","","","","","","","","",""
"","html-keyboard-response","205","786389","0.0-10.0-2.4","s2pynh202w","many_one","0","indirect_first","0","er06as09","0","24","1","1","3","1","","0","0","0","null","","","<img src = 'targets/35.png' width = '100%;'>","null","","","","","","","","","",""
"","html-keyboard-response","206","786965","0.0-10.0-3.4","s2pynh202w","many_one","0","indirect_first","0","er06as09","0","24","1","1","3","1","","0","0","0","574.4599999997299","","","<img src = 'targets/mask.png' width = '100%;'>","75","neg","GS","GSnew","3","category3/GS1.png","targets/35.png","1","indirect","28",""
"","html-keyboard-response","207","788467","0.0-10.0-0.5","s2pynh202w","many_one","0","indirect_first","0","er06as09","0","24","1","1","3","1","","0","0","0","null","","","<div style=""font-size:60px;"">+</div>","null","","","","","","","","","",""
"","html-keyboard-response","208","788558","0.0-10.0-1.5","s2pynh202w","many_one","0","indirect_first","0","er06as09","0","24","1","1","3","1","","0","0","0","null","","","<img src = 'category2/CS2.png' width = '100%;'>","null","","","","","","","","","",""
"","html-keyboard-response","209","788810","0.0-10.0-2.5","s2pynh202w","many_one","0","indirect_first","0","er06as09","0","24","1","1","3","1","","0","0","0","null","","","<img src = 'targets/11.png' width = '100%;'>","null","","","","","","","","","",""
"","html-keyboard-response","210","789973","0.0-10.0-3.5","s2pynh202w","many_one","0","indirect_first","0","er06as09","0","24","1","1","3","1","","0","0","0","1162.2449999995297","","","<img src = 'targets/mask.png' width = '100%;'>","75","pos","GS","GSold","2","category2/CS2.png","targets/11.png","1","indirect","29",""
"","html-keyboard-response","211","791479","0.0-10.0-0.6","s2pynh202w","many_one","0","indirect_first","0","er06as09","0","24","1","1","3","1","","0","0","0","null","","","<div style=""font-size:60px;"">+</div>","null","","","","","","","","","",""
"","html-keyboard-response","212","791572","0.0-10.0-1.6","s2pynh202w","many_one","0","indirect_first","0","er06as09","0","24","1","1","3","1","","0","0","0","null","","","<img src = 'category1/GS2.png' width = '100%;'>","null","","","","","","","","","",""
"","html-keyboard-response","213","791825","0.0-10.0-2.6","s2pynh202w","many_one","0","indirect_first","0","er06as09","0","24","1","1","3","1","","0","0","0","null","","","<img src = 'targets/18.png' width = '100%;'>","null","","","","","","","","","",""
"","html-keyboard-response","214","793339","0.0-10.0-3.6","s2pynh202w","many_one","0","indirect_first","0","er06as09","0","24","1","1","3","1","","0","0","0","1511.9450000020443","","","<img src = 'targets/mask.png' width = '100%;'>","68","neg","GS","GSnew","1","category1/GS2.png","targets/18.png","0","indirect","30",""
"","html-keyboard-response","215","794841","0.0-10.0-0.7","s2pynh202w","many_one","0","indirect_first","0","er06as09","0","24","1","1","3","1","","0","0","0","null","","","<div style=""font-size:60px;"">+</div>","null","","","","","","","","","",""
"","html-keyboard-response","216","794933","0.0-10.0-1.7","s2pynh202w","many_one","0","indirect_first","0","er06as09","0","24","1","1","3","1","","0","0","0","null","","","<img src = 'category2/GS1.png' width = '100%;'>","null","","","","","","","","","",""
"","html-keyboard-response","217","795186","0.0-10.0-2.7","s2pynh202w","many_one","0","indirect_first","0","er06as09","0","24","1","1","3","1","","0","0","0","null","","","<img src = 'targets/22.png' width = '100%;'>","null","","","","","","","","","",""
"","html-keyboard-response","218","796046","0.0-10.0-3.7","s2pynh202w","many_one","0","indirect_first","0","er06as09","0","24","1","1","3","1","","0","0","0","859.1149999992922","","","<img src = 'targets/mask.png' width = '100%;'>","75","pos","GS","GSnew","2","category2/GS1.png","targets/22.png","1","indirect","31",""
"","html-keyboard-response","219","797548","0.0-10.0-0.8","s2pynh202w","many_one","0","indirect_first","0","er06as09","0","24","1","1","3","1","","0","0","0","null","","","<div style=""font-size:60px;"">+</div>","null","","","","","","","","","",""
"","html-keyboard-response","220","797640","0.0-10.0-1.8","s2pynh202w","many_one","0","indirect_first","0","er06as09","0","24","1","1","3","1","","0","0","0","null","","","<img src = 'category3/CS1.png' width = '100%;'>","null","","","","","","","","","",""
"","html-keyboard-response","221","797891","0.0-10.0-2.8","s2pynh202w","many_one","0","indirect_first","0","er06as09","0","24","1","1","3","1","","0","0","0","null","","","<img src = 'targets/31.png' width = '100%;'>","null","","","","","","","","","",""
"","html-keyboard-response","222","798436","0.0-10.0-3.8","s2pynh202w","many_one","0","indirect_first","0","er06as09","0","24","1","1","3","1","","0","0","0","544.4100000022445","","","<img src = 'targets/mask.png' width = '100%;'>","75","neg","GS","GSold","3","category3/CS1.png","targets/31.png","1","indirect","32",""
"","html-keyboard-response","223","799938","0.0-10.0-0.9","s2pynh202w","many_one","0","indirect_first","0","er06as09","0","24","1","1","3","1","","0","0","0","null","","","<div style=""font-size:60px;"">+</div>","null","","","","","","","","","",""
"","html-keyboard-response","224","800030","0.0-10.0-1.9","s2pynh202w","many_one","0","indirect_first","0","er06as09","0","24","1","1","3","1","","0","0","0","null","","","<img src = 'category3/CS10.png' width = '100%;'>","null","","","","","","","","","",""
"","html-keyboard-response","225","800282","0.0-10.0-2.9","s2pynh202w","many_one","0","indirect_first","0","er06as09","0","24","1","1","3","1","","0","0","0","null","","","<img src = 'targets/34.png' width = '100%;'>","null","","","","","","","","","",""
"","html-keyboard-response","226","800990","0.0-10.0-3.9","s2pynh202w","many_one","0","indirect_first","0","er06as09","0","24","1","1","3","1","","0","0","0","707.6149999994086","","","<img src = 'targets/mask.png' width = '100%;'>","75","neg","GS","GSold","3","category3/CS10.png","targets/34.png","1","indirect","33",""
"","html-keyboard-response","227","802493","0.0-10.0-0.10","s2pynh202w","many_one","0","indirect_first","0","er06as09","0","24","1","1","3","1","","0","0","0","null","","","<div style=""font-size:60px;"">+</div>","null","","","","","","","","","",""
"","html-keyboard-response","228","802585","0.0-10.0-1.10","s2pynh202w","many_one","0","indirect_first","0","er06as09","0","24","1","1","3","1","","0","0","0","null","","","<img src = 'category4/GS3.png' width = '100%;'>","null","","","","","","","","","",""
"","html-keyboard-response","229","802837","0.0-10.0-2.10","s2pynh202w","many_one","0","indirect_first","0","er06as09","0","24","1","1","3","1","","0","0","0","null","","","<img src = 'targets/23.png' width = '100%;'>","null","","","","","","","","","",""
"","html-keyboard-response","230","803601","0.0-10.0-3.10","s2pynh202w","many_one","0","indirect_first","0","er06as09","0","24","1","1","3","1","","0","0","0","762.7949999986449","","","<img src = 'targets/mask.png' width = '100%;'>","75","pos","GS","GSnew","4","category4/GS3.png","targets/23.png","1","indirect","34",""
"","html-keyboard-response","231","805103","0.0-10.0-0.11","s2pynh202w","many_one","0","indirect_first","0","er06as09","0","24","1","1","3","1","","0","0","0","null","","","<div style=""font-size:60px;"">+</div>","null","","","","","","","","","",""
"","html-keyboard-response","232","805194","0.0-10.0-1.11","s2pynh202w","many_one","0","indirect_first","0","er06as09","0","24","1","1","3","1","","0","0","0","null","","","<img src = 'category3/wang.png' width = '100%;'>","null","","","","","","","","","",""
"","html-keyboard-response","233","805447","0.0-10.0-2.11","s2pynh202w","many_one","0","indirect_first","0","er06as09","0","24","1","1","3","1","","0","0","0","null","","","<img src = 'targets/32.png' width = '100%;'>","null","","","","","","","","","",""
"","html-keyboard-response","234","806169","0.0-10.0-3.11","s2pynh202w","many_one","0","indirect_first","0","er06as09","0","24","1","1","3","1","","0","0","0","721.1950000019278","","","<img src = 'targets/mask.png' width = '100%;'>","68","neg","GS","abstract","3","category3/wang.png","targets/32.png","0","indirect","35",""
"","html-keyboard-response","235","807672","0.0-10.0-0.12","s2pynh202w","many_one","0","indirect_first","0","er06as09","0","24","1","1","3","1","","0","0","0","null","","","<div style=""font-size:60px;"">+</div>","null","","","","","","","","","",""
"","html-keyboard-response","236","807764","0.0-10.0-1.12","s2pynh202w","many_one","0","indirect_first","0","er06as09","0","24","1","1","3","1","","0","0","0","null","","","<img src = 'category3/GS2.png' width = '100%;'>","null","","","","","","","","","",""
"","html-keyboard-response","237","808016","0.0-10.0-2.12","s2pynh202w","many_one","0","indirect_first","0","er06as09","0","24","1","1","3","1","","0","0","0","null","","","<img src = 'targets/25.png' width = '100%;'>","null","","","","","","","","","",""
"","html-keyboard-response","238","808626","0.0-10.0-3.12","s2pynh202w","many_one","0","indirect_first","0","er06as09","0","24","1","1","3","1","","0","0","0","609.8650000022026","","","<img src = 'targets/mask.png' width = '100%;'>","75","neg","GS","GSnew","3","category3/GS2.png","targets/25.png","1","indirect","36",""
"","html-keyboard-response","239","810129","0.0-10.0-0.13","s2pynh202w","many_one","0","indirect_first","0","er06as09","0","24","1","1","3","1","","0","0","0","null","","","<div style=""font-size:60px;"">+</div>","null","","","","","","","","","",""
"","html-keyboard-response","240","810220","0.0-10.0-1.13","s2pynh202w","many_one","0","indirect_first","0","er06as09","0","24","1","1","3","1","","0","0","0","null","","","<img src = 'category3/CS6.png' width = '100%;'>","null","","","","","","","","","",""
"","html-keyboard-response","241","810473","0.0-10.0-2.13","s2pynh202w","many_one","0","indirect_first","0","er06as09","0","24","1","1","3","1","","0","0","0","null","","","<img src = 'targets/36.png' width = '100%;'>","null","","","","","","","","","",""
"","html-keyboard-response","242","811165","0.0-10.0-3.13","s2pynh202w","many_one","0","indirect_first","0","er06as09","0","24","1","1","3","1","","0","0","0","690.6400000007125","","","<img src = 'targets/mask.png' width = '100%;'>","75","neg","GS","GSold","3","category3/CS6.png","targets/36.png","1","indirect","37",""
"","html-keyboard-response","243","812666","0.0-10.0-0.14","s2pynh202w","many_one","0","indirect_first","0","er06as09","0","24","1","1","3","1","","0","0","0","null","","","<div style=""font-size:60px;"">+</div>","null","","","","","","","","","",""
"","html-keyboard-response","244","812758","0.0-10.0-1.14","s2pynh202w","many_one","0","indirect_first","0","er06as09","0","24","1","1","3","1","","0","0","0","null","","","<img src = 'category3/GS3.png' width = '100%;'>","null","","","","","","","","","",""
"","html-keyboard-response","245","813011","0.0-10.0-2.14","s2pynh202w","many_one","0","indirect_first","0","er06as09","0","24","1","1","3","1","","0","0","0","null","","","<img src = 'targets/28.png' width = '100%;'>","null","","","","","","","","","",""
"","html-keyboard-response","246","813622","0.0-10.0-3.14","s2pynh202w","many_one","0","indirect_first","0","er06as09","0","24","1","1","3","1","","0","0","0","610.6949999993667","","","<img src = 'targets/mask.png' width = '100%;'>","68","neg","GS","GSnew","3","category3/GS3.png","targets/28.png","0","indirect","38",""
"","html-keyboard-response","247","815125","0.0-10.0-0.15","s2pynh202w","many_one","0","indirect_first","0","er06as09","0","24","1","1","3","1","","0","0","0","null","","","<div style=""font-size:60px;"">+</div>","null","","","","","","","","","",""
"","html-keyboard-response","248","815217","0.0-10.0-1.15","s2pynh202w","many_one","0","indirect_first","0","er06as09","0","24","1","1","3","1","","0","0","0","null","","","<img src = 'category1/GS3.png' width = '100%;'>","null","","","","","","","","","",""
"","html-keyboard-response","249","815470","0.0-10.0-2.15","s2pynh202w","many_one","0","indirect_first","0","er06as09","0","24","1","1","3","1","","0","0","0","null","","","<img src = 'targets/17.png' width = '100%;'>","null","","","","","","","","","",""
"","html-keyboard-response","250","816274","0.0-10.0-3.15","s2pynh202w","many_one","0","indirect_first","0","er06as09","0","24","1","1","3","1","","0","0","0","803.1300000002375","","","<img src = 'targets/mask.png' width = '100%;'>","75","neg","GS","GSnew","1","category1/GS3.png","targets/17.png","1","indirect","39",""
"","html-keyboard-response","251","817776","0.0-10.0-0.16","s2pynh202w","many_one","0","indirect_first","0","er06as09","0","24","1","1","3","1","","0","0","0","null","","","<div style=""font-size:60px;"">+</div>","null","","","","","","","","","",""
"","html-keyboard-response","252","817867","0.0-10.0-1.16","s2pynh202w","many_one","0","indirect_first","0","er06as09","0","24","1","1","3","1","","0","0","0","null","","","<img src = 'category1/GS1.png' width = '100%;'>","null","","","","","","","","","",""
"","html-keyboard-response","253","818120","0.0-10.0-2.16","s2pynh202w","many_one","0","indirect_first","0","er06as09","0","24","1","1","3","1","","0","0","0","null","","","<img src = 'targets/33.png' width = '100%;'>","null","","","","","","","","","",""
"","html-keyboard-response","254","818866","0.0-10.0-3.16","s2pynh202w","many_one","0","indirect_first","0","er06as09","0","24","1","1","3","1","","0","0","0","745.1099999998696","","","<img src = 'targets/mask.png' width = '100%;'>","75","neg","GS","GSnew","1","category1/GS1.png","targets/33.png","1","indirect","40",""
"","html-keyboard-response","255","820368","0.0-10.0-0.17","s2pynh202w","many_one","0","indirect_first","0","er06as09","0","24","1","1","3","1","","0","0","0","null","","","<div style=""font-size:60px;"">+</div>","null","","","","","","","","","",""
"","html-keyboard-response","256","820460","0.0-10.0-1.17","s2pynh202w","many_one","0","indirect_first","0","er06as09","0","24","1","1","3","1","","0","0","0","null","","","<img src = 'category2/GS2.png' width = '100%;'>","null","","","","","","","","","",""
"","html-keyboard-response","257","820711","0.0-10.0-2.17","s2pynh202w","many_one","0","indirect_first","0","er06as09","0","24","1","1","3","1","","0","0","0","null","","","<img src = 'targets/21.png' width = '100%;'>","null","","","","","","","","","",""
"","html-keyboard-response","258","821231","0.0-10.0-3.17","s2pynh202w","many_one","0","indirect_first","0","er06as09","0","24","1","1","3","1","","0","0","0","518.9449999998324","","","<img src = 'targets/mask.png' width = '100%;'>","68","pos","GS","GSnew","2","category2/GS2.png","targets/21.png","0","indirect","41",""
"","html-keyboard-response","259","822733","0.0-10.0-0.18","s2pynh202w","many_one","0","indirect_first","0","er06as09","0","24","1","1","3","1","","0","0","0","null","","","<div style=""font-size:60px;"">+</div>","null","","","","","","","","","",""
"","html-keyboard-response","260","822825","0.0-10.0-1.18","s2pynh202w","many_one","0","indirect_first","0","er06as09","0","24","1","1","3","1","","0","0","0","null","","","<img src = 'category4/CS3.png' width = '100%;'>","null","","","","","","","","","",""
"","html-keyboard-response","261","823077","0.0-10.0-2.18","s2pynh202w","many_one","0","indirect_first","0","er06as09","0","24","1","1","3","1","","0","0","0","null","","","<img src = 'targets/46.png' width = '100%;'>","null","","","","","","","","","",""
"","html-keyboard-response","262","823701","0.0-10.0-3.18","s2pynh202w","many_one","0","indirect_first","0","er06as09","0","24","1","1","3","1","","0","0","0","623.7299999992829","","","<img src = 'targets/mask.png' width = '100%;'>","75","pos","GS","GSold","4","category4/CS3.png","targets/46.png","1","indirect","42",""
"","html-keyboard-response","263","825204","0.0-10.0-0.19","s2pynh202w","many_one","0","indirect_first","0","er06as09","0","24","1","1","3","1","","0","0","0","null","","","<div style=""font-size:60px;"">+</div>","null","","","","","","","","","",""
"","html-keyboard-response","264","825295","0.0-10.0-1.19","s2pynh202w","many_one","0","indirect_first","0","er06as09","0","24","1","1","3","1","","0","0","0","null","","","<img src = 'category4/GS2.png' width = '100%;'>","null","","","","","","","","","",""
"","html-keyboard-response","265","825546","0.0-10.0-2.19","s2pynh202w","many_one","0","indirect_first","0","er06as09","0","24","1","1","3","1","","0","0","0","null","","","<img src = 'targets/1.png' width = '100%;'>","null","","","","","","","","","",""
"","html-keyboard-response","266","826490","0.0-10.0-3.19","s2pynh202w","many_one","0","indirect_first","0","er06as09","0","24","1","1","3","1","","0","0","0","943.0099999989616","","","<img src = 'targets/mask.png' width = '100%;'>","68","pos","GS","GSnew","4","category4/GS2.png","targets/1.png","0","indirect","43",""
"","html-keyboard-response","267","827993","0.0-10.0-0.20","s2pynh202w","many_one","0","indirect_first","0","er06as09","0","24","1","1","3","1","","0","0","0","null","","","<div style=""font-size:60px;"">+</div>","null","","","","","","","","","",""
"","html-keyboard-response","268","828084","0.0-10.0-1.20","s2pynh202w","many_one","0","indirect_first","0","er06as09","0","24","1","1","3","1","","0","0","0","null","","","<img src = 'category4/GS1.png' width = '100%;'>","null","","","","","","","","","",""
"","html-keyboard-response","269","828337","0.0-10.0-2.20","s2pynh202w","many_one","0","indirect_first","0","er06as09","0","24","1","1","3","1","","0","0","0","null","","","<img src = 'targets/13.png' width = '100%;'>","null","","","","","","","","","",""
"","html-keyboard-response","270","828891","0.0-10.0-3.20","s2pynh202w","many_one","0","indirect_first","0","er06as09","0","24","1","1","3","1","","0","0","0","553.339999998454","","","<img src = 'targets/mask.png' width = '100%;'>","68","pos","GS","GSnew","4","category4/GS1.png","targets/13.png","0","indirect","44",""
"","html-keyboard-response","271","830393","0.0-10.0-0.21","s2pynh202w","many_one","0","indirect_first","0","er06as09","0","24","1","1","3","1","","0","0","0","null","","","<div style=""font-size:60px;"">+</div>","null","","","","","","","","","",""
"","html-keyboard-response","272","830484","0.0-10.0-1.21","s2pynh202w","many_one","0","indirect_first","0","er06as09","0","24","1","1","3","1","","0","0","0","null","","","<img src = 'category2/men.png' width = '100%;'>","null","","","","","","","","","",""
"","html-keyboard-response","273","830735","0.0-10.0-2.21","s2pynh202w","many_one","0","indirect_first","0","er06as09","0","24","1","1","3","1","","0","0","0","null","","","<img src = 'targets/9.png' width = '100%;'>","null","","","","","","","","","",""
"","html-keyboard-response","274","831649","0.0-10.0-3.21","s2pynh202w","many_one","0","indirect_first","0","er06as09","0","24","1","1","3","1","","0","0","0","912.8649999984773","","","<img src = 'targets/mask.png' width = '100%;'>","75","pos","GS","abstract","2","category2/men.png","targets/9.png","1","indirect","45",""
"","html-keyboard-response","275","833152","0.0-10.0-0.22","s2pynh202w","many_one","0","indirect_first","0","er06as09","0","24","1","1","3","1","","0","0","0","null","","","<div style=""font-size:60px;"">+</div>","null","","","","","","","","","",""
"","html-keyboard-response","276","833244","0.0-10.0-1.22","s2pynh202w","many_one","0","indirect_first","0","er06as09","0","24","1","1","3","1","","0","0","0","null","","","<img src = 'category2/CS7.png' width = '100%;'>","null","","","","","","","","","",""
"","html-keyboard-response","277","833495","0.0-10.0-2.22","s2pynh202w","many_one","0","indirect_first","0","er06as09","0","24","1","1","3","1","","0","0","0","null","","","<img src = 'targets/40.png' width = '100%;'>","null","","","","","","","","","",""
"","html-keyboard-response","278","833987","0.0-10.0-3.22","s2pynh202w","many_one","0","indirect_first","0","er06as09","0","24","1","1","3","1","","0","0","0","490.33499999856576","","","<img src = 'targets/mask.png' width = '100%;'>","68","pos","GS","GSold","2","category2/CS7.png","targets/40.png","0","indirect","46",""
"","html-keyboard-response","279","835489","0.0-10.0-0.23","s2pynh202w","many_one","0","indirect_first","0","er06as09","0","24","1","1","3","1","","0","0","0","null","","","<div style=""font-size:60px;"">+</div>","null","","","","","","","","","",""
"","html-keyboard-response","280","835580","0.0-10.0-1.23","s2pynh202w","many_one","0","indirect_first","0","er06as09","0","24","1","1","3","1","","0","0","0","null","","","<img src = 'category2/CS3.png' width = '100%;'>","null","","","","","","","","","",""
"","html-keyboard-response","281","835832","0.0-10.0-2.23","s2pynh202w","many_one","0","indirect_first","0","er06as09","0","24","1","1","3","1","","0","0","0","null","","","<img src = 'targets/7.png' width = '100%;'>","null","","","","","","","","","",""
"","html-keyboard-response","282","836408","0.0-10.0-3.23","s2pynh202w","many_one","0","indirect_first","0","er06as09","0","24","1","1","3","1","","0","0","0","574.885000001872","","","<img src = 'targets/mask.png' width = '100%;'>","75","pos","GS","GSold","2","category2/CS3.png","targets/7.png","1","indirect","47",""
"","survey-html-form","283","841481","0.0-11.0","s2pynh202w","many_one","0","indirect_first","0","er06as09","0","24","1","1","3","1","","0","0","0","4571.450000003097","","{}","","","","","","","","","","","",""
"","image-slider-response","284","852972","0.0-12.0-0.0","s2pynh202w","many_one","0","indirect_first","0","er06as09","0","24","1","1","3","1","","0","0","0","9488.854999999632","","","","","pos","CS","CS","2","category2/CS4.png","targets/45.png","","direct","","-66"
"","image-slider-response","285","856909","0.0-12.0-0.1","s2pynh202w","many_one","0","indirect_first","0","er06as09","0","24","1","1","3","1","","0","0","0","3935.4400000011083","","","","","pos","GS","GSnew","2","category2/GS3.png","targets/30.png","","direct","","-72"
"","image-slider-response","286","863832","0.0-12.0-0.2","s2pynh202w","many_one","0","indirect_first","0","er06as09","0","24","1","1","3","1","","0","0","0","6921.484999998938","","","","","neg","CS","CS","1","category1/CS3.png","targets/37.png","","direct","","34"
"","image-slider-response","287","866707","0.0-12.0-0.3","s2pynh202w","many_one","0","indirect_first","0","er06as09","0","24","1","1","3","1","","0","0","0","2872.415000001667","","","","","pos","GS","abstract","4","category4/lin.png","targets/16.png","","direct","","60"
"","image-slider-response","288","870161","0.0-12.0-0.4","s2pynh202w","many_one","0","indirect_first","0","er06as09","0","24","1","1","3","1","","0","0","0","3452.769999999902","","","","","pos","GS","GSold","4","category4/CS7.png","targets/48.png","","direct","","67"
"","image-slider-response","289","873717","0.0-12.0-0.5","s2pynh202w","many_one","0","indirect_first","0","er06as09","0","24","1","1","3","1","","0","0","0","3553.8950000008335","","","","","neg","CS","CS","3","category3/CS7.png","targets/26.png","","direct","","-56"
"","image-slider-response","290","877174","0.0-12.0-0.6","s2pynh202w","many_one","0","indirect_first","0","er06as09","0","24","1","1","3","1","","0","0","0","3456.1350000003586","","","","","pos","GS","GSnew","4","category4/GS3.png","targets/23.png","","direct","","81"
"","image-slider-response","291","880696","0.0-12.0-0.7","s2pynh202w","many_one","0","indirect_first","0","er06as09","0","24","1","1","3","1","","0","0","0","3520.8300000012387","","","","","neg","CS","CS","1","category1/CS9.png","targets/14.png","","direct","","94"
"","image-slider-response","292","883552","0.0-12.0-0.8","s2pynh202w","many_one","0","indirect_first","0","er06as09","0","24","1","1","3","1","","0","0","0","2854.524999998859","","","","","neg","CS","CS","3","category3/CS2.png","targets/44.png","","direct","","-73"
"","image-slider-response","293","886832","0.0-12.0-0.9","s2pynh202w","many_one","0","indirect_first","0","er06as09","0","24","1","1","3","1","","0","0","0","3278.0500000008615","","","","","neg","GS","GSold","3","category3/CS6.png","targets/36.png","","direct","","-60"
"","image-slider-response","294","891489","0.0-12.0-0.10","s2pynh202w","many_one","0","indirect_first","0","er06as09","0","24","1","1","3","1","","0","0","0","4655.944999998668","","","","","pos","CS","CS","4","category4/CS5.png","targets/27.png","","direct","","-13"
"","image-slider-response","295","894676","0.0-12.0-0.11","s2pynh202w","many_one","0","indirect_first","0","er06as09","0","24","1","1","3","1","","0","0","0","3185.009999997448","","","","","pos","CS","CS","2","category2/CS8.png","targets/2.png","","direct","","55"
"","image-slider-response","296","902934","0.0-12.0-0.12","s2pynh202w","many_one","0","indirect_first","0","er06as09","0","24","1","1","3","1","","0","0","0","8256.450000000768","","","","","neg","CS","CS","1","category1/CS7.png","targets/41.png","","direct","","85"
"","image-slider-response","297","905853","0.0-12.0-0.13","s2pynh202w","many_one","0","indirect_first","0","er06as09","0","24","1","1","3","1","","0","0","0","2918.0799999994924","","","","","pos","CS","CS","2","category2/CS1.png","targets/15.png","","direct","","-42"
"","image-slider-response","298","909185","0.0-12.0-0.14","s2pynh202w","many_one","0","indirect_first","0","er06as09","0","24","1","1","3","1","","0","0","0","3330.050000000396","","","","","neg","CS","CS","1","category1/CS10.png","targets/42.png","","direct","","-35"
"","image-slider-response","299","912064","0.0-12.0-0.15","s2pynh202w","many_one","0","indirect_first","0","er06as09","0","24","1","1","3","1","","0","0","0","2877.4350000021514","","","","","pos","GS","GSnew","2","category2/GS2.png","targets/21.png","","direct","","-55"
"","image-slider-response","300","914730","0.0-12.0-0.16","s2pynh202w","many_one","0","indirect_first","0","er06as09","0","24","1","1","3","1","","0","0","0","2664.075000000652","","","","","pos","GS","GSold","4","category4/CS9.png","targets/29.png","","direct","","67"
"","image-slider-response","301","917888","0.0-12.0-0.17","s2pynh202w","many_one","0","indirect_first","0","er06as09","0","24","1","1","3","1","","0","0","0","3155.6300000010524","","","","","neg","CS","CS","3","category3/CS9.png","targets/12.png","","direct","","59"
"","image-slider-response","302","920576","0.0-12.0-0.18","s2pynh202w","many_one","0","indirect_first","0","er06as09","0","24","1","1","3","1","","0","0","0","2686.20000000007","","","","","pos","CS","CS","2","category2/CS9.png","targets/10.png","","direct","","86"
"","image-slider-response","303","922762","0.0-12.0-0.19","s2pynh202w","many_one","0","indirect_first","0","er06as09","0","24","1","1","3","1","","0","0","0","2184.864999999292","","","","","neg","GS","abstract","3","category3/wang.png","targets/32.png","","direct","","-85"
"","image-slider-response","304","925840","0.0-12.0-0.20","s2pynh202w","many_one","0","indirect_first","0","er06as09","0","24","1","1","3","1","","0","0","0","3077.1050000003306","","","","","neg","GS","GSnew","1","category1/GS3.png","targets/17.png","","direct","","27"
"","image-slider-response","305","928310","0.0-12.0-0.21","s2pynh202w","many_one","0","indirect_first","0","er06as09","0","24","1","1","3","1","","0","0","0","2468.1500000006054","","","","","pos","CS","CS","4","category4/CS1.png","targets/6.png","","direct","","47"
"","image-slider-response","306","931015","0.0-12.0-0.22","s2pynh202w","many_one","0","indirect_first","0","er06as09","0","24","1","1","3","1","","0","0","0","2703.429999997723","","","","","pos","GS","GSnew","4","category4/GS2.png","targets/1.png","","direct","","60"
"","image-slider-response","307","933285","0.0-12.0-0.23","s2pynh202w","many_one","0","indirect_first","0","er06as09","0","24","1","1","3","1","","0","0","0","2268.380000001285","","","","","pos","GS","abstract","2","category2/men.png","targets/9.png","","direct","","-91"
"","image-slider-response","308","936056","0.0-12.0-0.24","s2pynh202w","many_one","0","indirect_first","0","er06as09","0","24","1","1","3","1","","0","0","0","2769.1300000005867","","","","","pos","CS","CS","4","category4/CS6.png","targets/39.png","","direct","","47"
"","image-slider-response","309","938447","0.0-12.0-0.25","s2pynh202w","many_one","0","indirect_first","0","er06as09","0","24","1","1","3","1","","0","0","0","2390.0549999998184","","","","","pos","GS","GSold","2","category2/CS3.png","targets/7.png","","direct","","58"
"","image-slider-response","310","941112","0.0-12.0-0.26","s2pynh202w","many_one","0","indirect_first","0","er06as09","0","24","1","1","3","1","","0","0","0","2662.949999998091","","","","","pos","GS","GSnew","2","category2/GS1.png","targets/22.png","","direct","","22"
"","image-slider-response","311","944707","0.0-12.0-0.27","s2pynh202w","many_one","0","indirect_first","0","er06as09","0","24","1","1","3","1","","0","0","0","3594.5150000007125","","","","","neg","GS","abstract","1","category1/ma.png","targets/24.png","","direct","","-23"
"","image-slider-response","312","947822","0.0-12.0-0.28","s2pynh202w","many_one","0","indirect_first","0","er06as09","0","24","1","1","3","1","","0","0","0","3112.8250000001863","","","","","neg","GS","GSold","1","category1/CS1.png","targets/20.png","","direct","","75"
"","image-slider-response","313","952109","0.0-12.0-0.29","s2pynh202w","many_one","0","indirect_first","0","er06as09","0","24","1","1","3","1","","0","0","0","4284.930000001565","","","","","neg","GS","GSold","3","category3/CS10.png","targets/34.png","","direct","","18"
"","image-slider-response","314","954617","0.0-12.0-0.30","s2pynh202w","many_one","0","indirect_first","0","er06as09","0","24","1","1","3","1","","0","0","0","2506.310000000638","","","","","pos","CS","CS","4","category4/CS4.png","targets/19.png","","direct","","91"
"","image-slider-response","315","958426","0.0-12.0-0.31","s2pynh202w","many_one","0","indirect_first","0","er06as09","0","24","1","1","3","1","","0","0","0","3808.035000001779","","","","","pos","CS","CS","2","category2/CS10.png","targets/5.png","","direct","","100"
"","image-slider-response","316","962056","0.0-12.0-0.32","s2pynh202w","many_one","0","indirect_first","0","er06as09","0","24","1","1","3","1","","0","0","0","3628.7499999998836","","","","","neg","GS","GSold","3","category3/CS1.png","targets/31.png","","direct","","-15"
"","image-slider-response","317","964452","0.0-12.0-0.33","s2pynh202w","many_one","0","indirect_first","0","er06as09","0","24","1","1","3","1","","0","0","0","2394.140000000247","","","","","neg","GS","GSnew","1","category1/GS1.png","targets/33.png","","direct","","-37"
"","image-slider-response","318","966945","0.0-12.0-0.34","s2pynh202w","many_one","0","indirect_first","0","er06as09","0","24","1","1","3","1","","0","0","0","2491.9000000009546","","","","","pos","GS","GSold","4","category4/CS3.png","targets/46.png","","direct","","-19"
"","image-slider-response","319","969511","0.0-12.0-0.35","s2pynh202w","many_one","0","indirect_first","0","er06as09","0","24","1","1","3","1","","0","0","0","2564.539999999455","","","","","neg","GS","GSnew","3","category3/GS2.png","targets/25.png","","direct","","83"
"","image-slider-response","320","971934","0.0-12.0-0.36","s2pynh202w","many_one","0","indirect_first","0","er06as09","0","24","1","1","3","1","","0","0","0","2420.8199999993667","","","","","neg","CS","CS","1","category1/CS8.png","targets/38.png","","direct","","58"
"","image-slider-response","321","975397","0.0-12.0-0.37","s2pynh202w","many_one","0","indirect_first","0","er06as09","0","24","1","1","3","1","","0","0","0","3462.149999999441","","","","","pos","CS","CS","4","category4/CS8.png","targets/43.png","","direct","","53"
"","image-slider-response","322","979292","0.0-12.0-0.38","s2pynh202w","many_one","0","indirect_first","0","er06as09","0","24","1","1","3","1","","0","0","0","3893.2749999986263","","","","","neg","GS","GSnew","1","category1/GS2.png","targets/18.png","","direct","","19"
"","image-slider-response","323","981469","0.0-12.0-0.39","s2pynh202w","many_one","0","indirect_first","0","er06as09","0","24","1","1","3","1","","0","0","0","2175.73999999871","","","","","neg","GS","GSold","1","category1/CS2.png","targets/47.png","","direct","","50"
"","image-slider-response","324","983815","0.0-12.0-0.40","s2pynh202w","many_one","0","indirect_first","0","er06as09","0","24","1","1","3","1","","0","0","0","2343.7300000005635","","","","","pos","GS","GSold","2","category2/CS7.png","targets/40.png","","direct","","100"
