"success","trial_type","trial_index","time_elapsed","internal_node_id","subject","condition","condition_code","measure","measure_code","codeword","gender","age","education","chinese","fach","handedness","rt","url","responses","stimulus","key_press","val","type","type_specific","category","cs_selected","response","target","task","indirect","nr_pres"
"true","fullscreen","0","2211","0.0-0.0","rjyveqyjlq","many_one","0","direct_first","1","ki05er20","0","22","1","1","1","1","","","","","","","","","","","","","","",""
"","external-html","1","52971","0.0-1.0","rjyveqyjlq","many_one","0","direct_first","1","ki05er20","0","22","1","1","1","1","50743","text/information.html","","","","","","","","","","","","",""
"","external-html","2","67658","0.0-2.0","rjyveqyjlq","many_one","0","direct_first","1","ki05er20","0","22","1","1","1","1","14678","text/consent.html","","","","","","","","","","","","",""
"","survey-html-form","3","128290","0.0-3.0","rjyveqyjlq","many_one","0","direct_first","1","ki05er20","0","22","1","1","1","1","60630","","{""codeword_enter"":""ki05er20""}","","","","","","","","","","","",""
"","survey-html-form","4","147091","0.0-4.0","rjyveqyjlq","many_one","0","direct_first","1","ki05er20","0","22","1","1","1","1","18800","","{""age"":""22"",""education"":""1"",""subject"":""1"",""gender"":""0"",""handedness"":""1"",""chinese"":""1""}","","","","","","","","","","","",""
"","survey-html-form","5","162290","0.0-5.0","rjyveqyjlq","many_one","0","direct_first","1","ki05er20","0","22","1","1","1","1","15199","","{}","","","","","","","","","","","",""
"","html-keyboard-response","6","166322","0.0-6.0-0.0-0.0","rjyveqyjlq","many_one","0","direct_first","1","ki05er20","0","22","1","1","1","1","null","","","<div class = 'row'><div class = 'column'><img src = 'category4/CS10.png' width = '70%;'></div><div class = 'column'><img src = 'uspos/8461.bmp' width = '100%;'></div></div>","null","pos","CS","CS","4","category4/CS10.png","","","","",""
"","html-keyboard-response","7","168860","0.0-6.0-0.0-0.1","rjyveqyjlq","many_one","0","direct_first","1","ki05er20","0","22","1","1","1","1","null","","","<div class = 'row'><div class = 'column'><img src = 'usneg/9561.bmp' width = '100%;'></div><div class = 'column'><img src = 'category1/CS4.png' width = '70%;'></div></div>","null","neg","CS","CS","1","category1/CS4.png","","","","",""
"","html-keyboard-response","8","171382","0.0-6.0-0.0-0.2","rjyveqyjlq","many_one","0","direct_first","1","ki05er20","0","22","1","1","1","1","null","","","<div class = 'row'><div class = 'column'><img src = 'category1/CS3.png' width = '70%;'></div><div class = 'column'><img src = 'usneg/7380.bmp' width = '100%;'></div></div>","null","neg","CS","CS","1","category1/CS3.png","","","","",""
"","html-keyboard-response","9","173922","0.0-6.0-0.0-0.3","rjyveqyjlq","many_one","0","direct_first","1","ki05er20","0","22","1","1","1","1","null","","","<div class = 'row'><div class = 'column'><img src = 'uspos/5470.bmp' width = '100%;'></div><div class = 'column'><img src = 'category2/CS10.png' width = '70%;'></div></div>","null","pos","CS","CS","2","category2/CS10.png","","","","",""
"","html-keyboard-response","10","176451","0.0-6.0-0.0-0.4","rjyveqyjlq","many_one","0","direct_first","1","ki05er20","0","22","1","1","1","1","null","","","<div class = 'row'><div class = 'column'><img src = 'uspos/8540.bmp' width = '100%;'></div><div class = 'column'><img src = 'category4/CS8.png' width = '70%;'></div></div>","null","pos","CS","CS","4","category4/CS8.png","","","","",""
"","html-keyboard-response","11","178987","0.0-6.0-0.0-0.5","rjyveqyjlq","many_one","0","direct_first","1","ki05er20","0","22","1","1","1","1","null","","","<div class = 'row'><div class = 'column'><img src = 'uspos/2040.bmp' width = '100%;'></div><div class = 'column'><img src = 'category2/CS6.png' width = '70%;'></div></div>","null","pos","CS","CS","2","category2/CS6.png","","","","",""
"","html-keyboard-response","12","181491","0.0-6.0-0.0-0.6","rjyveqyjlq","many_one","0","direct_first","1","ki05er20","0","22","1","1","1","1","null","","","<div class = 'row'><div class = 'column'><img src = 'category4/CS1.png' width = '70%;'></div><div class = 'column'><img src = 'uspos/8080.bmp' width = '100%;'></div></div>","null","pos","CS","CS","4","category4/CS1.png","","","","",""
"","html-keyboard-response","13","184032","0.0-6.0-0.0-0.7","rjyveqyjlq","many_one","0","direct_first","1","ki05er20","0","22","1","1","1","1","null","","","<div class = 'row'><div class = 'column'><img src = 'uspos/5830.bmp' width = '100%;'></div><div class = 'column'><img src = 'category2/CS8.png' width = '70%;'></div></div>","null","pos","CS","CS","2","category2/CS8.png","","","","",""
"","html-keyboard-response","14","186572","0.0-6.0-0.0-0.8","rjyveqyjlq","many_one","0","direct_first","1","ki05er20","0","22","1","1","1","1","null","","","<div class = 'row'><div class = 'column'><img src = 'uspos/7580.bmp' width = '100%;'></div><div class = 'column'><img src = 'category2/CS9.png' width = '70%;'></div></div>","null","pos","CS","CS","2","category2/CS9.png","","","","",""
"","html-keyboard-response","15","189111","0.0-6.0-0.0-0.9","rjyveqyjlq","many_one","0","direct_first","1","ki05er20","0","22","1","1","1","1","null","","","<div class = 'row'><div class = 'column'><img src = 'category3/CS5.png' width = '70%;'></div><div class = 'column'><img src = 'usneg/9404.bmp' width = '100%;'></div></div>","null","neg","CS","CS","3","category3/CS5.png","","","","",""
"","html-keyboard-response","16","191652","0.0-6.0-0.0-0.10","rjyveqyjlq","many_one","0","direct_first","1","ki05er20","0","22","1","1","1","1","null","","","<div class = 'row'><div class = 'column'><img src = 'category3/CS8.png' width = '70%;'></div><div class = 'column'><img src = 'usneg/8485.bmp' width = '100%;'></div></div>","null","neg","CS","CS","3","category3/CS8.png","","","","",""
"","html-keyboard-response","17","194191","0.0-6.0-0.0-0.11","rjyveqyjlq","many_one","0","direct_first","1","ki05er20","0","22","1","1","1","1","null","","","<div class = 'row'><div class = 'column'><img src = 'category1/CS5.png' width = '70%;'></div><div class = 'column'><img src = 'usneg/9290.bmp' width = '100%;'></div></div>","null","neg","CS","CS","1","category1/CS5.png","","","","",""
"","html-keyboard-response","18","196731","0.0-6.0-0.0-0.12","rjyveqyjlq","many_one","0","direct_first","1","ki05er20","0","22","1","1","1","1","null","","","<div class = 'row'><div class = 'column'><img src = 'category1/CS2.png' width = '70%;'></div><div class = 'column'><img src = 'usneg/3181.bmp' width = '100%;'></div></div>","null","neg","CS","CS","1","category1/CS2.png","","","","",""
"","html-keyboard-response","19","199271","0.0-6.0-0.0-0.13","rjyveqyjlq","many_one","0","direct_first","1","ki05er20","0","22","1","1","1","1","null","","","<div class = 'row'><div class = 'column'><img src = 'category4/CS4.png' width = '70%;'></div><div class = 'column'><img src = 'uspos/1463.bmp' width = '100%;'></div></div>","null","pos","CS","CS","4","category4/CS4.png","","","","",""
"","html-keyboard-response","20","201812","0.0-6.0-0.0-0.14","rjyveqyjlq","many_one","0","direct_first","1","ki05er20","0","22","1","1","1","1","null","","","<div class = 'row'><div class = 'column'><img src = 'category3/CS2.png' width = '70%;'></div><div class = 'column'><img src = 'usneg/2141.bmp' width = '100%;'></div></div>","null","neg","CS","CS","3","category3/CS2.png","","","","",""
"","html-keyboard-response","21","204351","0.0-6.0-0.0-0.15","rjyveqyjlq","many_one","0","direct_first","1","ki05er20","0","22","1","1","1","1","null","","","<div class = 'row'><div class = 'column'><img src = 'usneg/9415.bmp' width = '100%;'></div><div class = 'column'><img src = 'category3/CS3.png' width = '70%;'></div></div>","null","neg","CS","CS","3","category3/CS3.png","","","","",""
"","html-keyboard-response","22","206871","0.0-6.0-0.0-0.16","rjyveqyjlq","many_one","0","direct_first","1","ki05er20","0","22","1","1","1","1","null","","","<div class = 'row'><div class = 'column'><img src = 'uspos/2900.2.bmp' width = '100%;'></div><div class = 'column'><img src = 'category2/CS7.png' width = '70%;'></div></div>","null","pos","CS","CS","2","category2/CS7.png","","","","",""
"","html-keyboard-response","23","209411","0.0-6.0-0.0-0.17","rjyveqyjlq","many_one","0","direct_first","1","ki05er20","0","22","1","1","1","1","null","","","<div class = 'row'><div class = 'column'><img src = 'category3/CS10.png' width = '70%;'></div><div class = 'column'><img src = 'usneg/9181.bmp' width = '100%;'></div></div>","null","neg","CS","CS","3","category3/CS10.png","","","","",""
"","html-keyboard-response","24","211951","0.0-6.0-0.0-0.18","rjyveqyjlq","many_one","0","direct_first","1","ki05er20","0","22","1","1","1","1","null","","","<div class = 'row'><div class = 'column'><img src = 'category4/CS3.png' width = '70%;'></div><div class = 'column'><img src = 'uspos/5700.bmp' width = '100%;'></div></div>","null","pos","CS","CS","4","category4/CS3.png","","","","",""
"","html-keyboard-response","25","214491","0.0-6.0-0.0-0.19","rjyveqyjlq","many_one","0","direct_first","1","ki05er20","0","22","1","1","1","1","null","","","<div class = 'row'><div class = 'column'><img src = 'category1/CS9.png' width = '70%;'></div><div class = 'column'><img src = 'usneg/9830.bmp' width = '100%;'></div></div>","null","neg","CS","CS","1","category1/CS9.png","","","","",""
"","survey-html-form","26","220169","0.0-6.0-1.0","rjyveqyjlq","many_one","0","direct_first","1","ki05er20","0","22","1","1","1","1","5158","","{}","","","","","","","","","","","",""
"","html-keyboard-response","27","224191","0.0-6.0-2.0-0.0","rjyveqyjlq","many_one","0","direct_first","1","ki05er20","0","22","1","1","1","1","null","","","<div class = 'row'><div class = 'column'><img src = 'uspos/2040.bmp' width = '100%;'></div><div class = 'column'><img src = 'category2/CS6.png' width = '70%;'></div></div>","null","pos","CS","CS","2","category2/CS6.png","","","","",""
"","html-keyboard-response","28","226731","0.0-6.0-2.0-0.1","rjyveqyjlq","many_one","0","direct_first","1","ki05er20","0","22","1","1","1","1","null","","","<div class = 'row'><div class = 'column'><img src = 'usneg/7380.bmp' width = '100%;'></div><div class = 'column'><img src = 'category1/CS3.png' width = '70%;'></div></div>","null","neg","CS","CS","1","category1/CS3.png","","","","",""
"","html-keyboard-response","29","229251","0.0-6.0-2.0-0.2","rjyveqyjlq","many_one","0","direct_first","1","ki05er20","0","22","1","1","1","1","null","","","<div class = 'row'><div class = 'column'><img src = 'category4/CS3.png' width = '70%;'></div><div class = 'column'><img src = 'uspos/5700.bmp' width = '100%;'></div></div>","null","pos","CS","CS","4","category4/CS3.png","","","","",""
"","html-keyboard-response","30","231791","0.0-6.0-2.0-0.3","rjyveqyjlq","many_one","0","direct_first","1","ki05er20","0","22","1","1","1","1","null","","","<div class = 'row'><div class = 'column'><img src = 'usneg/9415.bmp' width = '100%;'></div><div class = 'column'><img src = 'category3/CS3.png' width = '70%;'></div></div>","null","neg","CS","CS","3","category3/CS3.png","","","","",""
"","html-keyboard-response","31","234331","0.0-6.0-2.0-0.4","rjyveqyjlq","many_one","0","direct_first","1","ki05er20","0","22","1","1","1","1","null","","","<div class = 'row'><div class = 'column'><img src = 'category4/CS1.png' width = '70%;'></div><div class = 'column'><img src = 'uspos/8080.bmp' width = '100%;'></div></div>","null","pos","CS","CS","4","category4/CS1.png","","","","",""
"","html-keyboard-response","32","236870","0.0-6.0-2.0-0.5","rjyveqyjlq","many_one","0","direct_first","1","ki05er20","0","22","1","1","1","1","null","","","<div class = 'row'><div class = 'column'><img src = 'category1/CS4.png' width = '70%;'></div><div class = 'column'><img src = 'usneg/9561.bmp' width = '100%;'></div></div>","null","neg","CS","CS","1","category1/CS4.png","","","","",""
"","html-keyboard-response","33","239410","0.0-6.0-2.0-0.6","rjyveqyjlq","many_one","0","direct_first","1","ki05er20","0","22","1","1","1","1","null","","","<div class = 'row'><div class = 'column'><img src = 'category4/CS4.png' width = '70%;'></div><div class = 'column'><img src = 'uspos/1463.bmp' width = '100%;'></div></div>","null","pos","CS","CS","4","category4/CS4.png","","","","",""
"","html-keyboard-response","34","241951","0.0-6.0-2.0-0.7","rjyveqyjlq","many_one","0","direct_first","1","ki05er20","0","22","1","1","1","1","null","","","<div class = 'row'><div class = 'column'><img src = 'usneg/9830.bmp' width = '100%;'></div><div class = 'column'><img src = 'category1/CS9.png' width = '70%;'></div></div>","null","neg","CS","CS","1","category1/CS9.png","","","","",""
"","html-keyboard-response","35","244491","0.0-6.0-2.0-0.8","rjyveqyjlq","many_one","0","direct_first","1","ki05er20","0","22","1","1","1","1","null","","","<div class = 'row'><div class = 'column'><img src = 'usneg/9290.bmp' width = '100%;'></div><div class = 'column'><img src = 'category1/CS5.png' width = '70%;'></div></div>","null","neg","CS","CS","1","category1/CS5.png","","","","",""
"","html-keyboard-response","36","247010","0.0-6.0-2.0-0.9","rjyveqyjlq","many_one","0","direct_first","1","ki05er20","0","22","1","1","1","1","null","","","<div class = 'row'><div class = 'column'><img src = 'uspos/8540.bmp' width = '100%;'></div><div class = 'column'><img src = 'category4/CS8.png' width = '70%;'></div></div>","null","pos","CS","CS","4","category4/CS8.png","","","","",""
"","html-keyboard-response","37","249550","0.0-6.0-2.0-0.10","rjyveqyjlq","many_one","0","direct_first","1","ki05er20","0","22","1","1","1","1","null","","","<div class = 'row'><div class = 'column'><img src = 'category3/CS5.png' width = '70%;'></div><div class = 'column'><img src = 'usneg/9404.bmp' width = '100%;'></div></div>","null","neg","CS","CS","3","category3/CS5.png","","","","",""
"","html-keyboard-response","38","252091","0.0-6.0-2.0-0.11","rjyveqyjlq","many_one","0","direct_first","1","ki05er20","0","22","1","1","1","1","null","","","<div class = 'row'><div class = 'column'><img src = 'usneg/9181.bmp' width = '100%;'></div><div class = 'column'><img src = 'category3/CS10.png' width = '70%;'></div></div>","null","neg","CS","CS","3","category3/CS10.png","","","","",""
"","html-keyboard-response","39","254631","0.0-6.0-2.0-0.12","rjyveqyjlq","many_one","0","direct_first","1","ki05er20","0","22","1","1","1","1","null","","","<div class = 'row'><div class = 'column'><img src = 'category1/CS2.png' width = '70%;'></div><div class = 'column'><img src = 'usneg/3181.bmp' width = '100%;'></div></div>","null","neg","CS","CS","1","category1/CS2.png","","","","",""
"","html-keyboard-response","40","257171","0.0-6.0-2.0-0.13","rjyveqyjlq","many_one","0","direct_first","1","ki05er20","0","22","1","1","1","1","null","","","<div class = 'row'><div class = 'column'><img src = 'usneg/8485.bmp' width = '100%;'></div><div class = 'column'><img src = 'category3/CS8.png' width = '70%;'></div></div>","null","neg","CS","CS","3","category3/CS8.png","","","","",""
"","html-keyboard-response","41","259680","0.0-6.0-2.0-0.14","rjyveqyjlq","many_one","0","direct_first","1","ki05er20","0","22","1","1","1","1","null","","","<div class = 'row'><div class = 'column'><img src = 'uspos/5470.bmp' width = '100%;'></div><div class = 'column'><img src = 'category2/CS10.png' width = '70%;'></div></div>","null","pos","CS","CS","2","category2/CS10.png","","","","",""
"","html-keyboard-response","42","262200","0.0-6.0-2.0-0.15","rjyveqyjlq","many_one","0","direct_first","1","ki05er20","0","22","1","1","1","1","null","","","<div class = 'row'><div class = 'column'><img src = 'uspos/5830.bmp' width = '100%;'></div><div class = 'column'><img src = 'category2/CS8.png' width = '70%;'></div></div>","null","pos","CS","CS","2","category2/CS8.png","","","","",""
"","html-keyboard-response","43","264741","0.0-6.0-2.0-0.16","rjyveqyjlq","many_one","0","direct_first","1","ki05er20","0","22","1","1","1","1","null","","","<div class = 'row'><div class = 'column'><img src = 'category4/CS10.png' width = '70%;'></div><div class = 'column'><img src = 'uspos/8461.bmp' width = '100%;'></div></div>","null","pos","CS","CS","4","category4/CS10.png","","","","",""
"","html-keyboard-response","44","267271","0.0-6.0-2.0-0.17","rjyveqyjlq","many_one","0","direct_first","1","ki05er20","0","22","1","1","1","1","null","","","<div class = 'row'><div class = 'column'><img src = 'category2/CS9.png' width = '70%;'></div><div class = 'column'><img src = 'uspos/7580.bmp' width = '100%;'></div></div>","null","pos","CS","CS","2","category2/CS9.png","","","","",""
"","html-keyboard-response","45","269811","0.0-6.0-2.0-0.18","rjyveqyjlq","many_one","0","direct_first","1","ki05er20","0","22","1","1","1","1","null","","","<div class = 'row'><div class = 'column'><img src = 'category2/CS7.png' width = '70%;'></div><div class = 'column'><img src = 'uspos/2900.2.bmp' width = '100%;'></div></div>","null","pos","CS","CS","2","category2/CS7.png","","","","",""
"","html-keyboard-response","46","272351","0.0-6.0-2.0-0.19","rjyveqyjlq","many_one","0","direct_first","1","ki05er20","0","22","1","1","1","1","null","","","<div class = 'row'><div class = 'column'><img src = 'category3/CS2.png' width = '70%;'></div><div class = 'column'><img src = 'usneg/2141.bmp' width = '100%;'></div></div>","null","neg","CS","CS","3","category3/CS2.png","","","","",""
"","survey-html-form","47","275586","0.0-6.0-3.0","rjyveqyjlq","many_one","0","direct_first","1","ki05er20","0","22","1","1","1","1","2714","","{}","","","","","","","","","","","",""
"","html-keyboard-response","48","279610","0.0-6.0-4.0-0.0","rjyveqyjlq","many_one","0","direct_first","1","ki05er20","0","22","1","1","1","1","null","","","<div class = 'row'><div class = 'column'><img src = 'category3/CS8.png' width = '70%;'></div><div class = 'column'><img src = 'usneg/8485.bmp' width = '100%;'></div></div>","null","neg","CS","CS","3","category3/CS8.png","","","","",""
"","html-keyboard-response","49","282151","0.0-6.0-4.0-0.1","rjyveqyjlq","many_one","0","direct_first","1","ki05er20","0","22","1","1","1","1","null","","","<div class = 'row'><div class = 'column'><img src = 'usneg/9830.bmp' width = '100%;'></div><div class = 'column'><img src = 'category1/CS9.png' width = '70%;'></div></div>","null","neg","CS","CS","1","category1/CS9.png","","","","",""
"","html-keyboard-response","50","284681","0.0-6.0-4.0-0.2","rjyveqyjlq","many_one","0","direct_first","1","ki05er20","0","22","1","1","1","1","null","","","<div class = 'row'><div class = 'column'><img src = 'category3/CS10.png' width = '70%;'></div><div class = 'column'><img src = 'usneg/9181.bmp' width = '100%;'></div></div>","null","neg","CS","CS","3","category3/CS10.png","","","","",""
"","html-keyboard-response","51","287220","0.0-6.0-4.0-0.3","rjyveqyjlq","many_one","0","direct_first","1","ki05er20","0","22","1","1","1","1","null","","","<div class = 'row'><div class = 'column'><img src = 'usneg/2141.bmp' width = '100%;'></div><div class = 'column'><img src = 'category3/CS2.png' width = '70%;'></div></div>","null","neg","CS","CS","3","category3/CS2.png","","","","",""
"","html-keyboard-response","52","289761","0.0-6.0-4.0-0.4","rjyveqyjlq","many_one","0","direct_first","1","ki05er20","0","22","1","1","1","1","null","","","<div class = 'row'><div class = 'column'><img src = 'uspos/8461.bmp' width = '100%;'></div><div class = 'column'><img src = 'category4/CS10.png' width = '70%;'></div></div>","null","pos","CS","CS","4","category4/CS10.png","","","","",""
"","html-keyboard-response","53","292281","0.0-6.0-4.0-0.5","rjyveqyjlq","many_one","0","direct_first","1","ki05er20","0","22","1","1","1","1","null","","","<div class = 'row'><div class = 'column'><img src = 'uspos/2040.bmp' width = '100%;'></div><div class = 'column'><img src = 'category2/CS6.png' width = '70%;'></div></div>","null","pos","CS","CS","2","category2/CS6.png","","","","",""
"","html-keyboard-response","54","294820","0.0-6.0-4.0-0.6","rjyveqyjlq","many_one","0","direct_first","1","ki05er20","0","22","1","1","1","1","null","","","<div class = 'row'><div class = 'column'><img src = 'category1/CS5.png' width = '70%;'></div><div class = 'column'><img src = 'usneg/9290.bmp' width = '100%;'></div></div>","null","neg","CS","CS","1","category1/CS5.png","","","","",""
"","html-keyboard-response","55","297361","0.0-6.0-4.0-0.7","rjyveqyjlq","many_one","0","direct_first","1","ki05er20","0","22","1","1","1","1","null","","","<div class = 'row'><div class = 'column'><img src = 'uspos/5470.bmp' width = '100%;'></div><div class = 'column'><img src = 'category2/CS10.png' width = '70%;'></div></div>","null","pos","CS","CS","2","category2/CS10.png","","","","",""
"","html-keyboard-response","56","299901","0.0-6.0-4.0-0.8","rjyveqyjlq","many_one","0","direct_first","1","ki05er20","0","22","1","1","1","1","null","","","<div class = 'row'><div class = 'column'><img src = 'category4/CS1.png' width = '70%;'></div><div class = 'column'><img src = 'uspos/8080.bmp' width = '100%;'></div></div>","null","pos","CS","CS","4","category4/CS1.png","","","","",""
"","html-keyboard-response","57","302430","0.0-6.0-4.0-0.9","rjyveqyjlq","many_one","0","direct_first","1","ki05er20","0","22","1","1","1","1","null","","","<div class = 'row'><div class = 'column'><img src = 'category2/CS8.png' width = '70%;'></div><div class = 'column'><img src = 'uspos/5830.bmp' width = '100%;'></div></div>","null","pos","CS","CS","2","category2/CS8.png","","","","",""
"","html-keyboard-response","58","304970","0.0-6.0-4.0-0.10","rjyveqyjlq","many_one","0","direct_first","1","ki05er20","0","22","1","1","1","1","null","","","<div class = 'row'><div class = 'column'><img src = 'category1/CS2.png' width = '70%;'></div><div class = 'column'><img src = 'usneg/3181.bmp' width = '100%;'></div></div>","null","neg","CS","CS","1","category1/CS2.png","","","","",""
"","html-keyboard-response","59","307490","0.0-6.0-4.0-0.11","rjyveqyjlq","many_one","0","direct_first","1","ki05er20","0","22","1","1","1","1","null","","","<div class = 'row'><div class = 'column'><img src = 'usneg/7380.bmp' width = '100%;'></div><div class = 'column'><img src = 'category1/CS3.png' width = '70%;'></div></div>","null","neg","CS","CS","1","category1/CS3.png","","","","",""
"","html-keyboard-response","60","310030","0.0-6.0-4.0-0.12","rjyveqyjlq","many_one","0","direct_first","1","ki05er20","0","22","1","1","1","1","null","","","<div class = 'row'><div class = 'column'><img src = 'uspos/2900.2.bmp' width = '100%;'></div><div class = 'column'><img src = 'category2/CS7.png' width = '70%;'></div></div>","null","pos","CS","CS","2","category2/CS7.png","","","","",""
"","html-keyboard-response","61","312560","0.0-6.0-4.0-0.13","rjyveqyjlq","many_one","0","direct_first","1","ki05er20","0","22","1","1","1","1","null","","","<div class = 'row'><div class = 'column'><img src = 'usneg/9561.bmp' width = '100%;'></div><div class = 'column'><img src = 'category1/CS4.png' width = '70%;'></div></div>","null","neg","CS","CS","1","category1/CS4.png","","","","",""
"","html-keyboard-response","62","315090","0.0-6.0-4.0-0.14","rjyveqyjlq","many_one","0","direct_first","1","ki05er20","0","22","1","1","1","1","null","","","<div class = 'row'><div class = 'column'><img src = 'category3/CS5.png' width = '70%;'></div><div class = 'column'><img src = 'usneg/9404.bmp' width = '100%;'></div></div>","null","neg","CS","CS","3","category3/CS5.png","","","","",""
"","html-keyboard-response","63","317631","0.0-6.0-4.0-0.15","rjyveqyjlq","many_one","0","direct_first","1","ki05er20","0","22","1","1","1","1","null","","","<div class = 'row'><div class = 'column'><img src = 'category4/CS8.png' width = '70%;'></div><div class = 'column'><img src = 'uspos/8540.bmp' width = '100%;'></div></div>","null","pos","CS","CS","4","category4/CS8.png","","","","",""
"","html-keyboard-response","64","320170","0.0-6.0-4.0-0.16","rjyveqyjlq","many_one","0","direct_first","1","ki05er20","0","22","1","1","1","1","null","","","<div class = 'row'><div class = 'column'><img src = 'uspos/5700.bmp' width = '100%;'></div><div class = 'column'><img src = 'category4/CS3.png' width = '70%;'></div></div>","null","pos","CS","CS","4","category4/CS3.png","","","","",""
"","html-keyboard-response","65","322711","0.0-6.0-4.0-0.17","rjyveqyjlq","many_one","0","direct_first","1","ki05er20","0","22","1","1","1","1","null","","","<div class = 'row'><div class = 'column'><img src = 'uspos/1463.bmp' width = '100%;'></div><div class = 'column'><img src = 'category4/CS4.png' width = '70%;'></div></div>","null","pos","CS","CS","4","category4/CS4.png","","","","",""
"","html-keyboard-response","66","325251","0.0-6.0-4.0-0.18","rjyveqyjlq","many_one","0","direct_first","1","ki05er20","0","22","1","1","1","1","null","","","<div class = 'row'><div class = 'column'><img src = 'category3/CS3.png' width = '70%;'></div><div class = 'column'><img src = 'usneg/9415.bmp' width = '100%;'></div></div>","null","neg","CS","CS","3","category3/CS3.png","","","","",""
"","html-keyboard-response","67","327791","0.0-6.0-4.0-0.19","rjyveqyjlq","many_one","0","direct_first","1","ki05er20","0","22","1","1","1","1","null","","","<div class = 'row'><div class = 'column'><img src = 'uspos/7580.bmp' width = '100%;'></div><div class = 'column'><img src = 'category2/CS9.png' width = '70%;'></div></div>","null","pos","CS","CS","2","category2/CS9.png","","","","",""
"","survey-html-form","68","330138","0.0-6.0-5.0","rjyveqyjlq","many_one","0","direct_first","1","ki05er20","0","22","1","1","1","1","1827","","{}","","","","","","","","","","","",""
"","html-keyboard-response","69","334171","0.0-6.0-6.0-0.0","rjyveqyjlq","many_one","0","direct_first","1","ki05er20","0","22","1","1","1","1","null","","","<div class = 'row'><div class = 'column'><img src = 'usneg/3181.bmp' width = '100%;'></div><div class = 'column'><img src = 'category1/CS2.png' width = '70%;'></div></div>","null","neg","CS","CS","1","category1/CS2.png","","","","",""
"","html-keyboard-response","70","336711","0.0-6.0-6.0-0.1","rjyveqyjlq","many_one","0","direct_first","1","ki05er20","0","22","1","1","1","1","null","","","<div class = 'row'><div class = 'column'><img src = 'category2/CS6.png' width = '70%;'></div><div class = 'column'><img src = 'uspos/2040.bmp' width = '100%;'></div></div>","null","pos","CS","CS","2","category2/CS6.png","","","","",""
"","html-keyboard-response","71","339234","0.0-6.0-6.0-0.2","rjyveqyjlq","many_one","0","direct_first","1","ki05er20","0","22","1","1","1","1","null","","","<div class = 'row'><div class = 'column'><img src = 'category3/CS10.png' width = '70%;'></div><div class = 'column'><img src = 'usneg/9181.bmp' width = '100%;'></div></div>","null","neg","CS","CS","3","category3/CS10.png","","","","",""
"","html-keyboard-response","72","341750","0.0-6.0-6.0-0.3","rjyveqyjlq","many_one","0","direct_first","1","ki05er20","0","22","1","1","1","1","null","","","<div class = 'row'><div class = 'column'><img src = 'uspos/8540.bmp' width = '100%;'></div><div class = 'column'><img src = 'category4/CS8.png' width = '70%;'></div></div>","null","pos","CS","CS","4","category4/CS8.png","","","","",""
"","html-keyboard-response","73","344290","0.0-6.0-6.0-0.4","rjyveqyjlq","many_one","0","direct_first","1","ki05er20","0","22","1","1","1","1","null","","","<div class = 'row'><div class = 'column'><img src = 'category4/CS3.png' width = '70%;'></div><div class = 'column'><img src = 'uspos/5700.bmp' width = '100%;'></div></div>","null","pos","CS","CS","4","category4/CS3.png","","","","",""
"","html-keyboard-response","74","346831","0.0-6.0-6.0-0.5","rjyveqyjlq","many_one","0","direct_first","1","ki05er20","0","22","1","1","1","1","null","","","<div class = 'row'><div class = 'column'><img src = 'category2/CS7.png' width = '70%;'></div><div class = 'column'><img src = 'uspos/2900.2.bmp' width = '100%;'></div></div>","null","pos","CS","CS","2","category2/CS7.png","","","","",""
"","html-keyboard-response","75","349370","0.0-6.0-6.0-0.6","rjyveqyjlq","many_one","0","direct_first","1","ki05er20","0","22","1","1","1","1","null","","","<div class = 'row'><div class = 'column'><img src = 'uspos/5830.bmp' width = '100%;'></div><div class = 'column'><img src = 'category2/CS8.png' width = '70%;'></div></div>","null","pos","CS","CS","2","category2/CS8.png","","","","",""
"","html-keyboard-response","76","351890","0.0-6.0-6.0-0.7","rjyveqyjlq","many_one","0","direct_first","1","ki05er20","0","22","1","1","1","1","null","","","<div class = 'row'><div class = 'column'><img src = 'category2/CS10.png' width = '70%;'></div><div class = 'column'><img src = 'uspos/5470.bmp' width = '100%;'></div></div>","null","pos","CS","CS","2","category2/CS10.png","","","","",""
"","html-keyboard-response","77","354411","0.0-6.0-6.0-0.8","rjyveqyjlq","many_one","0","direct_first","1","ki05er20","0","22","1","1","1","1","null","","","<div class = 'row'><div class = 'column'><img src = 'category3/CS3.png' width = '70%;'></div><div class = 'column'><img src = 'usneg/9415.bmp' width = '100%;'></div></div>","null","neg","CS","CS","3","category3/CS3.png","","","","",""
"","html-keyboard-response","78","356950","0.0-6.0-6.0-0.9","rjyveqyjlq","many_one","0","direct_first","1","ki05er20","0","22","1","1","1","1","null","","","<div class = 'row'><div class = 'column'><img src = 'uspos/7580.bmp' width = '100%;'></div><div class = 'column'><img src = 'category2/CS9.png' width = '70%;'></div></div>","null","pos","CS","CS","2","category2/CS9.png","","","","",""
"","html-keyboard-response","79","359480","0.0-6.0-6.0-0.10","rjyveqyjlq","many_one","0","direct_first","1","ki05er20","0","22","1","1","1","1","null","","","<div class = 'row'><div class = 'column'><img src = 'usneg/9290.bmp' width = '100%;'></div><div class = 'column'><img src = 'category1/CS5.png' width = '70%;'></div></div>","null","neg","CS","CS","1","category1/CS5.png","","","","",""
"","html-keyboard-response","80","362000","0.0-6.0-6.0-0.11","rjyveqyjlq","many_one","0","direct_first","1","ki05er20","0","22","1","1","1","1","null","","","<div class = 'row'><div class = 'column'><img src = 'usneg/9561.bmp' width = '100%;'></div><div class = 'column'><img src = 'category1/CS4.png' width = '70%;'></div></div>","null","neg","CS","CS","1","category1/CS4.png","","","","",""
"","html-keyboard-response","81","364521","0.0-6.0-6.0-0.12","rjyveqyjlq","many_one","0","direct_first","1","ki05er20","0","22","1","1","1","1","null","","","<div class = 'row'><div class = 'column'><img src = 'category3/CS5.png' width = '70%;'></div><div class = 'column'><img src = 'usneg/9404.bmp' width = '100%;'></div></div>","null","neg","CS","CS","3","category3/CS5.png","","","","",""
"","html-keyboard-response","82","367050","0.0-6.0-6.0-0.13","rjyveqyjlq","many_one","0","direct_first","1","ki05er20","0","22","1","1","1","1","null","","","<div class = 'row'><div class = 'column'><img src = 'category3/CS2.png' width = '70%;'></div><div class = 'column'><img src = 'usneg/2141.bmp' width = '100%;'></div></div>","null","neg","CS","CS","3","category3/CS2.png","","","","",""
"","html-keyboard-response","83","369591","0.0-6.0-6.0-0.14","rjyveqyjlq","many_one","0","direct_first","1","ki05er20","0","22","1","1","1","1","null","","","<div class = 'row'><div class = 'column'><img src = 'category3/CS8.png' width = '70%;'></div><div class = 'column'><img src = 'usneg/8485.bmp' width = '100%;'></div></div>","null","neg","CS","CS","3","category3/CS8.png","","","","",""
"","html-keyboard-response","84","372120","0.0-6.0-6.0-0.15","rjyveqyjlq","many_one","0","direct_first","1","ki05er20","0","22","1","1","1","1","null","","","<div class = 'row'><div class = 'column'><img src = 'category4/CS1.png' width = '70%;'></div><div class = 'column'><img src = 'uspos/8080.bmp' width = '100%;'></div></div>","null","pos","CS","CS","4","category4/CS1.png","","","","",""
"","html-keyboard-response","85","374660","0.0-6.0-6.0-0.16","rjyveqyjlq","many_one","0","direct_first","1","ki05er20","0","22","1","1","1","1","null","","","<div class = 'row'><div class = 'column'><img src = 'category4/CS10.png' width = '70%;'></div><div class = 'column'><img src = 'uspos/8461.bmp' width = '100%;'></div></div>","null","pos","CS","CS","4","category4/CS10.png","","","","",""
"","html-keyboard-response","86","377200","0.0-6.0-6.0-0.17","rjyveqyjlq","many_one","0","direct_first","1","ki05er20","0","22","1","1","1","1","null","","","<div class = 'row'><div class = 'column'><img src = 'uspos/1463.bmp' width = '100%;'></div><div class = 'column'><img src = 'category4/CS4.png' width = '70%;'></div></div>","null","pos","CS","CS","4","category4/CS4.png","","","","",""
"","html-keyboard-response","87","379741","0.0-6.0-6.0-0.18","rjyveqyjlq","many_one","0","direct_first","1","ki05er20","0","22","1","1","1","1","null","","","<div class = 'row'><div class = 'column'><img src = 'category1/CS9.png' width = '70%;'></div><div class = 'column'><img src = 'usneg/9830.bmp' width = '100%;'></div></div>","null","neg","CS","CS","1","category1/CS9.png","","","","",""
"","html-keyboard-response","88","382276","0.0-6.0-6.0-0.19","rjyveqyjlq","many_one","0","direct_first","1","ki05er20","0","22","1","1","1","1","null","","","<div class = 'row'><div class = 'column'><img src = 'category1/CS3.png' width = '70%;'></div><div class = 'column'><img src = 'usneg/7380.bmp' width = '100%;'></div></div>","null","neg","CS","CS","1","category1/CS3.png","","","","",""
"","survey-html-form","89","397217","0.0-7.0","rjyveqyjlq","many_one","0","direct_first","1","ki05er20","0","22","1","1","1","1","14438","","{}","","","","","","","","","","","",""
"","image-slider-response","90","406712","0.0-8.0-0.0","rjyveqyjlq","many_one","0","direct_first","1","ki05er20","0","22","1","1","1","1","7478","","","","","neg","CS","CS","3","category3/CS8.png","-100","targets/15.png","direct","",""
"","image-slider-response","91","414689","0.0-8.0-0.1","rjyveqyjlq","many_one","0","direct_first","1","ki05er20","0","22","1","1","1","1","7976","","","","","pos","CS","CS","2","category2/CS6.png","68","targets/45.png","direct","",""
"","image-slider-response","92","418968","0.0-8.0-0.2","rjyveqyjlq","many_one","0","direct_first","1","ki05er20","0","22","1","1","1","1","4278","","","","","neg","CS","CS","3","category3/CS10.png","-100","targets/28.png","direct","",""
"","image-slider-response","93","425392","0.0-8.0-0.3","rjyveqyjlq","many_one","0","direct_first","1","ki05er20","0","22","1","1","1","1","6423","","","","","neg","CS","CS","1","category1/CS4.png","-100","targets/24.png","direct","",""
"","image-slider-response","94","436608","0.0-8.0-0.4","rjyveqyjlq","many_one","0","direct_first","1","ki05er20","0","22","1","1","1","1","11214","","","","","neg","CS","CS","1","category1/CS5.png","-11","targets/17.png","direct","",""
"","image-slider-response","95","441872","0.0-8.0-0.5","rjyveqyjlq","many_one","0","direct_first","1","ki05er20","0","22","1","1","1","1","5263","","","","","pos","CS","CS","4","category4/CS1.png","48","targets/18.png","direct","",""
"","image-slider-response","96","446880","0.0-8.0-0.6","rjyveqyjlq","many_one","0","direct_first","1","ki05er20","0","22","1","1","1","1","5008","","","","","pos","CS","CS","4","category4/CS4.png","100","targets/43.png","direct","",""
"","image-slider-response","97","451297","0.0-8.0-0.7","rjyveqyjlq","many_one","0","direct_first","1","ki05er20","0","22","1","1","1","1","4416","","","","","pos","GS","GSold","2","category2/CS2.png","-44","targets/19.png","direct","",""
"","image-slider-response","98","459344","0.0-8.0-0.8","rjyveqyjlq","many_one","0","direct_first","1","ki05er20","0","22","1","1","1","1","8047","","","","","pos","GS","GSnew","4","category4/GS1.png","75","targets/32.png","direct","",""
"","image-slider-response","99","464601","0.0-8.0-0.9","rjyveqyjlq","many_one","0","direct_first","1","ki05er20","0","22","1","1","1","1","5254","","","","","pos","CS","CS","2","category2/CS8.png","-37","targets/22.png","direct","",""
"","image-slider-response","100","467496","0.0-8.0-0.10","rjyveqyjlq","many_one","0","direct_first","1","ki05er20","0","22","1","1","1","1","2895","","","","","neg","CS","CS","1","category1/CS3.png","-100","targets/21.png","direct","",""
"","image-slider-response","101","474584","0.0-8.0-0.11","rjyveqyjlq","many_one","0","direct_first","1","ki05er20","0","22","1","1","1","1","7087","","","","","neg","GS","abstract","1","category1/ma.png","-8","targets/42.png","direct","",""
"","image-slider-response","102","481976","0.0-8.0-0.12","rjyveqyjlq","many_one","0","direct_first","1","ki05er20","0","22","1","1","1","1","7391","","","","","pos","CS","CS","2","category2/CS7.png","-21","targets/14.png","direct","",""
"","image-slider-response","103","485544","0.0-8.0-0.13","rjyveqyjlq","many_one","0","direct_first","1","ki05er20","0","22","1","1","1","1","3567","","","","","pos","GS","GSold","4","category4/CS2.png","16","targets/13.png","direct","",""
"","image-slider-response","104","489992","0.0-8.0-0.14","rjyveqyjlq","many_one","0","direct_first","1","ki05er20","0","22","1","1","1","1","4447","","","","","pos","GS","abstract","4","category4/lin.png","-38","targets/16.png","direct","",""
"","image-slider-response","105","493608","0.0-8.0-0.15","rjyveqyjlq","many_one","0","direct_first","1","ki05er20","0","22","1","1","1","1","3616","","","","","neg","CS","CS","3","category3/CS3.png","-100","targets/36.png","direct","",""
"","image-slider-response","106","496631","0.0-8.0-0.16","rjyveqyjlq","many_one","0","direct_first","1","ki05er20","0","22","1","1","1","1","3023","","","","","pos","GS","GSold","4","category4/CS5.png","-21","targets/20.png","direct","",""
"","image-slider-response","107","502248","0.0-8.0-0.17","rjyveqyjlq","many_one","0","direct_first","1","ki05er20","0","22","1","1","1","1","5615","","","","","pos","GS","abstract","2","category2/men.png","-9","targets/6.png","direct","",""
"","image-slider-response","108","505488","0.0-8.0-0.18","rjyveqyjlq","many_one","0","direct_first","1","ki05er20","0","22","1","1","1","1","3239","","","","","neg","GS","GSnew","3","category3/GS2.png","-100","targets/29.png","direct","",""
"","image-slider-response","109","508728","0.0-8.0-0.19","rjyveqyjlq","many_one","0","direct_first","1","ki05er20","0","22","1","1","1","1","3239","","","","","neg","GS","GSnew","3","category3/GS1.png","-100","targets/11.png","direct","",""
"","image-slider-response","110","520200","0.0-8.0-0.20","rjyveqyjlq","many_one","0","direct_first","1","ki05er20","0","22","1","1","1","1","11471","","","","","neg","GS","GSnew","1","category1/GS2.png","-21","targets/41.png","direct","",""
"","image-slider-response","111","526616","0.0-8.0-0.21","rjyveqyjlq","many_one","0","direct_first","1","ki05er20","0","22","1","1","1","1","6415","","","","","neg","GS","GSnew","1","category1/GS3.png","-16","targets/30.png","direct","",""
"","image-slider-response","112","531888","0.0-8.0-0.22","rjyveqyjlq","many_one","0","direct_first","1","ki05er20","0","22","1","1","1","1","5271","","","","","neg","CS","CS","1","category1/CS9.png","-100","targets/5.png","direct","",""
"","image-slider-response","113","534655","0.0-8.0-0.23","rjyveqyjlq","many_one","0","direct_first","1","ki05er20","0","22","1","1","1","1","2766","","","","","neg","CS","CS","3","category3/CS2.png","-100","targets/27.png","direct","",""
"","image-slider-response","114","542791","0.0-8.0-0.24","rjyveqyjlq","many_one","0","direct_first","1","ki05er20","0","22","1","1","1","1","8134","","","","","pos","CS","CS","2","category2/CS10.png","55","targets/10.png","direct","",""
"","image-slider-response","115","546168","0.0-8.0-0.25","rjyveqyjlq","many_one","0","direct_first","1","ki05er20","0","22","1","1","1","1","3375","","","","","pos","CS","CS","2","category2/CS9.png","-28","targets/39.png","direct","",""
"","image-slider-response","116","551919","0.0-8.0-0.26","rjyveqyjlq","many_one","0","direct_first","1","ki05er20","0","22","1","1","1","1","5751","","","","","neg","GS","GSold","1","category1/CS1.png","-13","targets/33.png","direct","",""
"","image-slider-response","117","557559","0.0-8.0-0.27","rjyveqyjlq","many_one","0","direct_first","1","ki05er20","0","22","1","1","1","1","5639","","","","","pos","GS","GSnew","2","category2/GS1.png","-22","targets/25.png","direct","",""
"","image-slider-response","118","564839","0.0-8.0-0.28","rjyveqyjlq","many_one","0","direct_first","1","ki05er20","0","22","1","1","1","1","7279","","","","","pos","GS","GSold","4","category4/CS9.png","-19","targets/8.png","direct","",""
"","image-slider-response","119","567583","0.0-8.0-0.29","rjyveqyjlq","many_one","0","direct_first","1","ki05er20","0","22","1","1","1","1","2743","","","","","neg","CS","CS","1","category1/CS2.png","-44","targets/47.png","direct","",""
"","image-slider-response","120","573071","0.0-8.0-0.30","rjyveqyjlq","many_one","0","direct_first","1","ki05er20","0","22","1","1","1","1","5487","","","","","neg","GS","GSnew","1","category1/GS1.png","-25","targets/2.png","direct","",""
"","image-slider-response","121","575319","0.0-8.0-0.31","rjyveqyjlq","many_one","0","direct_first","1","ki05er20","0","22","1","1","1","1","2247","","","","","neg","GS","GSold","1","category1/CS8.png","-33","targets/23.png","direct","",""
"","image-slider-response","122","578703","0.0-8.0-0.32","rjyveqyjlq","many_one","0","direct_first","1","ki05er20","0","22","1","1","1","1","3382","","","","","pos","GS","GSnew","2","category2/GS3.png","-15","targets/46.png","direct","",""
"","image-slider-response","123","583110","0.0-8.0-0.33","rjyveqyjlq","many_one","0","direct_first","1","ki05er20","0","22","1","1","1","1","4407","","","","","pos","CS","CS","4","category4/CS3.png","-15","targets/4.png","direct","",""
"","image-slider-response","124","585822","0.0-8.0-0.34","rjyveqyjlq","many_one","0","direct_first","1","ki05er20","0","22","1","1","1","1","2711","","","","","neg","GS","GSold","3","category3/CS7.png","-100","targets/12.png","direct","",""
"","image-slider-response","125","590230","0.0-8.0-0.35","rjyveqyjlq","many_one","0","direct_first","1","ki05er20","0","22","1","1","1","1","4407","","","","","pos","GS","GSold","2","category2/CS5.png","-12","targets/3.png","direct","",""
"","image-slider-response","126","597262","0.0-8.0-0.36","rjyveqyjlq","many_one","0","direct_first","1","ki05er20","0","22","1","1","1","1","7032","","","","","pos","GS","GSold","2","category2/CS3.png","-17","targets/38.png","direct","",""
"","image-slider-response","127","599902","0.0-8.0-0.37","rjyveqyjlq","many_one","0","direct_first","1","ki05er20","0","22","1","1","1","1","2638","","","","","neg","GS","abstract","3","category3/wang.png","-100","targets/44.png","direct","",""
"","image-slider-response","128","602454","0.0-8.0-0.38","rjyveqyjlq","many_one","0","direct_first","1","ki05er20","0","22","1","1","1","1","2550","","","","","neg","GS","GSold","3","category3/CS1.png","-100","targets/31.png","direct","",""
"","image-slider-response","129","608310","0.0-8.0-0.39","rjyveqyjlq","many_one","0","direct_first","1","ki05er20","0","22","1","1","1","1","5855","","","","","pos","CS","CS","4","category4/CS10.png","-13","targets/40.png","direct","",""
"","image-slider-response","130","611215","0.0-8.0-0.40","rjyveqyjlq","many_one","0","direct_first","1","ki05er20","0","22","1","1","1","1","2903","","","","","neg","GS","GSnew","3","category3/GS3.png","-100","targets/7.png","direct","",""
"","image-slider-response","131","615167","0.0-8.0-0.41","rjyveqyjlq","many_one","0","direct_first","1","ki05er20","0","22","1","1","1","1","3951","","","","","pos","GS","GSnew","4","category4/GS3.png","-10","targets/48.png","direct","",""
"","image-slider-response","132","618598","0.0-8.0-0.42","rjyveqyjlq","many_one","0","direct_first","1","ki05er20","0","22","1","1","1","1","3431","","","","","pos","GS","GSnew","4","category4/GS2.png","-8","targets/35.png","direct","",""
"","image-slider-response","133","624862","0.0-8.0-0.43","rjyveqyjlq","many_one","0","direct_first","1","ki05er20","0","22","1","1","1","1","6262","","","","","pos","CS","CS","4","category4/CS8.png","-72","targets/37.png","direct","",""
"","image-slider-response","134","627638","0.0-8.0-0.44","rjyveqyjlq","many_one","0","direct_first","1","ki05er20","0","22","1","1","1","1","2775","","","","","pos","GS","GSnew","2","category2/GS2.png","-31","targets/34.png","direct","",""
"","image-slider-response","135","630686","0.0-8.0-0.45","rjyveqyjlq","many_one","0","direct_first","1","ki05er20","0","22","1","1","1","1","3046","","","","","neg","GS","GSold","1","category1/CS6.png","-15","targets/1.png","direct","",""
"","image-slider-response","136","632894","0.0-8.0-0.46","rjyveqyjlq","many_one","0","direct_first","1","ki05er20","0","22","1","1","1","1","2207","","","","","neg","CS","CS","3","category3/CS5.png","-100","targets/26.png","direct","",""
"","image-slider-response","137","635574","0.0-8.0-0.47","rjyveqyjlq","many_one","0","direct_first","1","ki05er20","0","22","1","1","1","1","2679","","","","","neg","GS","GSold","3","category3/CS4.png","-100","targets/9.png","direct","",""
"","html-keyboard-response","138","721007","0.0-9.0","rjyveqyjlq","many_one","0","direct_first","1","ki05er20","0","22","1","1","1","1","85433","","","<p>Sie sehen nun die chinesischen Zeichen nur ganz kurz. Danach sehen Sie die jeweilige Aussprache der Zeichen als Silbe auf dem Bildschrim. Ihre Aufgabe ist es, für jede Silbe anzugeben, ob diese etwas angenehmes, oder unangenehmes bedeuten könnte. Verlassen Sie sich hier vor allem auf Ihre Intuition.<br><br>Die Zeichen werden nur zur Orientierung dargestellt, beachten Sie sie deshalb nicht. Konzentrieren Sie sich vor allem auf die Silben. <br>Reagieren Sie mit folgenden zwei Tasten: <br><br><b>'D' </b> wenn die Silbe etwas <b>unangenehmes</b> bedeuten könnte. <br><b>'K'</b> wenn die Silbe etwas <b>angenehmes</b> bedeuten könnte. <br><br>Bitte legen Sie nun den Zeigefinger der linken Hand auf die Taste 'D' und den Zeigefinger der rechten Hand auf die Taste 'K'. <br>Reagieren Sie auf jede Silbe so schnell wie möglich. Uns interessiert Ihre spontane Reaktion. <br> <br> <br>Drücken Sie 'D' oder 'K', um die nächste Aufgabe zu starten. </p>","68","","","","","","","","","",""
"","html-keyboard-response","139","724046","0.0-10.0-0.0","rjyveqyjlq","many_one","0","direct_first","1","ki05er20","0","22","1","1","1","1","null","","","<div style=""font-size:60px;"">+</div>","null","","","","","","","","","",""
"","html-keyboard-response","140","724146","0.0-10.0-1.0","rjyveqyjlq","many_one","0","direct_first","1","ki05er20","0","22","1","1","1","1","null","","","<img src = 'category4/CS10.png' width = '100%;'>","null","","","","","","","","","",""
"","html-keyboard-response","141","724426","0.0-10.0-2.0","rjyveqyjlq","many_one","0","direct_first","1","ki05er20","0","22","1","1","1","1","null","","","<img src = 'targets/40.png' width = '100%;'>","null","","","","","","","","","",""
"","html-keyboard-response","142","728589","0.0-10.0-3.0","rjyveqyjlq","many_one","0","direct_first","1","ki05er20","0","22","1","1","1","1","4162","","","<img src = 'targets/mask.png' width = '100%;'>","68","pos","CS","CS","4","category4/CS10.png","","targets/40.png","indirect","0","0"
"","html-keyboard-response","143","730115","0.0-10.0-0.1","rjyveqyjlq","many_one","0","direct_first","1","ki05er20","0","22","1","1","1","1","null","","","<div style=""font-size:60px;"">+</div>","null","","","","","","","","","",""
"","html-keyboard-response","144","730216","0.0-10.0-1.1","rjyveqyjlq","many_one","0","direct_first","1","ki05er20","0","22","1","1","1","1","null","","","<img src = 'category3/CS8.png' width = '100%;'>","null","","","","","","","","","",""
"","html-keyboard-response","145","730497","0.0-10.0-2.1","rjyveqyjlq","many_one","0","direct_first","1","ki05er20","0","22","1","1","1","1","null","","","<img src = 'targets/15.png' width = '100%;'>","null","","","","","","","","","",""
"","html-keyboard-response","146","734510","0.0-10.0-3.1","rjyveqyjlq","many_one","0","direct_first","1","ki05er20","0","22","1","1","1","1","4012","","","<img src = 'targets/mask.png' width = '100%;'>","75","neg","CS","CS","3","category3/CS8.png","","targets/15.png","indirect","1","1"
"","html-keyboard-response","147","736026","0.0-10.0-0.2","rjyveqyjlq","many_one","0","direct_first","1","ki05er20","0","22","1","1","1","1","null","","","<div style=""font-size:60px;"">+</div>","null","","","","","","","","","",""
"","html-keyboard-response","148","736125","0.0-10.0-1.2","rjyveqyjlq","many_one","0","direct_first","1","ki05er20","0","22","1","1","1","1","null","","","<img src = 'category1/CS5.png' width = '100%;'>","null","","","","","","","","","",""
"","html-keyboard-response","149","736406","0.0-10.0-2.2","rjyveqyjlq","many_one","0","direct_first","1","ki05er20","0","22","1","1","1","1","null","","","<img src = 'targets/17.png' width = '100%;'>","null","","","","","","","","","",""
"","html-keyboard-response","150","738253","0.0-10.0-3.2","rjyveqyjlq","many_one","0","direct_first","1","ki05er20","0","22","1","1","1","1","1846","","","<img src = 'targets/mask.png' width = '100%;'>","68","neg","CS","CS","1","category1/CS5.png","","targets/17.png","indirect","0","2"
"","html-keyboard-response","151","739784","0.0-10.0-0.3","rjyveqyjlq","many_one","0","direct_first","1","ki05er20","0","22","1","1","1","1","null","","","<div style=""font-size:60px;"">+</div>","null","","","","","","","","","",""
"","html-keyboard-response","152","739884","0.0-10.0-1.3","rjyveqyjlq","many_one","0","direct_first","1","ki05er20","0","22","1","1","1","1","null","","","<img src = 'category1/CS2.png' width = '100%;'>","null","","","","","","","","","",""
"","html-keyboard-response","153","740166","0.0-10.0-2.3","rjyveqyjlq","many_one","0","direct_first","1","ki05er20","0","22","1","1","1","1","null","","","<img src = 'targets/47.png' width = '100%;'>","null","","","","","","","","","",""
"","html-keyboard-response","154","741709","0.0-10.0-3.3","rjyveqyjlq","many_one","0","direct_first","1","ki05er20","0","22","1","1","1","1","1541","","","<img src = 'targets/mask.png' width = '100%;'>","68","neg","CS","CS","1","category1/CS2.png","","targets/47.png","indirect","0","3"
"","html-keyboard-response","155","743245","0.0-10.0-0.4","rjyveqyjlq","many_one","0","direct_first","1","ki05er20","0","22","1","1","1","1","null","","","<div style=""font-size:60px;"">+</div>","null","","","","","","","","","",""
"","html-keyboard-response","156","743346","0.0-10.0-1.4","rjyveqyjlq","many_one","0","direct_first","1","ki05er20","0","22","1","1","1","1","null","","","<img src = 'category3/CS3.png' width = '100%;'>","null","","","","","","","","","",""
"","html-keyboard-response","157","743626","0.0-10.0-2.4","rjyveqyjlq","many_one","0","direct_first","1","ki05er20","0","22","1","1","1","1","null","","","<img src = 'targets/36.png' width = '100%;'>","null","","","","","","","","","",""
"","html-keyboard-response","158","744973","0.0-10.0-3.4","rjyveqyjlq","many_one","0","direct_first","1","ki05er20","0","22","1","1","1","1","1346","","","<img src = 'targets/mask.png' width = '100%;'>","75","neg","CS","CS","3","category3/CS3.png","","targets/36.png","indirect","1","4"
"","html-keyboard-response","159","746504","0.0-10.0-0.5","rjyveqyjlq","many_one","0","direct_first","1","ki05er20","0","22","1","1","1","1","null","","","<div style=""font-size:60px;"">+</div>","null","","","","","","","","","",""
"","html-keyboard-response","160","746604","0.0-10.0-1.5","rjyveqyjlq","many_one","0","direct_first","1","ki05er20","0","22","1","1","1","1","null","","","<img src = 'category1/CS9.png' width = '100%;'>","null","","","","","","","","","",""
"","html-keyboard-response","161","746886","0.0-10.0-2.5","rjyveqyjlq","many_one","0","direct_first","1","ki05er20","0","22","1","1","1","1","null","","","<img src = 'targets/5.png' width = '100%;'>","null","","","","","","","","","",""
"","html-keyboard-response","162","749958","0.0-10.0-3.5","rjyveqyjlq","many_one","0","direct_first","1","ki05er20","0","22","1","1","1","1","3071","","","<img src = 'targets/mask.png' width = '100%;'>","75","neg","CS","CS","1","category1/CS9.png","","targets/5.png","indirect","1","5"
"","html-keyboard-response","163","751486","0.0-10.0-0.6","rjyveqyjlq","many_one","0","direct_first","1","ki05er20","0","22","1","1","1","1","null","","","<div style=""font-size:60px;"">+</div>","null","","","","","","","","","",""
"","html-keyboard-response","164","751585","0.0-10.0-1.6","rjyveqyjlq","many_one","0","direct_first","1","ki05er20","0","22","1","1","1","1","null","","","<img src = 'category3/CS5.png' width = '100%;'>","null","","","","","","","","","",""
"","html-keyboard-response","165","751866","0.0-10.0-2.6","rjyveqyjlq","many_one","0","direct_first","1","ki05er20","0","22","1","1","1","1","null","","","<img src = 'targets/26.png' width = '100%;'>","null","","","","","","","","","",""
"","html-keyboard-response","166","755284","0.0-10.0-3.6","rjyveqyjlq","many_one","0","direct_first","1","ki05er20","0","22","1","1","1","1","3417","","","<img src = 'targets/mask.png' width = '100%;'>","68","neg","CS","CS","3","category3/CS5.png","","targets/26.png","indirect","0","6"
"","html-keyboard-response","167","756815","0.0-10.0-0.7","rjyveqyjlq","many_one","0","direct_first","1","ki05er20","0","22","1","1","1","1","null","","","<div style=""font-size:60px;"">+</div>","null","","","","","","","","","",""
"","html-keyboard-response","168","756915","0.0-10.0-1.7","rjyveqyjlq","many_one","0","direct_first","1","ki05er20","0","22","1","1","1","1","null","","","<img src = 'category3/CS10.png' width = '100%;'>","null","","","","","","","","","",""
"","html-keyboard-response","169","757196","0.0-10.0-2.7","rjyveqyjlq","many_one","0","direct_first","1","ki05er20","0","22","1","1","1","1","null","","","<img src = 'targets/28.png' width = '100%;'>","null","","","","","","","","","",""
"","html-keyboard-response","170","758069","0.0-10.0-3.7","rjyveqyjlq","many_one","0","direct_first","1","ki05er20","0","22","1","1","1","1","872","","","<img src = 'targets/mask.png' width = '100%;'>","68","neg","CS","CS","3","category3/CS10.png","","targets/28.png","indirect","0","7"
"","html-keyboard-response","171","759595","0.0-10.0-0.8","rjyveqyjlq","many_one","0","direct_first","1","ki05er20","0","22","1","1","1","1","null","","","<div style=""font-size:60px;"">+</div>","null","","","","","","","","","",""
"","html-keyboard-response","172","759696","0.0-10.0-1.8","rjyveqyjlq","many_one","0","direct_first","1","ki05er20","0","22","1","1","1","1","null","","","<img src = 'category1/CS6.png' width = '100%;'>","null","","","","","","","","","",""
"","html-keyboard-response","173","759975","0.0-10.0-2.8","rjyveqyjlq","many_one","0","direct_first","1","ki05er20","0","22","1","1","1","1","null","","","<img src = 'targets/1.png' width = '100%;'>","null","","","","","","","","","",""
"","html-keyboard-response","174","763901","0.0-10.0-3.8","rjyveqyjlq","many_one","0","direct_first","1","ki05er20","0","22","1","1","1","1","3924","","","<img src = 'targets/mask.png' width = '100%;'>","68","neg","GS","GSold","1","category1/CS6.png","","targets/1.png","indirect","0","8"
"","html-keyboard-response","175","765416","0.0-10.0-0.9","rjyveqyjlq","many_one","0","direct_first","1","ki05er20","0","22","1","1","1","1","null","","","<div style=""font-size:60px;"">+</div>","null","","","","","","","","","",""
"","html-keyboard-response","176","765515","0.0-10.0-1.9","rjyveqyjlq","many_one","0","direct_first","1","ki05er20","0","22","1","1","1","1","null","","","<img src = 'category2/CS5.png' width = '100%;'>","null","","","","","","","","","",""
"","html-keyboard-response","177","765795","0.0-10.0-2.9","rjyveqyjlq","many_one","0","direct_first","1","ki05er20","0","22","1","1","1","1","null","","","<img src = 'targets/3.png' width = '100%;'>","null","","","","","","","","","",""
"","html-keyboard-response","178","767045","0.0-10.0-3.9","rjyveqyjlq","many_one","0","direct_first","1","ki05er20","0","22","1","1","1","1","1248","","","<img src = 'targets/mask.png' width = '100%;'>","75","pos","GS","GSold","2","category2/CS5.png","","targets/3.png","indirect","1","9"
"","html-keyboard-response","179","768555","0.0-10.0-0.10","rjyveqyjlq","many_one","0","direct_first","1","ki05er20","0","22","1","1","1","1","null","","","<div style=""font-size:60px;"">+</div>","null","","","","","","","","","",""
"","html-keyboard-response","180","768655","0.0-10.0-1.10","rjyveqyjlq","many_one","0","direct_first","1","ki05er20","0","22","1","1","1","1","null","","","<img src = 'category3/CS2.png' width = '100%;'>","null","","","","","","","","","",""
"","html-keyboard-response","181","768936","0.0-10.0-2.10","rjyveqyjlq","many_one","0","direct_first","1","ki05er20","0","22","1","1","1","1","null","","","<img src = 'targets/27.png' width = '100%;'>","null","","","","","","","","","",""
"","html-keyboard-response","182","769373","0.0-10.0-3.10","rjyveqyjlq","many_one","0","direct_first","1","ki05er20","0","22","1","1","1","1","437","","","<img src = 'targets/mask.png' width = '100%;'>","68","neg","CS","CS","3","category3/CS2.png","","targets/27.png","indirect","0","10"
"","html-keyboard-response","183","770895","0.0-10.0-0.11","rjyveqyjlq","many_one","0","direct_first","1","ki05er20","0","22","1","1","1","1","null","","","<div style=""font-size:60px;"">+</div>","null","","","","","","","","","",""
"","html-keyboard-response","184","770995","0.0-10.0-1.11","rjyveqyjlq","many_one","0","direct_first","1","ki05er20","0","22","1","1","1","1","null","","","<img src = 'category4/CS3.png' width = '100%;'>","null","","","","","","","","","",""
"","html-keyboard-response","185","771275","0.0-10.0-2.11","rjyveqyjlq","many_one","0","direct_first","1","ki05er20","0","22","1","1","1","1","null","","","<img src = 'targets/4.png' width = '100%;'>","null","","","","","","","","","",""
"","html-keyboard-response","186","774509","0.0-10.0-3.11","rjyveqyjlq","many_one","0","direct_first","1","ki05er20","0","22","1","1","1","1","3231","","","<img src = 'targets/mask.png' width = '100%;'>","68","pos","CS","CS","4","category4/CS3.png","","targets/4.png","indirect","0","11"
"","html-keyboard-response","187","776035","0.0-10.0-0.12","rjyveqyjlq","many_one","0","direct_first","1","ki05er20","0","22","1","1","1","1","null","","","<div style=""font-size:60px;"">+</div>","null","","","","","","","","","",""
"","html-keyboard-response","188","776135","0.0-10.0-1.12","rjyveqyjlq","many_one","0","direct_first","1","ki05er20","0","22","1","1","1","1","null","","","<img src = 'category4/CS4.png' width = '100%;'>","null","","","","","","","","","",""
"","html-keyboard-response","189","776416","0.0-10.0-2.12","rjyveqyjlq","many_one","0","direct_first","1","ki05er20","0","22","1","1","1","1","null","","","<img src = 'targets/43.png' width = '100%;'>","null","","","","","","","","","",""
"","html-keyboard-response","190","777268","0.0-10.0-3.12","rjyveqyjlq","many_one","0","direct_first","1","ki05er20","0","22","1","1","1","1","852","","","<img src = 'targets/mask.png' width = '100%;'>","75","pos","CS","CS","4","category4/CS4.png","","targets/43.png","indirect","1","12"
"","html-keyboard-response","191","778795","0.0-10.0-0.13","rjyveqyjlq","many_one","0","direct_first","1","ki05er20","0","22","1","1","1","1","null","","","<div style=""font-size:60px;"">+</div>","null","","","","","","","","","",""
"","html-keyboard-response","192","778896","0.0-10.0-1.13","rjyveqyjlq","many_one","0","direct_first","1","ki05er20","0","22","1","1","1","1","null","","","<img src = 'category2/CS8.png' width = '100%;'>","null","","","","","","","","","",""
"","html-keyboard-response","193","779175","0.0-10.0-2.13","rjyveqyjlq","many_one","0","direct_first","1","ki05er20","0","22","1","1","1","1","null","","","<img src = 'targets/22.png' width = '100%;'>","null","","","","","","","","","",""
"","html-keyboard-response","194","782077","0.0-10.0-3.13","rjyveqyjlq","many_one","0","direct_first","1","ki05er20","0","22","1","1","1","1","2900","","","<img src = 'targets/mask.png' width = '100%;'>","75","pos","CS","CS","2","category2/CS8.png","","targets/22.png","indirect","1","13"
"","html-keyboard-response","195","783614","0.0-10.0-0.14","rjyveqyjlq","many_one","0","direct_first","1","ki05er20","0","22","1","1","1","1","null","","","<div style=""font-size:60px;"">+</div>","null","","","","","","","","","",""
"","html-keyboard-response","196","783715","0.0-10.0-1.14","rjyveqyjlq","many_one","0","direct_first","1","ki05er20","0","22","1","1","1","1","null","","","<img src = 'category2/CS9.png' width = '100%;'>","null","","","","","","","","","",""
"","html-keyboard-response","197","783995","0.0-10.0-2.14","rjyveqyjlq","many_one","0","direct_first","1","ki05er20","0","22","1","1","1","1","null","","","<img src = 'targets/39.png' width = '100%;'>","null","","","","","","","","","",""
"","html-keyboard-response","198","785748","0.0-10.0-3.14","rjyveqyjlq","many_one","0","direct_first","1","ki05er20","0","22","1","1","1","1","1752","","","<img src = 'targets/mask.png' width = '100%;'>","68","pos","CS","CS","2","category2/CS9.png","","targets/39.png","indirect","0","14"
"","html-keyboard-response","199","787275","0.0-10.0-0.15","rjyveqyjlq","many_one","0","direct_first","1","ki05er20","0","22","1","1","1","1","null","","","<div style=""font-size:60px;"">+</div>","null","","","","","","","","","",""
"","html-keyboard-response","200","787375","0.0-10.0-1.15","rjyveqyjlq","many_one","0","direct_first","1","ki05er20","0","22","1","1","1","1","null","","","<img src = 'category1/CS3.png' width = '100%;'>","null","","","","","","","","","",""
"","html-keyboard-response","201","787655","0.0-10.0-2.15","rjyveqyjlq","many_one","0","direct_first","1","ki05er20","0","22","1","1","1","1","null","","","<img src = 'targets/21.png' width = '100%;'>","null","","","","","","","","","",""
"","html-keyboard-response","202","789060","0.0-10.0-3.15","rjyveqyjlq","many_one","0","direct_first","1","ki05er20","0","22","1","1","1","1","1404","","","<img src = 'targets/mask.png' width = '100%;'>","68","neg","CS","CS","1","category1/CS3.png","","targets/21.png","indirect","0","15"
"","html-keyboard-response","203","790585","0.0-10.0-0.16","rjyveqyjlq","many_one","0","direct_first","1","ki05er20","0","22","1","1","1","1","null","","","<div style=""font-size:60px;"">+</div>","null","","","","","","","","","",""
"","html-keyboard-response","204","790685","0.0-10.0-1.16","rjyveqyjlq","many_one","0","direct_first","1","ki05er20","0","22","1","1","1","1","null","","","<img src = 'category2/CS6.png' width = '100%;'>","null","","","","","","","","","",""
"","html-keyboard-response","205","790965","0.0-10.0-2.16","rjyveqyjlq","many_one","0","direct_first","1","ki05er20","0","22","1","1","1","1","null","","","<img src = 'targets/45.png' width = '100%;'>","null","","","","","","","","","",""
"","html-keyboard-response","206","793228","0.0-10.0-3.16","rjyveqyjlq","many_one","0","direct_first","1","ki05er20","0","22","1","1","1","1","2262","","","<img src = 'targets/mask.png' width = '100%;'>","68","pos","CS","CS","2","category2/CS6.png","","targets/45.png","indirect","0","16"
"","html-keyboard-response","207","794745","0.0-10.0-0.17","rjyveqyjlq","many_one","0","direct_first","1","ki05er20","0","22","1","1","1","1","null","","","<div style=""font-size:60px;"">+</div>","null","","","","","","","","","",""
"","html-keyboard-response","208","794845","0.0-10.0-1.17","rjyveqyjlq","many_one","0","direct_first","1","ki05er20","0","22","1","1","1","1","null","","","<img src = 'category2/CS10.png' width = '100%;'>","null","","","","","","","","","",""
"","html-keyboard-response","209","795125","0.0-10.0-2.17","rjyveqyjlq","many_one","0","direct_first","1","ki05er20","0","22","1","1","1","1","null","","","<img src = 'targets/10.png' width = '100%;'>","null","","","","","","","","","",""
"","html-keyboard-response","210","797844","0.0-10.0-3.17","rjyveqyjlq","many_one","0","direct_first","1","ki05er20","0","22","1","1","1","1","2718","","","<img src = 'targets/mask.png' width = '100%;'>","68","pos","CS","CS","2","category2/CS10.png","","targets/10.png","indirect","0","17"
"","html-keyboard-response","211","799364","0.0-10.0-0.18","rjyveqyjlq","many_one","0","direct_first","1","ki05er20","0","22","1","1","1","1","null","","","<div style=""font-size:60px;"">+</div>","null","","","","","","","","","",""
"","html-keyboard-response","212","799465","0.0-10.0-1.18","rjyveqyjlq","many_one","0","direct_first","1","ki05er20","0","22","1","1","1","1","null","","","<img src = 'category4/CS1.png' width = '100%;'>","null","","","","","","","","","",""
"","html-keyboard-response","213","799725","0.0-10.0-2.18","rjyveqyjlq","many_one","0","direct_first","1","ki05er20","0","22","1","1","1","1","null","","","<img src = 'targets/18.png' width = '100%;'>","null","","","","","","","","","",""
"","html-keyboard-response","214","802884","0.0-10.0-3.18","rjyveqyjlq","many_one","0","direct_first","1","ki05er20","0","22","1","1","1","1","3158","","","<img src = 'targets/mask.png' width = '100%;'>","75","pos","CS","CS","4","category4/CS1.png","","targets/18.png","indirect","1","18"
"","html-keyboard-response","215","804404","0.0-10.0-0.19","rjyveqyjlq","many_one","0","direct_first","1","ki05er20","0","22","1","1","1","1","null","","","<div style=""font-size:60px;"">+</div>","null","","","","","","","","","",""
"","html-keyboard-response","216","804505","0.0-10.0-1.19","rjyveqyjlq","many_one","0","direct_first","1","ki05er20","0","22","1","1","1","1","null","","","<img src = 'category1/CS4.png' width = '100%;'>","null","","","","","","","","","",""
"","html-keyboard-response","217","804785","0.0-10.0-2.19","rjyveqyjlq","many_one","0","direct_first","1","ki05er20","0","22","1","1","1","1","null","","","<img src = 'targets/24.png' width = '100%;'>","null","","","","","","","","","",""
"","html-keyboard-response","218","805812","0.0-10.0-3.19","rjyveqyjlq","many_one","0","direct_first","1","ki05er20","0","22","1","1","1","1","1026","","","<img src = 'targets/mask.png' width = '100%;'>","68","neg","CS","CS","1","category1/CS4.png","","targets/24.png","indirect","0","19"
"","html-keyboard-response","219","807315","0.0-10.0-0.20","rjyveqyjlq","many_one","0","direct_first","1","ki05er20","0","22","1","1","1","1","null","","","<div style=""font-size:60px;"">+</div>","null","","","","","","","","","",""
"","html-keyboard-response","220","807425","0.0-10.0-1.20","rjyveqyjlq","many_one","0","direct_first","1","ki05er20","0","22","1","1","1","1","null","","","<img src = 'category1/CS8.png' width = '100%;'>","null","","","","","","","","","",""
"","html-keyboard-response","221","807705","0.0-10.0-2.20","rjyveqyjlq","many_one","0","direct_first","1","ki05er20","0","22","1","1","1","1","null","","","<img src = 'targets/23.png' width = '100%;'>","null","","","","","","","","","",""
"","html-keyboard-response","222","809700","0.0-10.0-3.20","rjyveqyjlq","many_one","0","direct_first","1","ki05er20","0","22","1","1","1","1","1994","","","<img src = 'targets/mask.png' width = '100%;'>","68","neg","GS","GSold","1","category1/CS8.png","","targets/23.png","indirect","0","20"
"","html-keyboard-response","223","811225","0.0-10.0-0.21","rjyveqyjlq","many_one","0","direct_first","1","ki05er20","0","22","1","1","1","1","null","","","<div style=""font-size:60px;"">+</div>","null","","","","","","","","","",""
"","html-keyboard-response","224","811324","0.0-10.0-1.21","rjyveqyjlq","many_one","0","direct_first","1","ki05er20","0","22","1","1","1","1","null","","","<img src = 'category4/CS8.png' width = '100%;'>","null","","","","","","","","","",""
"","html-keyboard-response","225","811605","0.0-10.0-2.21","rjyveqyjlq","many_one","0","direct_first","1","ki05er20","0","22","1","1","1","1","null","","","<img src = 'targets/37.png' width = '100%;'>","null","","","","","","","","","",""
"","html-keyboard-response","226","813004","0.0-10.0-3.21","rjyveqyjlq","many_one","0","direct_first","1","ki05er20","0","22","1","1","1","1","1399","","","<img src = 'targets/mask.png' width = '100%;'>","75","pos","CS","CS","4","category4/CS8.png","","targets/37.png","indirect","1","21"
"","html-keyboard-response","227","814525","0.0-10.0-0.22","rjyveqyjlq","many_one","0","direct_first","1","ki05er20","0","22","1","1","1","1","null","","","<div style=""font-size:60px;"">+</div>","null","","","","","","","","","",""
"","html-keyboard-response","228","814625","0.0-10.0-1.22","rjyveqyjlq","many_one","0","direct_first","1","ki05er20","0","22","1","1","1","1","null","","","<img src = 'category2/CS7.png' width = '100%;'>","null","","","","","","","","","",""
"","html-keyboard-response","229","814905","0.0-10.0-2.22","rjyveqyjlq","many_one","0","direct_first","1","ki05er20","0","22","1","1","1","1","null","","","<img src = 'targets/14.png' width = '100%;'>","null","","","","","","","","","",""
"","html-keyboard-response","230","817108","0.0-10.0-3.22","rjyveqyjlq","many_one","0","direct_first","1","ki05er20","0","22","1","1","1","1","2202","","","<img src = 'targets/mask.png' width = '100%;'>","75","pos","CS","CS","2","category2/CS7.png","","targets/14.png","indirect","1","22"
"","html-keyboard-response","231","818644","0.0-10.0-0.23","rjyveqyjlq","many_one","0","direct_first","1","ki05er20","0","22","1","1","1","1","null","","","<div style=""font-size:60px;"">+</div>","null","","","","","","","","","",""
"","html-keyboard-response","232","818745","0.0-10.0-1.23","rjyveqyjlq","many_one","0","direct_first","1","ki05er20","0","22","1","1","1","1","null","","","<img src = 'category1/CS1.png' width = '100%;'>","null","","","","","","","","","",""
"","html-keyboard-response","233","819024","0.0-10.0-2.23","rjyveqyjlq","many_one","0","direct_first","1","ki05er20","0","22","1","1","1","1","null","","","<img src = 'targets/33.png' width = '100%;'>","null","","","","","","","","","",""
"","html-keyboard-response","234","820884","0.0-10.0-3.23","rjyveqyjlq","many_one","0","direct_first","1","ki05er20","0","22","1","1","1","1","1858","","","<img src = 'targets/mask.png' width = '100%;'>","68","neg","GS","GSold","1","category1/CS1.png","","targets/33.png","indirect","0","23"
"","survey-html-form","235","823700","0.0-11.0","rjyveqyjlq","many_one","0","direct_first","1","ki05er20","0","22","1","1","1","1","2295","","{}","","","","","","","","","","","",""
"","html-keyboard-response","236","826725","0.0-12.0-0.0","rjyveqyjlq","many_one","0","direct_first","1","ki05er20","0","22","1","1","1","1","null","","","<div style=""font-size:60px;"">+</div>","null","","","","","","","","","",""
"","html-keyboard-response","237","826825","0.0-12.0-1.0","rjyveqyjlq","many_one","0","direct_first","1","ki05er20","0","22","1","1","1","1","null","","","<img src = 'category2/GS3.png' width = '100%;'>","null","","","","","","","","","",""
"","html-keyboard-response","238","827105","0.0-12.0-2.0","rjyveqyjlq","many_one","0","direct_first","1","ki05er20","0","22","1","1","1","1","null","","","<img src = 'targets/46.png' width = '100%;'>","null","","","","","","","","","",""
"","html-keyboard-response","239","828380","0.0-12.0-3.0","rjyveqyjlq","many_one","0","direct_first","1","ki05er20","0","22","1","1","1","1","1275","","","<img src = 'targets/mask.png' width = '100%;'>","75","pos","GS","GSnew","2","category2/GS3.png","","targets/46.png","indirect","1","24"
"","html-keyboard-response","240","829884","0.0-12.0-0.1","rjyveqyjlq","many_one","0","direct_first","1","ki05er20","0","22","1","1","1","1","null","","","<div style=""font-size:60px;"">+</div>","null","","","","","","","","","",""
"","html-keyboard-response","241","829984","0.0-12.0-1.1","rjyveqyjlq","many_one","0","direct_first","1","ki05er20","0","22","1","1","1","1","null","","","<img src = 'category4/lin.png' width = '100%;'>","null","","","","","","","","","",""
"","html-keyboard-response","242","830265","0.0-12.0-2.1","rjyveqyjlq","many_one","0","direct_first","1","ki05er20","0","22","1","1","1","1","null","","","<img src = 'targets/16.png' width = '100%;'>","null","","","","","","","","","",""
"","html-keyboard-response","243","838787","0.0-12.0-3.1","rjyveqyjlq","many_one","0","direct_first","1","ki05er20","0","22","1","1","1","1","8523","","","<img src = 'targets/mask.png' width = '100%;'>","68","pos","GS","abstract","4","category4/lin.png","","targets/16.png","indirect","0","25"
"","html-keyboard-response","244","840324","0.0-12.0-0.2","rjyveqyjlq","many_one","0","direct_first","1","ki05er20","0","22","1","1","1","1","null","","","<div style=""font-size:60px;"">+</div>","null","","","","","","","","","",""
"","html-keyboard-response","245","840424","0.0-12.0-1.2","rjyveqyjlq","many_one","0","direct_first","1","ki05er20","0","22","1","1","1","1","null","","","<img src = 'category4/CS9.png' width = '100%;'>","null","","","","","","","","","",""
"","html-keyboard-response","246","840700","0.0-12.0-2.2","rjyveqyjlq","many_one","0","direct_first","1","ki05er20","0","22","1","1","1","1","null","","","<img src = 'targets/8.png' width = '100%;'>","null","","","","","","","","","",""
"","html-keyboard-response","247","842724","0.0-12.0-3.2","rjyveqyjlq","many_one","0","direct_first","1","ki05er20","0","22","1","1","1","1","2022","","","<img src = 'targets/mask.png' width = '100%;'>","75","pos","GS","GSold","4","category4/CS9.png","","targets/8.png","indirect","1","26"
"","html-keyboard-response","248","844265","0.0-12.0-0.3","rjyveqyjlq","many_one","0","direct_first","1","ki05er20","0","22","1","1","1","1","null","","","<div style=""font-size:60px;"">+</div>","null","","","","","","","","","",""
"","html-keyboard-response","249","844364","0.0-12.0-1.3","rjyveqyjlq","many_one","0","direct_first","1","ki05er20","0","22","1","1","1","1","null","","","<img src = 'category1/GS2.png' width = '100%;'>","null","","","","","","","","","",""
"","html-keyboard-response","250","844644","0.0-12.0-2.3","rjyveqyjlq","many_one","0","direct_first","1","ki05er20","0","22","1","1","1","1","null","","","<img src = 'targets/41.png' width = '100%;'>","null","","","","","","","","","",""
"","html-keyboard-response","251","846451","0.0-12.0-3.3","rjyveqyjlq","many_one","0","direct_first","1","ki05er20","0","22","1","1","1","1","1806","","","<img src = 'targets/mask.png' width = '100%;'>","68","neg","GS","GSnew","1","category1/GS2.png","","targets/41.png","indirect","0","27"
"","html-keyboard-response","252","847984","0.0-12.0-0.4","rjyveqyjlq","many_one","0","direct_first","1","ki05er20","0","22","1","1","1","1","null","","","<div style=""font-size:60px;"">+</div>","null","","","","","","","","","",""
"","html-keyboard-response","253","848084","0.0-12.0-1.4","rjyveqyjlq","many_one","0","direct_first","1","ki05er20","0","22","1","1","1","1","null","","","<img src = 'category1/ma.png' width = '100%;'>","null","","","","","","","","","",""
"","html-keyboard-response","254","848365","0.0-12.0-2.4","rjyveqyjlq","many_one","0","direct_first","1","ki05er20","0","22","1","1","1","1","null","","","<img src = 'targets/42.png' width = '100%;'>","null","","","","","","","","","",""
"","html-keyboard-response","255","851684","0.0-12.0-3.4","rjyveqyjlq","many_one","0","direct_first","1","ki05er20","0","22","1","1","1","1","3318","","","<img src = 'targets/mask.png' width = '100%;'>","75","neg","GS","abstract","1","category1/ma.png","","targets/42.png","indirect","1","28"
"","html-keyboard-response","256","853224","0.0-12.0-0.5","rjyveqyjlq","many_one","0","direct_first","1","ki05er20","0","22","1","1","1","1","null","","","<div style=""font-size:60px;"">+</div>","null","","","","","","","","","",""
"","html-keyboard-response","257","853324","0.0-12.0-1.5","rjyveqyjlq","many_one","0","direct_first","1","ki05er20","0","22","1","1","1","1","null","","","<img src = 'category3/GS1.png' width = '100%;'>","null","","","","","","","","","",""
"","html-keyboard-response","258","853605","0.0-12.0-2.5","rjyveqyjlq","many_one","0","direct_first","1","ki05er20","0","22","1","1","1","1","null","","","<img src = 'targets/11.png' width = '100%;'>","null","","","","","","","","","",""
"","html-keyboard-response","259","854459","0.0-12.0-3.5","rjyveqyjlq","many_one","0","direct_first","1","ki05er20","0","22","1","1","1","1","853","","","<img src = 'targets/mask.png' width = '100%;'>","68","neg","GS","GSnew","3","category3/GS1.png","","targets/11.png","indirect","0","29"
"","html-keyboard-response","260","855984","0.0-12.0-0.6","rjyveqyjlq","many_one","0","direct_first","1","ki05er20","0","22","1","1","1","1","null","","","<div style=""font-size:60px;"">+</div>","null","","","","","","","","","",""
"","html-keyboard-response","261","856084","0.0-12.0-1.6","rjyveqyjlq","many_one","0","direct_first","1","ki05er20","0","22","1","1","1","1","null","","","<img src = 'category2/GS2.png' width = '100%;'>","null","","","","","","","","","",""
"","html-keyboard-response","262","856364","0.0-12.0-2.6","rjyveqyjlq","many_one","0","direct_first","1","ki05er20","0","22","1","1","1","1","null","","","<img src = 'targets/34.png' width = '100%;'>","null","","","","","","","","","",""
"","html-keyboard-response","263","859260","0.0-12.0-3.6","rjyveqyjlq","many_one","0","direct_first","1","ki05er20","0","22","1","1","1","1","2895","","","<img src = 'targets/mask.png' width = '100%;'>","68","pos","GS","GSnew","2","category2/GS2.png","","targets/34.png","indirect","0","30"
"","html-keyboard-response","264","860783","0.0-12.0-0.7","rjyveqyjlq","many_one","0","direct_first","1","ki05er20","0","22","1","1","1","1","null","","","<div style=""font-size:60px;"">+</div>","null","","","","","","","","","",""
"","html-keyboard-response","265","860885","0.0-12.0-1.7","rjyveqyjlq","many_one","0","direct_first","1","ki05er20","0","22","1","1","1","1","null","","","<img src = 'category3/CS4.png' width = '100%;'>","null","","","","","","","","","",""
"","html-keyboard-response","266","861164","0.0-12.0-2.7","rjyveqyjlq","many_one","0","direct_first","1","ki05er20","0","22","1","1","1","1","null","","","<img src = 'targets/9.png' width = '100%;'>","null","","","","","","","","","",""
"","html-keyboard-response","267","861859","0.0-12.0-3.7","rjyveqyjlq","many_one","0","direct_first","1","ki05er20","0","22","1","1","1","1","694","","","<img src = 'targets/mask.png' width = '100%;'>","68","neg","GS","GSold","3","category3/CS4.png","","targets/9.png","indirect","0","31"
"","html-keyboard-response","268","863384","0.0-12.0-0.8","rjyveqyjlq","many_one","0","direct_first","1","ki05er20","0","22","1","1","1","1","null","","","<div style=""font-size:60px;"">+</div>","null","","","","","","","","","",""
"","html-keyboard-response","269","863484","0.0-12.0-1.8","rjyveqyjlq","many_one","0","direct_first","1","ki05er20","0","22","1","1","1","1","null","","","<img src = 'category3/CS1.png' width = '100%;'>","null","","","","","","","","","",""
"","html-keyboard-response","270","863760","0.0-12.0-2.8","rjyveqyjlq","many_one","0","direct_first","1","ki05er20","0","22","1","1","1","1","null","","","<img src = 'targets/31.png' width = '100%;'>","null","","","","","","","","","",""
"","html-keyboard-response","271","864300","0.0-12.0-3.8","rjyveqyjlq","many_one","0","direct_first","1","ki05er20","0","22","1","1","1","1","539","","","<img src = 'targets/mask.png' width = '100%;'>","68","neg","GS","GSold","3","category3/CS1.png","","targets/31.png","indirect","0","32"
"","html-keyboard-response","272","865804","0.0-12.0-0.9","rjyveqyjlq","many_one","0","direct_first","1","ki05er20","0","22","1","1","1","1","null","","","<div style=""font-size:60px;"">+</div>","null","","","","","","","","","",""
"","html-keyboard-response","273","865904","0.0-12.0-1.9","rjyveqyjlq","many_one","0","direct_first","1","ki05er20","0","22","1","1","1","1","null","","","<img src = 'category1/GS1.png' width = '100%;'>","null","","","","","","","","","",""
"","html-keyboard-response","274","866185","0.0-12.0-2.9","rjyveqyjlq","many_one","0","direct_first","1","ki05er20","0","22","1","1","1","1","null","","","<img src = 'targets/2.png' width = '100%;'>","null","","","","","","","","","",""
"","html-keyboard-response","275","868811","0.0-12.0-3.9","rjyveqyjlq","many_one","0","direct_first","1","ki05er20","0","22","1","1","1","1","2626","","","<img src = 'targets/mask.png' width = '100%;'>","75","neg","GS","GSnew","1","category1/GS1.png","","targets/2.png","indirect","1","33"
"","html-keyboard-response","276","870344","0.0-12.0-0.10","rjyveqyjlq","many_one","0","direct_first","1","ki05er20","0","22","1","1","1","1","null","","","<div style=""font-size:60px;"">+</div>","null","","","","","","","","","",""
"","html-keyboard-response","277","870445","0.0-12.0-1.10","rjyveqyjlq","many_one","0","direct_first","1","ki05er20","0","22","1","1","1","1","null","","","<img src = 'category4/CS5.png' width = '100%;'>","null","","","","","","","","","",""
"","html-keyboard-response","278","870724","0.0-12.0-2.10","rjyveqyjlq","many_one","0","direct_first","1","ki05er20","0","22","1","1","1","1","null","","","<img src = 'targets/20.png' width = '100%;'>","null","","","","","","","","","",""
"","html-keyboard-response","279","873851","0.0-12.0-3.10","rjyveqyjlq","many_one","0","direct_first","1","ki05er20","0","22","1","1","1","1","3126","","","<img src = 'targets/mask.png' width = '100%;'>","75","pos","GS","GSold","4","category4/CS5.png","","targets/20.png","indirect","1","34"
"","html-keyboard-response","280","875374","0.0-12.0-0.11","rjyveqyjlq","many_one","0","direct_first","1","ki05er20","0","22","1","1","1","1","null","","","<div style=""font-size:60px;"">+</div>","null","","","","","","","","","",""
"","html-keyboard-response","281","875474","0.0-12.0-1.11","rjyveqyjlq","many_one","0","direct_first","1","ki05er20","0","22","1","1","1","1","null","","","<img src = 'category3/GS3.png' width = '100%;'>","null","","","","","","","","","",""
"","html-keyboard-response","282","875754","0.0-12.0-2.11","rjyveqyjlq","many_one","0","direct_first","1","ki05er20","0","22","1","1","1","1","null","","","<img src = 'targets/7.png' width = '100%;'>","null","","","","","","","","","",""
"","html-keyboard-response","283","876107","0.0-12.0-3.11","rjyveqyjlq","many_one","0","direct_first","1","ki05er20","0","22","1","1","1","1","352","","","<img src = 'targets/mask.png' width = '100%;'>","68","neg","GS","GSnew","3","category3/GS3.png","","targets/7.png","indirect","0","35"
"","html-keyboard-response","284","877634","0.0-12.0-0.12","rjyveqyjlq","many_one","0","direct_first","1","ki05er20","0","22","1","1","1","1","null","","","<div style=""font-size:60px;"">+</div>","null","","","","","","","","","",""
"","html-keyboard-response","285","877733","0.0-12.0-1.12","rjyveqyjlq","many_one","0","direct_first","1","ki05er20","0","22","1","1","1","1","null","","","<img src = 'category2/CS3.png' width = '100%;'>","null","","","","","","","","","",""
"","html-keyboard-response","286","878014","0.0-12.0-2.12","rjyveqyjlq","many_one","0","direct_first","1","ki05er20","0","22","1","1","1","1","null","","","<img src = 'targets/38.png' width = '100%;'>","null","","","","","","","","","",""
"","html-keyboard-response","287","880051","0.0-12.0-3.12","rjyveqyjlq","many_one","0","direct_first","1","ki05er20","0","22","1","1","1","1","2036","","","<img src = 'targets/mask.png' width = '100%;'>","68","pos","GS","GSold","2","category2/CS3.png","","targets/38.png","indirect","0","36"
"","html-keyboard-response","288","881574","0.0-12.0-0.13","rjyveqyjlq","many_one","0","direct_first","1","ki05er20","0","22","1","1","1","1","null","","","<div style=""font-size:60px;"">+</div>","null","","","","","","","","","",""
"","html-keyboard-response","289","881674","0.0-12.0-1.13","rjyveqyjlq","many_one","0","direct_first","1","ki05er20","0","22","1","1","1","1","null","","","<img src = 'category4/GS2.png' width = '100%;'>","null","","","","","","","","","",""
"","html-keyboard-response","290","881953","0.0-12.0-2.13","rjyveqyjlq","many_one","0","direct_first","1","ki05er20","0","22","1","1","1","1","null","","","<img src = 'targets/35.png' width = '100%;'>","null","","","","","","","","","",""
"","html-keyboard-response","291","883523","0.0-12.0-3.13","rjyveqyjlq","many_one","0","direct_first","1","ki05er20","0","22","1","1","1","1","1569","","","<img src = 'targets/mask.png' width = '100%;'>","68","pos","GS","GSnew","4","category4/GS2.png","","targets/35.png","indirect","0","37"
"","html-keyboard-response","292","885054","0.0-12.0-0.14","rjyveqyjlq","many_one","0","direct_first","1","ki05er20","0","22","1","1","1","1","null","","","<div style=""font-size:60px;"">+</div>","null","","","","","","","","","",""
"","html-keyboard-response","293","885154","0.0-12.0-1.14","rjyveqyjlq","many_one","0","direct_first","1","ki05er20","0","22","1","1","1","1","null","","","<img src = 'category3/wang.png' width = '100%;'>","null","","","","","","","","","",""
"","html-keyboard-response","294","885434","0.0-12.0-2.14","rjyveqyjlq","many_one","0","direct_first","1","ki05er20","0","22","1","1","1","1","null","","","<img src = 'targets/44.png' width = '100%;'>","null","","","","","","","","","",""
"","html-keyboard-response","295","886339","0.0-12.0-3.14","rjyveqyjlq","many_one","0","direct_first","1","ki05er20","0","22","1","1","1","1","905","","","<img src = 'targets/mask.png' width = '100%;'>","68","neg","GS","abstract","3","category3/wang.png","","targets/44.png","indirect","0","38"
"","html-keyboard-response","296","887874","0.0-12.0-0.15","rjyveqyjlq","many_one","0","direct_first","1","ki05er20","0","22","1","1","1","1","null","","","<div style=""font-size:60px;"">+</div>","null","","","","","","","","","",""
"","html-keyboard-response","297","887974","0.0-12.0-1.15","rjyveqyjlq","many_one","0","direct_first","1","ki05er20","0","22","1","1","1","1","null","","","<img src = 'category1/GS3.png' width = '100%;'>","null","","","","","","","","","",""
"","html-keyboard-response","298","888254","0.0-12.0-2.15","rjyveqyjlq","many_one","0","direct_first","1","ki05er20","0","22","1","1","1","1","null","","","<img src = 'targets/30.png' width = '100%;'>","null","","","","","","","","","",""
"","html-keyboard-response","299","889819","0.0-12.0-3.15","rjyveqyjlq","many_one","0","direct_first","1","ki05er20","0","22","1","1","1","1","1563","","","<img src = 'targets/mask.png' width = '100%;'>","68","neg","GS","GSnew","1","category1/GS3.png","","targets/30.png","indirect","0","39"
"","html-keyboard-response","300","891353","0.0-12.0-0.16","rjyveqyjlq","many_one","0","direct_first","1","ki05er20","0","22","1","1","1","1","null","","","<div style=""font-size:60px;"">+</div>","null","","","","","","","","","",""
"","html-keyboard-response","301","891454","0.0-12.0-1.16","rjyveqyjlq","many_one","0","direct_first","1","ki05er20","0","22","1","1","1","1","null","","","<img src = 'category4/GS1.png' width = '100%;'>","null","","","","","","","","","",""
"","html-keyboard-response","302","891734","0.0-12.0-2.16","rjyveqyjlq","many_one","0","direct_first","1","ki05er20","0","22","1","1","1","1","null","","","<img src = 'targets/32.png' width = '100%;'>","null","","","","","","","","","",""
"","html-keyboard-response","303","892563","0.0-12.0-3.16","rjyveqyjlq","many_one","0","direct_first","1","ki05er20","0","22","1","1","1","1","828","","","<img src = 'targets/mask.png' width = '100%;'>","68","pos","GS","GSnew","4","category4/GS1.png","","targets/32.png","indirect","0","40"
"","html-keyboard-response","304","894084","0.0-12.0-0.17","rjyveqyjlq","many_one","0","direct_first","1","ki05er20","0","22","1","1","1","1","null","","","<div style=""font-size:60px;"">+</div>","null","","","","","","","","","",""
"","html-keyboard-response","305","894184","0.0-12.0-1.17","rjyveqyjlq","many_one","0","direct_first","1","ki05er20","0","22","1","1","1","1","null","","","<img src = 'category4/GS3.png' width = '100%;'>","null","","","","","","","","","",""
"","html-keyboard-response","306","894465","0.0-12.0-2.17","rjyveqyjlq","many_one","0","direct_first","1","ki05er20","0","22","1","1","1","1","null","","","<img src = 'targets/48.png' width = '100%;'>","null","","","","","","","","","",""
"","html-keyboard-response","307","894923","0.0-12.0-3.17","rjyveqyjlq","many_one","0","direct_first","1","ki05er20","0","22","1","1","1","1","458","","","<img src = 'targets/mask.png' width = '100%;'>","68","pos","GS","GSnew","4","category4/GS3.png","","targets/48.png","indirect","0","41"
"","html-keyboard-response","308","896444","0.0-12.0-0.18","rjyveqyjlq","many_one","0","direct_first","1","ki05er20","0","22","1","1","1","1","null","","","<div style=""font-size:60px;"">+</div>","null","","","","","","","","","",""
"","html-keyboard-response","309","896544","0.0-12.0-1.18","rjyveqyjlq","many_one","0","direct_first","1","ki05er20","0","22","1","1","1","1","null","","","<img src = 'category2/CS2.png' width = '100%;'>","null","","","","","","","","","",""
"","html-keyboard-response","310","896824","0.0-12.0-2.18","rjyveqyjlq","many_one","0","direct_first","1","ki05er20","0","22","1","1","1","1","null","","","<img src = 'targets/19.png' width = '100%;'>","null","","","","","","","","","",""
"","html-keyboard-response","311","897356","0.0-12.0-3.18","rjyveqyjlq","many_one","0","direct_first","1","ki05er20","0","22","1","1","1","1","530","","","<img src = 'targets/mask.png' width = '100%;'>","68","pos","GS","GSold","2","category2/CS2.png","","targets/19.png","indirect","0","42"
"","html-keyboard-response","312","898861","0.0-12.0-0.19","rjyveqyjlq","many_one","0","direct_first","1","ki05er20","0","22","1","1","1","1","null","","","<div style=""font-size:60px;"">+</div>","null","","","","","","","","","",""
"","html-keyboard-response","313","898961","0.0-12.0-1.19","rjyveqyjlq","many_one","0","direct_first","1","ki05er20","0","22","1","1","1","1","null","","","<img src = 'category2/men.png' width = '100%;'>","null","","","","","","","","","",""
"","html-keyboard-response","314","899244","0.0-12.0-2.19","rjyveqyjlq","many_one","0","direct_first","1","ki05er20","0","22","1","1","1","1","null","","","<img src = 'targets/6.png' width = '100%;'>","null","","","","","","","","","",""
"","html-keyboard-response","315","901913","0.0-12.0-3.19","rjyveqyjlq","many_one","0","direct_first","1","ki05er20","0","22","1","1","1","1","2669","","","<img src = 'targets/mask.png' width = '100%;'>","75","pos","GS","abstract","2","category2/men.png","","targets/6.png","indirect","1","43"
"","html-keyboard-response","316","903443","0.0-12.0-0.20","rjyveqyjlq","many_one","0","direct_first","1","ki05er20","0","22","1","1","1","1","null","","","<div style=""font-size:60px;"">+</div>","null","","","","","","","","","",""
"","html-keyboard-response","317","903544","0.0-12.0-1.20","rjyveqyjlq","many_one","0","direct_first","1","ki05er20","0","22","1","1","1","1","null","","","<img src = 'category4/CS2.png' width = '100%;'>","null","","","","","","","","","",""
"","html-keyboard-response","318","903825","0.0-12.0-2.20","rjyveqyjlq","many_one","0","direct_first","1","ki05er20","0","22","1","1","1","1","null","","","<img src = 'targets/13.png' width = '100%;'>","null","","","","","","","","","",""
"","html-keyboard-response","319","905739","0.0-12.0-3.20","rjyveqyjlq","many_one","0","direct_first","1","ki05er20","0","22","1","1","1","1","1913","","","<img src = 'targets/mask.png' width = '100%;'>","75","pos","GS","GSold","4","category4/CS2.png","","targets/13.png","indirect","1","44"
"","html-keyboard-response","320","907254","0.0-12.0-0.21","rjyveqyjlq","many_one","0","direct_first","1","ki05er20","0","22","1","1","1","1","null","","","<div style=""font-size:60px;"">+</div>","null","","","","","","","","","",""
"","html-keyboard-response","321","907354","0.0-12.0-1.21","rjyveqyjlq","many_one","0","direct_first","1","ki05er20","0","22","1","1","1","1","null","","","<img src = 'category3/GS2.png' width = '100%;'>","null","","","","","","","","","",""
"","html-keyboard-response","322","907634","0.0-12.0-2.21","rjyveqyjlq","many_one","0","direct_first","1","ki05er20","0","22","1","1","1","1","null","","","<img src = 'targets/29.png' width = '100%;'>","null","","","","","","","","","",""
"","html-keyboard-response","323","907995","0.0-12.0-3.21","rjyveqyjlq","many_one","0","direct_first","1","ki05er20","0","22","1","1","1","1","361","","","<img src = 'targets/mask.png' width = '100%;'>","68","neg","GS","GSnew","3","category3/GS2.png","","targets/29.png","indirect","0","45"
"","html-keyboard-response","324","909523","0.0-12.0-0.22","rjyveqyjlq","many_one","0","direct_first","1","ki05er20","0","22","1","1","1","1","null","","","<div style=""font-size:60px;"">+</div>","null","","","","","","","","","",""
"","html-keyboard-response","325","909625","0.0-12.0-1.22","rjyveqyjlq","many_one","0","direct_first","1","ki05er20","0","22","1","1","1","1","null","","","<img src = 'category2/GS1.png' width = '100%;'>","null","","","","","","","","","",""
"","html-keyboard-response","326","909904","0.0-12.0-2.22","rjyveqyjlq","many_one","0","direct_first","1","ki05er20","0","22","1","1","1","1","null","","","<img src = 'targets/25.png' width = '100%;'>","null","","","","","","","","","",""
"","html-keyboard-response","327","911459","0.0-12.0-3.22","rjyveqyjlq","many_one","0","direct_first","1","ki05er20","0","22","1","1","1","1","1554","","","<img src = 'targets/mask.png' width = '100%;'>","68","pos","GS","GSnew","2","category2/GS1.png","","targets/25.png","indirect","0","46"
"","html-keyboard-response","328","912984","0.0-12.0-0.23","rjyveqyjlq","many_one","0","direct_first","1","ki05er20","0","22","1","1","1","1","null","","","<div style=""font-size:60px;"">+</div>","null","","","","","","","","","",""
"","html-keyboard-response","329","913084","0.0-12.0-1.23","rjyveqyjlq","many_one","0","direct_first","1","ki05er20","0","22","1","1","1","1","null","","","<img src = 'category3/CS7.png' width = '100%;'>","null","","","","","","","","","",""
"","html-keyboard-response","330","913364","0.0-12.0-2.23","rjyveqyjlq","many_one","0","direct_first","1","ki05er20","0","22","1","1","1","1","null","","","<img src = 'targets/12.png' width = '100%;'>","null","","","","","","","","","",""
"","html-keyboard-response","331","913763","0.0-12.0-3.23","rjyveqyjlq","many_one","0","direct_first","1","ki05er20","0","22","1","1","1","1","398","","","<img src = 'targets/mask.png' width = '100%;'>","68","neg","GS","GSold","3","category3/CS7.png","","targets/12.png","indirect","0","47"
"","survey-html-form","332","920051","0.0-13.0","rjyveqyjlq","many_one","0","direct_first","1","ki05er20","0","22","1","1","1","1","5787","","{}","","","","","","","","","","","",""
"","image-slider-response","333","933506","0.0-14.0-0.0","rjyveqyjlq","many_one","0","direct_first","1","ki05er20","0","22","1","1","1","1","12438","","","","","pos","All","all","2","category2/men_all.png","-8","","all","",""
"","image-slider-response","334","944698","0.0-14.0-0.1","rjyveqyjlq","many_one","0","direct_first","1","ki05er20","0","22","1","1","1","1","11190","","","","","neg","All","all","1","category1/ma_all.png","-100","","all","",""
"","image-slider-response","335","950361","0.0-14.0-0.2","rjyveqyjlq","many_one","0","direct_first","1","ki05er20","0","22","1","1","1","1","5663","","","","","pos","All","all","4","category4/lin_all.png","61","","all","",""
"","image-slider-response","336","952930","0.0-14.0-0.3","rjyveqyjlq","many_one","0","direct_first","1","ki05er20","0","22","1","1","1","1","2566","","","","","neg","All","all","3","category3/wang_all.png","-97","","all","",""
"","survey-text","337","1082818","0.0-15.0","rjyveqyjlq","many_one","0","direct_first","1","ki05er20","0","22","1","1","1","1","129885","","{""Q0"":""Ich empfand sehr viele Zeichen als negativ, da mich die zuvor gezeigten Bilder insgesamt negativ gestimmt haben""}","","","","","","","","","","","",""
