"success","trial_type","trial_index","time_elapsed","internal_node_id","subject","condition","condition_code","measure","measure_code","codeword","gender","age","education","chinese","fach","handedness","comment","hinschauen","ablenkung","gewissenhaft","rt","url","responses","stimulus","key_press","val","type","type_specific","category","cs_selected","response","target","task","indirect","nr_pres"
"true","fullscreen","0","5883","0.0-0.0","juwlz4ru1d","many_one","0","direct_first","1","NA05EA30","2","20","1","1","3","1","","0","1","0","","","","","","","","","","","","","","",""
"","external-html","1","44920","0.0-1.0","juwlz4ru1d","many_one","0","direct_first","1","NA05EA30","2","20","1","1","3","1","","0","1","0","38978","text/information.html","","","","","","","","","","","","",""
"","external-html","2","53131","0.0-2.0","juwlz4ru1d","many_one","0","direct_first","1","NA05EA30","2","20","1","1","3","1","","0","1","0","8127","text/consent.html","","","","","","","","","","","","",""
"","survey-html-form","3","92076","0.0-3.0","juwlz4ru1d","many_one","0","direct_first","1","NA05EA30","2","20","1","1","3","1","","0","1","0","38943","","{""codeword_enter"":""NA05EA30""}","","","","","","","","","","","",""
"","survey-html-form","4","109981","0.0-4.0","juwlz4ru1d","many_one","0","direct_first","1","NA05EA30","2","20","1","1","3","1","","0","1","0","17899","","{""age"":""20"",""education"":""1"",""subject"":""3"",""gender"":""2"",""handedness"":""1"",""chinese"":""1""}","","","","","","","","","","","",""
"","survey-html-form","5","125348","0.0-5.0","juwlz4ru1d","many_one","0","direct_first","1","NA05EA30","2","20","1","1","3","1","","0","1","0","15365","","{}","","","","","","","","","","","",""
"","html-keyboard-response","6","129364","0.0-6.0-0.0-0.0","juwlz4ru1d","many_one","0","direct_first","1","NA05EA30","2","20","1","1","3","1","","0","1","0","null","","","<div class = 'row'><div class = 'column'><img src = 'uspos/1340.bmp' width = '100%;'></div><div class = 'column'><img src = 'category2/CS4.png' width = '70%;'></div></div>","null","pos","CS","CS","2","category2/CS4.png","","","","",""
"","html-keyboard-response","7","131892","0.0-6.0-0.0-0.1","juwlz4ru1d","many_one","0","direct_first","1","NA05EA30","2","20","1","1","3","1","","0","1","0","null","","","<div class = 'row'><div class = 'column'><img src = 'uspos/1710.bmp' width = '100%;'></div><div class = 'column'><img src = 'category2/CS2.png' width = '70%;'></div></div>","null","pos","CS","CS","2","category2/CS2.png","","","","",""
"","html-keyboard-response","8","134418","0.0-6.0-0.0-0.2","juwlz4ru1d","many_one","0","direct_first","1","NA05EA30","2","20","1","1","3","1","","0","1","0","null","","","<div class = 'row'><div class = 'column'><img src = 'category3/CS2.png' width = '70%;'></div><div class = 'column'><img src = 'usneg/9000.bmp' width = '100%;'></div></div>","null","neg","CS","CS","3","category3/CS2.png","","","","",""
"","html-keyboard-response","9","136934","0.0-6.0-0.0-0.3","juwlz4ru1d","many_one","0","direct_first","1","NA05EA30","2","20","1","1","3","1","","0","1","0","null","","","<div class = 'row'><div class = 'column'><img src = 'uspos/5621.bmp' width = '100%;'></div><div class = 'column'><img src = 'category1/CS5.png' width = '70%;'></div></div>","null","pos","CS","CS","1","category1/CS5.png","","","","",""
"","html-keyboard-response","10","139459","0.0-6.0-0.0-0.4","juwlz4ru1d","many_one","0","direct_first","1","NA05EA30","2","20","1","1","3","1","","0","1","0","null","","","<div class = 'row'><div class = 'column'><img src = 'uspos/1460.bmp' width = '100%;'></div><div class = 'column'><img src = 'category1/CS10.png' width = '70%;'></div></div>","null","pos","CS","CS","1","category1/CS10.png","","","","",""
"","html-keyboard-response","11","141967","0.0-6.0-0.0-0.5","juwlz4ru1d","many_one","0","direct_first","1","NA05EA30","2","20","1","1","3","1","","0","1","0","null","","","<div class = 'row'><div class = 'column'><img src = 'category1/CS8.png' width = '70%;'></div><div class = 'column'><img src = 'uspos/7325.bmp' width = '100%;'></div></div>","null","pos","CS","CS","1","category1/CS8.png","","","","",""
"","html-keyboard-response","12","144496","0.0-6.0-0.0-0.6","juwlz4ru1d","many_one","0","direct_first","1","NA05EA30","2","20","1","1","3","1","","0","1","0","null","","","<div class = 'row'><div class = 'column'><img src = 'category1/CS1.png' width = '70%;'></div><div class = 'column'><img src = 'uspos/2057.bmp' width = '100%;'></div></div>","null","pos","CS","CS","1","category1/CS1.png","","","","",""
"","html-keyboard-response","13","147017","0.0-6.0-0.0-0.7","juwlz4ru1d","many_one","0","direct_first","1","NA05EA30","2","20","1","1","3","1","","0","1","0","null","","","<div class = 'row'><div class = 'column'><img src = 'usneg/9404.bmp' width = '100%;'></div><div class = 'column'><img src = 'category3/CS10.png' width = '70%;'></div></div>","null","neg","CS","CS","3","category3/CS10.png","","","","",""
"","html-keyboard-response","14","149540","0.0-6.0-0.0-0.8","juwlz4ru1d","many_one","0","direct_first","1","NA05EA30","2","20","1","1","3","1","","0","1","0","null","","","<div class = 'row'><div class = 'column'><img src = 'usneg/9520.bmp' width = '100%;'></div><div class = 'column'><img src = 'category3/CS4.png' width = '70%;'></div></div>","null","neg","CS","CS","3","category3/CS4.png","","","","",""
"","html-keyboard-response","15","152058","0.0-6.0-0.0-0.9","juwlz4ru1d","many_one","0","direct_first","1","NA05EA30","2","20","1","1","3","1","","0","1","0","null","","","<div class = 'row'><div class = 'column'><img src = 'category1/CS2.png' width = '70%;'></div><div class = 'column'><img src = 'uspos/5470.bmp' width = '100%;'></div></div>","null","pos","CS","CS","1","category1/CS2.png","","","","",""
"","html-keyboard-response","16","154579","0.0-6.0-0.0-0.10","juwlz4ru1d","many_one","0","direct_first","1","NA05EA30","2","20","1","1","3","1","","0","1","0","null","","","<div class = 'row'><div class = 'column'><img src = 'uspos/2208.bmp' width = '100%;'></div><div class = 'column'><img src = 'category2/CS9.png' width = '70%;'></div></div>","null","pos","CS","CS","2","category2/CS9.png","","","","",""
"","html-keyboard-response","17","157095","0.0-6.0-0.0-0.11","juwlz4ru1d","many_one","0","direct_first","1","NA05EA30","2","20","1","1","3","1","","0","1","0","null","","","<div class = 'row'><div class = 'column'><img src = 'category2/CS7.png' width = '70%;'></div><div class = 'column'><img src = 'uspos/8190.bmp' width = '100%;'></div></div>","null","pos","CS","CS","2","category2/CS7.png","","","","",""
"","html-keyboard-response","18","159614","0.0-6.0-0.0-0.12","juwlz4ru1d","many_one","0","direct_first","1","NA05EA30","2","20","1","1","3","1","","0","1","0","null","","","<div class = 'row'><div class = 'column'><img src = 'usneg/9290.bmp' width = '100%;'></div><div class = 'column'><img src = 'category4/CS7.png' width = '70%;'></div></div>","null","neg","CS","CS","4","category4/CS7.png","","","","",""
"","html-keyboard-response","19","162130","0.0-6.0-0.0-0.13","juwlz4ru1d","many_one","0","direct_first","1","NA05EA30","2","20","1","1","3","1","","0","1","0","null","","","<div class = 'row'><div class = 'column'><img src = 'category2/CS5.png' width = '70%;'></div><div class = 'column'><img src = 'uspos/8350.bmp' width = '100%;'></div></div>","null","pos","CS","CS","2","category2/CS5.png","","","","",""
"","html-keyboard-response","20","164653","0.0-6.0-0.0-0.14","juwlz4ru1d","many_one","0","direct_first","1","NA05EA30","2","20","1","1","3","1","","0","1","0","null","","","<div class = 'row'><div class = 'column'><img src = 'category3/CS5.png' width = '70%;'></div><div class = 'column'><img src = 'usneg/9561.bmp' width = '100%;'></div></div>","null","neg","CS","CS","3","category3/CS5.png","","","","",""
"","html-keyboard-response","21","167176","0.0-6.0-0.0-0.15","juwlz4ru1d","many_one","0","direct_first","1","NA05EA30","2","20","1","1","3","1","","0","1","0","null","","","<div class = 'row'><div class = 'column'><img src = 'usneg/2750.bmp' width = '100%;'></div><div class = 'column'><img src = 'category4/CS10.png' width = '70%;'></div></div>","null","neg","CS","CS","4","category4/CS10.png","","","","",""
"","html-keyboard-response","22","169688","0.0-6.0-0.0-0.16","juwlz4ru1d","many_one","0","direct_first","1","NA05EA30","2","20","1","1","3","1","","0","1","0","null","","","<div class = 'row'><div class = 'column'><img src = 'category4/CS9.png' width = '70%;'></div><div class = 'column'><img src = 'usneg/9182.bmp' width = '100%;'></div></div>","null","neg","CS","CS","4","category4/CS9.png","","","","",""
"","html-keyboard-response","23","172206","0.0-6.0-0.0-0.17","juwlz4ru1d","many_one","0","direct_first","1","NA05EA30","2","20","1","1","3","1","","0","1","0","null","","","<div class = 'row'><div class = 'column'><img src = 'usneg/9584.bmp' width = '100%;'></div><div class = 'column'><img src = 'category3/CS7.png' width = '70%;'></div></div>","null","neg","CS","CS","3","category3/CS7.png","","","","",""
"","html-keyboard-response","24","174729","0.0-6.0-0.0-0.18","juwlz4ru1d","many_one","0","direct_first","1","NA05EA30","2","20","1","1","3","1","","0","1","0","null","","","<div class = 'row'><div class = 'column'><img src = 'usneg/9560.bmp' width = '100%;'></div><div class = 'column'><img src = 'category4/CS4.png' width = '70%;'></div></div>","null","neg","CS","CS","4","category4/CS4.png","","","","",""
"","html-keyboard-response","25","177257","0.0-6.0-0.0-0.19","juwlz4ru1d","many_one","0","direct_first","1","NA05EA30","2","20","1","1","3","1","","0","1","0","null","","","<div class = 'row'><div class = 'column'><img src = 'usneg/9041.bmp' width = '100%;'></div><div class = 'column'><img src = 'category4/CS3.png' width = '70%;'></div></div>","null","neg","CS","CS","4","category4/CS3.png","","","","",""
"","survey-html-form","26","182524","0.0-6.0-1.0","juwlz4ru1d","many_one","0","direct_first","1","NA05EA30","2","20","1","1","3","1","","0","1","0","4765","","{}","","","","","","","","","","","",""
"","html-keyboard-response","27","186530","0.0-6.0-2.0-0.0","juwlz4ru1d","many_one","0","direct_first","1","NA05EA30","2","20","1","1","3","1","","0","1","0","null","","","<div class = 'row'><div class = 'column'><img src = 'category1/CS2.png' width = '70%;'></div><div class = 'column'><img src = 'uspos/5470.bmp' width = '100%;'></div></div>","null","pos","CS","CS","1","category1/CS2.png","","","","",""
"","html-keyboard-response","28","189049","0.0-6.0-2.0-0.1","juwlz4ru1d","many_one","0","direct_first","1","NA05EA30","2","20","1","1","3","1","","0","1","0","null","","","<div class = 'row'><div class = 'column'><img src = 'category1/CS10.png' width = '70%;'></div><div class = 'column'><img src = 'uspos/1460.bmp' width = '100%;'></div></div>","null","pos","CS","CS","1","category1/CS10.png","","","","",""
"","html-keyboard-response","29","191571","0.0-6.0-2.0-0.2","juwlz4ru1d","many_one","0","direct_first","1","NA05EA30","2","20","1","1","3","1","","0","1","0","null","","","<div class = 'row'><div class = 'column'><img src = 'category2/CS5.png' width = '70%;'></div><div class = 'column'><img src = 'uspos/8350.bmp' width = '100%;'></div></div>","null","pos","CS","CS","2","category2/CS5.png","","","","",""
"","html-keyboard-response","30","194092","0.0-6.0-2.0-0.3","juwlz4ru1d","many_one","0","direct_first","1","NA05EA30","2","20","1","1","3","1","","0","1","0","null","","","<div class = 'row'><div class = 'column'><img src = 'usneg/9290.bmp' width = '100%;'></div><div class = 'column'><img src = 'category4/CS7.png' width = '70%;'></div></div>","null","neg","CS","CS","4","category4/CS7.png","","","","",""
"","html-keyboard-response","31","196610","0.0-6.0-2.0-0.4","juwlz4ru1d","many_one","0","direct_first","1","NA05EA30","2","20","1","1","3","1","","0","1","0","null","","","<div class = 'row'><div class = 'column'><img src = 'uspos/2057.bmp' width = '100%;'></div><div class = 'column'><img src = 'category1/CS1.png' width = '70%;'></div></div>","null","pos","CS","CS","1","category1/CS1.png","","","","",""
"","html-keyboard-response","32","199127","0.0-6.0-2.0-0.5","juwlz4ru1d","many_one","0","direct_first","1","NA05EA30","2","20","1","1","3","1","","0","1","0","null","","","<div class = 'row'><div class = 'column'><img src = 'category3/CS4.png' width = '70%;'></div><div class = 'column'><img src = 'usneg/9520.bmp' width = '100%;'></div></div>","null","neg","CS","CS","3","category3/CS4.png","","","","",""
"","html-keyboard-response","33","201656","0.0-6.0-2.0-0.6","juwlz4ru1d","many_one","0","direct_first","1","NA05EA30","2","20","1","1","3","1","","0","1","0","null","","","<div class = 'row'><div class = 'column'><img src = 'uspos/1710.bmp' width = '100%;'></div><div class = 'column'><img src = 'category2/CS2.png' width = '70%;'></div></div>","null","pos","CS","CS","2","category2/CS2.png","","","","",""
"","html-keyboard-response","34","204169","0.0-6.0-2.0-0.7","juwlz4ru1d","many_one","0","direct_first","1","NA05EA30","2","20","1","1","3","1","","0","1","0","null","","","<div class = 'row'><div class = 'column'><img src = 'category4/CS4.png' width = '70%;'></div><div class = 'column'><img src = 'usneg/9560.bmp' width = '100%;'></div></div>","null","neg","CS","CS","4","category4/CS4.png","","","","",""
"","html-keyboard-response","35","206695","0.0-6.0-2.0-0.8","juwlz4ru1d","many_one","0","direct_first","1","NA05EA30","2","20","1","1","3","1","","0","1","0","null","","","<div class = 'row'><div class = 'column'><img src = 'category3/CS10.png' width = '70%;'></div><div class = 'column'><img src = 'usneg/9404.bmp' width = '100%;'></div></div>","null","neg","CS","CS","3","category3/CS10.png","","","","",""
"","html-keyboard-response","36","209213","0.0-6.0-2.0-0.9","juwlz4ru1d","many_one","0","direct_first","1","NA05EA30","2","20","1","1","3","1","","0","1","0","null","","","<div class = 'row'><div class = 'column'><img src = 'uspos/7325.bmp' width = '100%;'></div><div class = 'column'><img src = 'category1/CS8.png' width = '70%;'></div></div>","null","pos","CS","CS","1","category1/CS8.png","","","","",""
"","html-keyboard-response","37","211731","0.0-6.0-2.0-0.10","juwlz4ru1d","many_one","0","direct_first","1","NA05EA30","2","20","1","1","3","1","","0","1","0","null","","","<div class = 'row'><div class = 'column'><img src = 'usneg/9000.bmp' width = '100%;'></div><div class = 'column'><img src = 'category3/CS2.png' width = '70%;'></div></div>","null","neg","CS","CS","3","category3/CS2.png","","","","",""
"","html-keyboard-response","38","214252","0.0-6.0-2.0-0.11","juwlz4ru1d","many_one","0","direct_first","1","NA05EA30","2","20","1","1","3","1","","0","1","0","null","","","<div class = 'row'><div class = 'column'><img src = 'uspos/1340.bmp' width = '100%;'></div><div class = 'column'><img src = 'category2/CS4.png' width = '70%;'></div></div>","null","pos","CS","CS","2","category2/CS4.png","","","","",""
"","html-keyboard-response","39","216779","0.0-6.0-2.0-0.12","juwlz4ru1d","many_one","0","direct_first","1","NA05EA30","2","20","1","1","3","1","","0","1","0","null","","","<div class = 'row'><div class = 'column'><img src = 'usneg/9584.bmp' width = '100%;'></div><div class = 'column'><img src = 'category3/CS7.png' width = '70%;'></div></div>","null","neg","CS","CS","3","category3/CS7.png","","","","",""
"","html-keyboard-response","40","219306","0.0-6.0-2.0-0.13","juwlz4ru1d","many_one","0","direct_first","1","NA05EA30","2","20","1","1","3","1","","0","1","0","null","","","<div class = 'row'><div class = 'column'><img src = 'usneg/9561.bmp' width = '100%;'></div><div class = 'column'><img src = 'category3/CS5.png' width = '70%;'></div></div>","null","neg","CS","CS","3","category3/CS5.png","","","","",""
"","html-keyboard-response","41","221824","0.0-6.0-2.0-0.14","juwlz4ru1d","many_one","0","direct_first","1","NA05EA30","2","20","1","1","3","1","","0","1","0","null","","","<div class = 'row'><div class = 'column'><img src = 'category4/CS9.png' width = '70%;'></div><div class = 'column'><img src = 'usneg/9182.bmp' width = '100%;'></div></div>","null","neg","CS","CS","4","category4/CS9.png","","","","",""
"","html-keyboard-response","42","224345","0.0-6.0-2.0-0.15","juwlz4ru1d","many_one","0","direct_first","1","NA05EA30","2","20","1","1","3","1","","0","1","0","null","","","<div class = 'row'><div class = 'column'><img src = 'category2/CS9.png' width = '70%;'></div><div class = 'column'><img src = 'uspos/2208.bmp' width = '100%;'></div></div>","null","pos","CS","CS","2","category2/CS9.png","","","","",""
"","html-keyboard-response","43","226856","0.0-6.0-2.0-0.16","juwlz4ru1d","many_one","0","direct_first","1","NA05EA30","2","20","1","1","3","1","","0","1","0","null","","","<div class = 'row'><div class = 'column'><img src = 'usneg/2750.bmp' width = '100%;'></div><div class = 'column'><img src = 'category4/CS10.png' width = '70%;'></div></div>","null","neg","CS","CS","4","category4/CS10.png","","","","",""
"","html-keyboard-response","44","229362","0.0-6.0-2.0-0.17","juwlz4ru1d","many_one","0","direct_first","1","NA05EA30","2","20","1","1","3","1","","0","1","0","null","","","<div class = 'row'><div class = 'column'><img src = 'uspos/8190.bmp' width = '100%;'></div><div class = 'column'><img src = 'category2/CS7.png' width = '70%;'></div></div>","null","pos","CS","CS","2","category2/CS7.png","","","","",""
"","html-keyboard-response","45","231882","0.0-6.0-2.0-0.18","juwlz4ru1d","many_one","0","direct_first","1","NA05EA30","2","20","1","1","3","1","","0","1","0","null","","","<div class = 'row'><div class = 'column'><img src = 'uspos/5621.bmp' width = '100%;'></div><div class = 'column'><img src = 'category1/CS5.png' width = '70%;'></div></div>","null","pos","CS","CS","1","category1/CS5.png","","","","",""
"","html-keyboard-response","46","234392","0.0-6.0-2.0-0.19","juwlz4ru1d","many_one","0","direct_first","1","NA05EA30","2","20","1","1","3","1","","0","1","0","null","","","<div class = 'row'><div class = 'column'><img src = 'category4/CS3.png' width = '70%;'></div><div class = 'column'><img src = 'usneg/9041.bmp' width = '100%;'></div></div>","null","neg","CS","CS","4","category4/CS3.png","","","","",""
"","survey-html-form","47","237947","0.0-6.0-3.0","juwlz4ru1d","many_one","0","direct_first","1","NA05EA30","2","20","1","1","3","1","","0","1","0","3039","","{}","","","","","","","","","","","",""
"","html-keyboard-response","48","241960","0.0-6.0-4.0-0.0","juwlz4ru1d","many_one","0","direct_first","1","NA05EA30","2","20","1","1","3","1","","0","1","0","null","","","<div class = 'row'><div class = 'column'><img src = 'category4/CS10.png' width = '70%;'></div><div class = 'column'><img src = 'usneg/2750.bmp' width = '100%;'></div></div>","null","neg","CS","CS","4","category4/CS10.png","","","","",""
"","html-keyboard-response","49","244477","0.0-6.0-4.0-0.1","juwlz4ru1d","many_one","0","direct_first","1","NA05EA30","2","20","1","1","3","1","","0","1","0","null","","","<div class = 'row'><div class = 'column'><img src = 'category1/CS5.png' width = '70%;'></div><div class = 'column'><img src = 'uspos/5621.bmp' width = '100%;'></div></div>","null","pos","CS","CS","1","category1/CS5.png","","","","",""
"","html-keyboard-response","50","247005","0.0-6.0-4.0-0.2","juwlz4ru1d","many_one","0","direct_first","1","NA05EA30","2","20","1","1","3","1","","0","1","0","null","","","<div class = 'row'><div class = 'column'><img src = 'uspos/2057.bmp' width = '100%;'></div><div class = 'column'><img src = 'category1/CS1.png' width = '70%;'></div></div>","null","pos","CS","CS","1","category1/CS1.png","","","","",""
"","html-keyboard-response","51","249533","0.0-6.0-4.0-0.3","juwlz4ru1d","many_one","0","direct_first","1","NA05EA30","2","20","1","1","3","1","","0","1","0","null","","","<div class = 'row'><div class = 'column'><img src = 'category2/CS2.png' width = '70%;'></div><div class = 'column'><img src = 'uspos/1710.bmp' width = '100%;'></div></div>","null","pos","CS","CS","2","category2/CS2.png","","","","",""
"","html-keyboard-response","52","252051","0.0-6.0-4.0-0.4","juwlz4ru1d","many_one","0","direct_first","1","NA05EA30","2","20","1","1","3","1","","0","1","0","null","","","<div class = 'row'><div class = 'column'><img src = 'category3/CS4.png' width = '70%;'></div><div class = 'column'><img src = 'usneg/9520.bmp' width = '100%;'></div></div>","null","neg","CS","CS","3","category3/CS4.png","","","","",""
"","html-keyboard-response","53","254583","0.0-6.0-4.0-0.5","juwlz4ru1d","many_one","0","direct_first","1","NA05EA30","2","20","1","1","3","1","","0","1","0","null","","","<div class = 'row'><div class = 'column'><img src = 'usneg/9290.bmp' width = '100%;'></div><div class = 'column'><img src = 'category4/CS7.png' width = '70%;'></div></div>","null","neg","CS","CS","4","category4/CS7.png","","","","",""
"","html-keyboard-response","54","257107","0.0-6.0-4.0-0.6","juwlz4ru1d","many_one","0","direct_first","1","NA05EA30","2","20","1","1","3","1","","0","1","0","null","","","<div class = 'row'><div class = 'column'><img src = 'uspos/7325.bmp' width = '100%;'></div><div class = 'column'><img src = 'category1/CS8.png' width = '70%;'></div></div>","null","pos","CS","CS","1","category1/CS8.png","","","","",""
"","html-keyboard-response","55","259632","0.0-6.0-4.0-0.7","juwlz4ru1d","many_one","0","direct_first","1","NA05EA30","2","20","1","1","3","1","","0","1","0","null","","","<div class = 'row'><div class = 'column'><img src = 'uspos/5470.bmp' width = '100%;'></div><div class = 'column'><img src = 'category1/CS2.png' width = '70%;'></div></div>","null","pos","CS","CS","1","category1/CS2.png","","","","",""
"","html-keyboard-response","56","262154","0.0-6.0-4.0-0.8","juwlz4ru1d","many_one","0","direct_first","1","NA05EA30","2","20","1","1","3","1","","0","1","0","null","","","<div class = 'row'><div class = 'column'><img src = 'category2/CS7.png' width = '70%;'></div><div class = 'column'><img src = 'uspos/8190.bmp' width = '100%;'></div></div>","null","pos","CS","CS","2","category2/CS7.png","","","","",""
"","html-keyboard-response","57","264676","0.0-6.0-4.0-0.9","juwlz4ru1d","many_one","0","direct_first","1","NA05EA30","2","20","1","1","3","1","","0","1","0","null","","","<div class = 'row'><div class = 'column'><img src = 'category2/CS9.png' width = '70%;'></div><div class = 'column'><img src = 'uspos/2208.bmp' width = '100%;'></div></div>","null","pos","CS","CS","2","category2/CS9.png","","","","",""
"","html-keyboard-response","58","267201","0.0-6.0-4.0-0.10","juwlz4ru1d","many_one","0","direct_first","1","NA05EA30","2","20","1","1","3","1","","0","1","0","null","","","<div class = 'row'><div class = 'column'><img src = 'category3/CS7.png' width = '70%;'></div><div class = 'column'><img src = 'usneg/9584.bmp' width = '100%;'></div></div>","null","neg","CS","CS","3","category3/CS7.png","","","","",""
"","html-keyboard-response","59","269723","0.0-6.0-4.0-0.11","juwlz4ru1d","many_one","0","direct_first","1","NA05EA30","2","20","1","1","3","1","","0","1","0","null","","","<div class = 'row'><div class = 'column'><img src = 'category3/CS2.png' width = '70%;'></div><div class = 'column'><img src = 'usneg/9000.bmp' width = '100%;'></div></div>","null","neg","CS","CS","3","category3/CS2.png","","","","",""
"","html-keyboard-response","60","272239","0.0-6.0-4.0-0.12","juwlz4ru1d","many_one","0","direct_first","1","NA05EA30","2","20","1","1","3","1","","0","1","0","null","","","<div class = 'row'><div class = 'column'><img src = 'category3/CS5.png' width = '70%;'></div><div class = 'column'><img src = 'usneg/9561.bmp' width = '100%;'></div></div>","null","neg","CS","CS","3","category3/CS5.png","","","","",""
"","html-keyboard-response","61","274761","0.0-6.0-4.0-0.13","juwlz4ru1d","many_one","0","direct_first","1","NA05EA30","2","20","1","1","3","1","","0","1","0","null","","","<div class = 'row'><div class = 'column'><img src = 'uspos/1460.bmp' width = '100%;'></div><div class = 'column'><img src = 'category1/CS10.png' width = '70%;'></div></div>","null","pos","CS","CS","1","category1/CS10.png","","","","",""
"","html-keyboard-response","62","277291","0.0-6.0-4.0-0.14","juwlz4ru1d","many_one","0","direct_first","1","NA05EA30","2","20","1","1","3","1","","0","1","0","null","","","<div class = 'row'><div class = 'column'><img src = 'usneg/9404.bmp' width = '100%;'></div><div class = 'column'><img src = 'category3/CS10.png' width = '70%;'></div></div>","null","neg","CS","CS","3","category3/CS10.png","","","","",""
"","html-keyboard-response","63","279822","0.0-6.0-4.0-0.15","juwlz4ru1d","many_one","0","direct_first","1","NA05EA30","2","20","1","1","3","1","","0","1","0","null","","","<div class = 'row'><div class = 'column'><img src = 'category2/CS5.png' width = '70%;'></div><div class = 'column'><img src = 'uspos/8350.bmp' width = '100%;'></div></div>","null","pos","CS","CS","2","category2/CS5.png","","","","",""
"","html-keyboard-response","64","282349","0.0-6.0-4.0-0.16","juwlz4ru1d","many_one","0","direct_first","1","NA05EA30","2","20","1","1","3","1","","0","1","0","null","","","<div class = 'row'><div class = 'column'><img src = 'category4/CS9.png' width = '70%;'></div><div class = 'column'><img src = 'usneg/9182.bmp' width = '100%;'></div></div>","null","neg","CS","CS","4","category4/CS9.png","","","","",""
"","html-keyboard-response","65","284857","0.0-6.0-4.0-0.17","juwlz4ru1d","many_one","0","direct_first","1","NA05EA30","2","20","1","1","3","1","","0","1","0","null","","","<div class = 'row'><div class = 'column'><img src = 'usneg/9041.bmp' width = '100%;'></div><div class = 'column'><img src = 'category4/CS3.png' width = '70%;'></div></div>","null","neg","CS","CS","4","category4/CS3.png","","","","",""
"","html-keyboard-response","66","287382","0.0-6.0-4.0-0.18","juwlz4ru1d","many_one","0","direct_first","1","NA05EA30","2","20","1","1","3","1","","0","1","0","null","","","<div class = 'row'><div class = 'column'><img src = 'category4/CS4.png' width = '70%;'></div><div class = 'column'><img src = 'usneg/9560.bmp' width = '100%;'></div></div>","null","neg","CS","CS","4","category4/CS4.png","","","","",""
"","html-keyboard-response","67","289890","0.0-6.0-4.0-0.19","juwlz4ru1d","many_one","0","direct_first","1","NA05EA30","2","20","1","1","3","1","","0","1","0","null","","","<div class = 'row'><div class = 'column'><img src = 'category2/CS4.png' width = '70%;'></div><div class = 'column'><img src = 'uspos/1340.bmp' width = '100%;'></div></div>","null","pos","CS","CS","2","category2/CS4.png","","","","",""
"","survey-html-form","68","295273","0.0-6.0-5.0","juwlz4ru1d","many_one","0","direct_first","1","NA05EA30","2","20","1","1","3","1","","0","1","0","4872","","{}","","","","","","","","","","","",""
"","html-keyboard-response","69","299299","0.0-6.0-6.0-0.0","juwlz4ru1d","many_one","0","direct_first","1","NA05EA30","2","20","1","1","3","1","","0","1","0","null","","","<div class = 'row'><div class = 'column'><img src = 'usneg/9561.bmp' width = '100%;'></div><div class = 'column'><img src = 'category3/CS5.png' width = '70%;'></div></div>","null","neg","CS","CS","3","category3/CS5.png","","","","",""
"","html-keyboard-response","70","301818","0.0-6.0-6.0-0.1","juwlz4ru1d","many_one","0","direct_first","1","NA05EA30","2","20","1","1","3","1","","0","1","0","null","","","<div class = 'row'><div class = 'column'><img src = 'category3/CS7.png' width = '70%;'></div><div class = 'column'><img src = 'usneg/9584.bmp' width = '100%;'></div></div>","null","neg","CS","CS","3","category3/CS7.png","","","","",""
"","html-keyboard-response","71","304341","0.0-6.0-6.0-0.2","juwlz4ru1d","many_one","0","direct_first","1","NA05EA30","2","20","1","1","3","1","","0","1","0","null","","","<div class = 'row'><div class = 'column'><img src = 'category2/CS2.png' width = '70%;'></div><div class = 'column'><img src = 'uspos/1710.bmp' width = '100%;'></div></div>","null","pos","CS","CS","2","category2/CS2.png","","","","",""
"","html-keyboard-response","72","306864","0.0-6.0-6.0-0.3","juwlz4ru1d","many_one","0","direct_first","1","NA05EA30","2","20","1","1","3","1","","0","1","0","null","","","<div class = 'row'><div class = 'column'><img src = 'category4/CS4.png' width = '70%;'></div><div class = 'column'><img src = 'usneg/9560.bmp' width = '100%;'></div></div>","null","neg","CS","CS","4","category4/CS4.png","","","","",""
"","html-keyboard-response","73","309396","0.0-6.0-6.0-0.4","juwlz4ru1d","many_one","0","direct_first","1","NA05EA30","2","20","1","1","3","1","","0","1","0","null","","","<div class = 'row'><div class = 'column'><img src = 'usneg/9000.bmp' width = '100%;'></div><div class = 'column'><img src = 'category3/CS2.png' width = '70%;'></div></div>","null","neg","CS","CS","3","category3/CS2.png","","","","",""
"","html-keyboard-response","74","311916","0.0-6.0-6.0-0.5","juwlz4ru1d","many_one","0","direct_first","1","NA05EA30","2","20","1","1","3","1","","0","1","0","null","","","<div class = 'row'><div class = 'column'><img src = 'usneg/9290.bmp' width = '100%;'></div><div class = 'column'><img src = 'category4/CS7.png' width = '70%;'></div></div>","null","neg","CS","CS","4","category4/CS7.png","","","","",""
"","html-keyboard-response","75","314431","0.0-6.0-6.0-0.6","juwlz4ru1d","many_one","0","direct_first","1","NA05EA30","2","20","1","1","3","1","","0","1","0","null","","","<div class = 'row'><div class = 'column'><img src = 'category2/CS7.png' width = '70%;'></div><div class = 'column'><img src = 'uspos/8190.bmp' width = '100%;'></div></div>","null","pos","CS","CS","2","category2/CS7.png","","","","",""
"","html-keyboard-response","76","316948","0.0-6.0-6.0-0.7","juwlz4ru1d","many_one","0","direct_first","1","NA05EA30","2","20","1","1","3","1","","0","1","0","null","","","<div class = 'row'><div class = 'column'><img src = 'category3/CS4.png' width = '70%;'></div><div class = 'column'><img src = 'usneg/9520.bmp' width = '100%;'></div></div>","null","neg","CS","CS","3","category3/CS4.png","","","","",""
"","html-keyboard-response","77","319465","0.0-6.0-6.0-0.8","juwlz4ru1d","many_one","0","direct_first","1","NA05EA30","2","20","1","1","3","1","","0","1","0","null","","","<div class = 'row'><div class = 'column'><img src = 'category1/CS5.png' width = '70%;'></div><div class = 'column'><img src = 'uspos/5621.bmp' width = '100%;'></div></div>","null","pos","CS","CS","1","category1/CS5.png","","","","",""
"","html-keyboard-response","78","321977","0.0-6.0-6.0-0.9","juwlz4ru1d","many_one","0","direct_first","1","NA05EA30","2","20","1","1","3","1","","0","1","0","null","","","<div class = 'row'><div class = 'column'><img src = 'usneg/2750.bmp' width = '100%;'></div><div class = 'column'><img src = 'category4/CS10.png' width = '70%;'></div></div>","null","neg","CS","CS","4","category4/CS10.png","","","","",""
"","html-keyboard-response","79","324490","0.0-6.0-6.0-0.10","juwlz4ru1d","many_one","0","direct_first","1","NA05EA30","2","20","1","1","3","1","","0","1","0","null","","","<div class = 'row'><div class = 'column'><img src = 'uspos/2057.bmp' width = '100%;'></div><div class = 'column'><img src = 'category1/CS1.png' width = '70%;'></div></div>","null","pos","CS","CS","1","category1/CS1.png","","","","",""
"","html-keyboard-response","80","327016","0.0-6.0-6.0-0.11","juwlz4ru1d","many_one","0","direct_first","1","NA05EA30","2","20","1","1","3","1","","0","1","0","null","","","<div class = 'row'><div class = 'column'><img src = 'uspos/1460.bmp' width = '100%;'></div><div class = 'column'><img src = 'category1/CS10.png' width = '70%;'></div></div>","null","pos","CS","CS","1","category1/CS10.png","","","","",""
"","html-keyboard-response","81","329533","0.0-6.0-6.0-0.12","juwlz4ru1d","many_one","0","direct_first","1","NA05EA30","2","20","1","1","3","1","","0","1","0","null","","","<div class = 'row'><div class = 'column'><img src = 'category4/CS3.png' width = '70%;'></div><div class = 'column'><img src = 'usneg/9041.bmp' width = '100%;'></div></div>","null","neg","CS","CS","4","category4/CS3.png","","","","",""
"","html-keyboard-response","82","332046","0.0-6.0-6.0-0.13","juwlz4ru1d","many_one","0","direct_first","1","NA05EA30","2","20","1","1","3","1","","0","1","0","null","","","<div class = 'row'><div class = 'column'><img src = 'usneg/9182.bmp' width = '100%;'></div><div class = 'column'><img src = 'category4/CS9.png' width = '70%;'></div></div>","null","neg","CS","CS","4","category4/CS9.png","","","","",""
"","html-keyboard-response","83","334568","0.0-6.0-6.0-0.14","juwlz4ru1d","many_one","0","direct_first","1","NA05EA30","2","20","1","1","3","1","","0","1","0","null","","","<div class = 'row'><div class = 'column'><img src = 'category3/CS10.png' width = '70%;'></div><div class = 'column'><img src = 'usneg/9404.bmp' width = '100%;'></div></div>","null","neg","CS","CS","3","category3/CS10.png","","","","",""
"","html-keyboard-response","84","337086","0.0-6.0-6.0-0.15","juwlz4ru1d","many_one","0","direct_first","1","NA05EA30","2","20","1","1","3","1","","0","1","0","null","","","<div class = 'row'><div class = 'column'><img src = 'uspos/7325.bmp' width = '100%;'></div><div class = 'column'><img src = 'category1/CS8.png' width = '70%;'></div></div>","null","pos","CS","CS","1","category1/CS8.png","","","","",""
"","html-keyboard-response","85","339614","0.0-6.0-6.0-0.16","juwlz4ru1d","many_one","0","direct_first","1","NA05EA30","2","20","1","1","3","1","","0","1","0","null","","","<div class = 'row'><div class = 'column'><img src = 'uspos/8350.bmp' width = '100%;'></div><div class = 'column'><img src = 'category2/CS5.png' width = '70%;'></div></div>","null","pos","CS","CS","2","category2/CS5.png","","","","",""
"","html-keyboard-response","86","342128","0.0-6.0-6.0-0.17","juwlz4ru1d","many_one","0","direct_first","1","NA05EA30","2","20","1","1","3","1","","0","1","0","null","","","<div class = 'row'><div class = 'column'><img src = 'category1/CS2.png' width = '70%;'></div><div class = 'column'><img src = 'uspos/5470.bmp' width = '100%;'></div></div>","null","pos","CS","CS","1","category1/CS2.png","","","","",""
"","html-keyboard-response","87","344639","0.0-6.0-6.0-0.18","juwlz4ru1d","many_one","0","direct_first","1","NA05EA30","2","20","1","1","3","1","","0","1","0","null","","","<div class = 'row'><div class = 'column'><img src = 'category2/CS9.png' width = '70%;'></div><div class = 'column'><img src = 'uspos/2208.bmp' width = '100%;'></div></div>","null","pos","CS","CS","2","category2/CS9.png","","","","",""
"","html-keyboard-response","88","347154","0.0-6.0-6.0-0.19","juwlz4ru1d","many_one","0","direct_first","1","NA05EA30","2","20","1","1","3","1","","0","1","0","null","","","<div class = 'row'><div class = 'column'><img src = 'uspos/1340.bmp' width = '100%;'></div><div class = 'column'><img src = 'category2/CS4.png' width = '70%;'></div></div>","null","pos","CS","CS","2","category2/CS4.png","","","","",""
"","survey-html-form","89","356309","0.0-7.0","juwlz4ru1d","many_one","0","direct_first","1","NA05EA30","2","20","1","1","3","1","","0","1","0","8643","","{}","","","","","","","","","","","",""
"","image-slider-response","90","363939","0.0-8.0-0.0","juwlz4ru1d","many_one","0","direct_first","1","NA05EA30","2","20","1","1","3","1","","0","1","0","5613","","","","","pos","GS","GSold","2","category2/CS6.png","38","targets/20.png","direct","",""
"","image-slider-response","91","372650","0.0-8.0-0.1","juwlz4ru1d","many_one","0","direct_first","1","NA05EA30","2","20","1","1","3","1","","0","1","0","8708","","","","","neg","CS","CS","4","category4/CS10.png","26","targets/37.png","direct","",""
"","image-slider-response","92","375404","0.0-8.0-0.2","juwlz4ru1d","many_one","0","direct_first","1","NA05EA30","2","20","1","1","3","1","","0","1","0","2751","","","","","neg","GS","GSnew","3","category3/GS3.png","-63","targets/2.png","direct","",""
"","image-slider-response","93","377831","0.0-8.0-0.3","juwlz4ru1d","many_one","0","direct_first","1","NA05EA30","2","20","1","1","3","1","","0","1","0","2425","","","","","neg","CS","CS","3","category3/CS2.png","-61","targets/41.png","direct","",""
"","image-slider-response","94","382598","0.0-8.0-0.4","juwlz4ru1d","many_one","0","direct_first","1","NA05EA30","2","20","1","1","3","1","","0","1","0","4764","","","","","pos","CS","CS","1","category1/CS5.png","0","targets/18.png","direct","",""
"","image-slider-response","95","390652","0.0-8.0-0.5","juwlz4ru1d","many_one","0","direct_first","1","NA05EA30","2","20","1","1","3","1","","0","1","0","8050","","","","","neg","GS","abstract","4","category4/lin.png","-7","targets/24.png","direct","",""
"","image-slider-response","96","393453","0.0-8.0-0.6","juwlz4ru1d","many_one","0","direct_first","1","NA05EA30","2","20","1","1","3","1","","0","1","0","2799","","","","","neg","GS","GSnew","3","category3/GS2.png","-73","targets/9.png","direct","",""
"","image-slider-response","97","397635","0.0-8.0-0.7","juwlz4ru1d","many_one","0","direct_first","1","NA05EA30","2","20","1","1","3","1","","0","1","0","4179","","","","","neg","GS","GSnew","4","category4/GS3.png","-23","targets/29.png","direct","",""
"","image-slider-response","98","400407","0.0-8.0-0.8","juwlz4ru1d","many_one","0","direct_first","1","NA05EA30","2","20","1","1","3","1","","0","1","0","2769","","","","","neg","GS","GSold","3","category3/CS6.png","-75","targets/26.png","direct","",""
"","image-slider-response","99","406022","0.0-8.0-0.9","juwlz4ru1d","many_one","0","direct_first","1","NA05EA30","2","20","1","1","3","1","","0","1","0","5613","","","","","neg","GS","GSold","4","category4/CS5.png","-19","targets/31.png","direct","",""
"","image-slider-response","100","413130","0.0-8.0-0.10","juwlz4ru1d","many_one","0","direct_first","1","NA05EA30","2","20","1","1","3","1","","0","1","0","7104","","","","","pos","GS","GSnew","2","category2/GS2.png","40","targets/10.png","direct","",""
"","image-slider-response","101","416570","0.0-8.0-0.11","juwlz4ru1d","many_one","0","direct_first","1","NA05EA30","2","20","1","1","3","1","","0","1","0","3437","","","","","neg","GS","GSnew","4","category4/GS1.png","52","targets/36.png","direct","",""
"","image-slider-response","102","423570","0.0-8.0-0.12","juwlz4ru1d","many_one","0","direct_first","1","NA05EA30","2","20","1","1","3","1","","0","1","0","6998","","","","","neg","CS","CS","4","category4/CS3.png","-5","targets/3.png","direct","",""
"","image-slider-response","103","429274","0.0-8.0-0.13","juwlz4ru1d","many_one","0","direct_first","1","NA05EA30","2","20","1","1","3","1","","0","1","0","5702","","","","","pos","CS","CS","2","category2/CS2.png","88","targets/46.png","direct","",""
"","image-slider-response","104","433712","0.0-8.0-0.14","juwlz4ru1d","many_one","0","direct_first","1","NA05EA30","2","20","1","1","3","1","","0","1","0","4434","","","","","pos","GS","abstract","1","category1/ma.png","-17","targets/14.png","direct","",""
"","image-slider-response","105","438905","0.0-8.0-0.15","juwlz4ru1d","many_one","0","direct_first","1","NA05EA30","2","20","1","1","3","1","","0","1","0","5191","","","","","pos","CS","CS","1","category1/CS2.png","-3","targets/19.png","direct","",""
"","image-slider-response","106","442463","0.0-8.0-0.16","juwlz4ru1d","many_one","0","direct_first","1","NA05EA30","2","20","1","1","3","1","","0","1","0","3555","","","","","pos","GS","GSold","1","category1/CS4.png","1","targets/17.png","direct","",""
"","image-slider-response","107","450155","0.0-8.0-0.17","juwlz4ru1d","many_one","0","direct_first","1","NA05EA30","2","20","1","1","3","1","","0","1","0","7688","","","","","neg","CS","CS","3","category3/CS5.png","-35","targets/33.png","direct","",""
"","image-slider-response","108","452508","0.0-8.0-0.18","juwlz4ru1d","many_one","0","direct_first","1","NA05EA30","2","20","1","1","3","1","","0","1","0","2352","","","","","pos","CS","CS","2","category2/CS5.png","24","targets/23.png","direct","",""
"","image-slider-response","109","455495","0.0-8.0-0.19","juwlz4ru1d","many_one","0","direct_first","1","NA05EA30","2","20","1","1","3","1","","0","1","0","2984","","","","","pos","CS","CS","2","category2/CS9.png","22","targets/38.png","direct","",""
"","image-slider-response","110","458845","0.0-8.0-0.20","juwlz4ru1d","many_one","0","direct_first","1","NA05EA30","2","20","1","1","3","1","","0","1","0","3347","","","","","neg","GS","GSold","4","category4/CS6.png","-15","targets/13.png","direct","",""
"","image-slider-response","111","462075","0.0-8.0-0.21","juwlz4ru1d","many_one","0","direct_first","1","NA05EA30","2","20","1","1","3","1","","0","1","0","3227","","","","","pos","CS","CS","2","category2/CS7.png","28","targets/21.png","direct","",""
"","image-slider-response","112","464683","0.0-8.0-0.22","juwlz4ru1d","many_one","0","direct_first","1","NA05EA30","2","20","1","1","3","1","","0","1","0","2606","","","","","neg","CS","CS","3","category3/CS4.png","-67","targets/39.png","direct","",""
"","image-slider-response","113","467154","0.0-8.0-0.23","juwlz4ru1d","many_one","0","direct_first","1","NA05EA30","2","20","1","1","3","1","","0","1","0","2467","","","","","neg","CS","CS","4","category4/CS9.png","13","targets/45.png","direct","",""
"","image-slider-response","114","470364","0.0-8.0-0.24","juwlz4ru1d","many_one","0","direct_first","1","NA05EA30","2","20","1","1","3","1","","0","1","0","3207","","","","","neg","GS","GSnew","3","category3/GS1.png","-61","targets/22.png","direct","",""
"","image-slider-response","115","473642","0.0-8.0-0.25","juwlz4ru1d","many_one","0","direct_first","1","NA05EA30","2","20","1","1","3","1","","0","1","0","3275","","","","","neg","GS","abstract","3","category3/wang.png","-81","targets/40.png","direct","",""
"","image-slider-response","116","478122","0.0-8.0-0.26","juwlz4ru1d","many_one","0","direct_first","1","NA05EA30","2","20","1","1","3","1","","0","1","0","4476","","","","","neg","GS","GSold","4","category4/CS2.png","20","targets/5.png","direct","",""
"","image-slider-response","117","480869","0.0-8.0-0.27","juwlz4ru1d","many_one","0","direct_first","1","NA05EA30","2","20","1","1","3","1","","0","1","0","2745","","","","","neg","CS","CS","3","category3/CS7.png","-47","targets/28.png","direct","",""
"","image-slider-response","118","484194","0.0-8.0-0.28","juwlz4ru1d","many_one","0","direct_first","1","NA05EA30","2","20","1","1","3","1","","0","1","0","3320","","","","","pos","CS","CS","1","category1/CS10.png","84","targets/34.png","direct","",""
"","image-slider-response","119","486629","0.0-8.0-0.29","juwlz4ru1d","many_one","0","direct_first","1","NA05EA30","2","20","1","1","3","1","","0","1","0","2434","","","","","pos","GS","GSnew","1","category1/GS1.png","-11","targets/7.png","direct","",""
"","image-slider-response","120","489322","0.0-8.0-0.30","juwlz4ru1d","many_one","0","direct_first","1","NA05EA30","2","20","1","1","3","1","","0","1","0","2689","","","","","pos","GS","GSold","1","category1/CS7.png","3","targets/30.png","direct","",""
"","image-slider-response","121","491035","0.0-8.0-0.31","juwlz4ru1d","many_one","0","direct_first","1","NA05EA30","2","20","1","1","3","1","","0","1","0","1711","","","","","pos","GS","GSold","1","category1/CS9.png","-7","targets/4.png","direct","",""
"","image-slider-response","122","493437","0.0-8.0-0.32","juwlz4ru1d","many_one","0","direct_first","1","NA05EA30","2","20","1","1","3","1","","0","1","0","2400","","","","","pos","GS","GSold","2","category2/CS10.png","24","targets/48.png","direct","",""
"","image-slider-response","123","495640","0.0-8.0-0.33","juwlz4ru1d","many_one","0","direct_first","1","NA05EA30","2","20","1","1","3","1","","0","1","0","2198","","","","","pos","CS","CS","1","category1/CS1.png","-27","targets/11.png","direct","",""
"","image-slider-response","124","498693","0.0-8.0-0.34","juwlz4ru1d","many_one","0","direct_first","1","NA05EA30","2","20","1","1","3","1","","0","1","0","3051","","","","","pos","GS","GSnew","2","category2/GS3.png","5","targets/6.png","direct","",""
"","image-slider-response","125","501884","0.0-8.0-0.35","juwlz4ru1d","many_one","0","direct_first","1","NA05EA30","2","20","1","1","3","1","","0","1","0","3189","","","","","neg","CS","CS","4","category4/CS4.png","22","targets/27.png","direct","",""
"","image-slider-response","126","504093","0.0-8.0-0.36","juwlz4ru1d","many_one","0","direct_first","1","NA05EA30","2","20","1","1","3","1","","0","1","0","2207","","","","","pos","GS","GSnew","1","category1/GS3.png","17","targets/12.png","direct","",""
"","image-slider-response","127","505669","0.0-8.0-0.37","juwlz4ru1d","many_one","0","direct_first","1","NA05EA30","2","20","1","1","3","1","","0","1","0","1573","","","","","pos","GS","GSnew","1","category1/GS2.png","38","targets/32.png","direct","",""
"","image-slider-response","128","507554","0.0-8.0-0.38","juwlz4ru1d","many_one","0","direct_first","1","NA05EA30","2","20","1","1","3","1","","0","1","0","1882","","","","","pos","CS","CS","1","category1/CS8.png","27","targets/1.png","direct","",""
"","image-slider-response","129","509324","0.0-8.0-0.39","juwlz4ru1d","many_one","0","direct_first","1","NA05EA30","2","20","1","1","3","1","","0","1","0","1766","","","","","pos","GS","GSnew","2","category2/GS1.png","22","targets/25.png","direct","",""
"","image-slider-response","130","511246","0.0-8.0-0.40","juwlz4ru1d","many_one","0","direct_first","1","NA05EA30","2","20","1","1","3","1","","0","1","0","1921","","","","","pos","GS","GSold","2","category2/CS3.png","53","targets/15.png","direct","",""
"","image-slider-response","131","513762","0.0-8.0-0.41","juwlz4ru1d","many_one","0","direct_first","1","NA05EA30","2","20","1","1","3","1","","0","1","0","2513","","","","","neg","GS","GSnew","4","category4/GS2.png","33","targets/8.png","direct","",""
"","image-slider-response","132","516365","0.0-8.0-0.42","juwlz4ru1d","many_one","0","direct_first","1","NA05EA30","2","20","1","1","3","1","","0","1","0","2600","","","","","pos","CS","CS","2","category2/CS4.png","29","targets/16.png","direct","",""
"","image-slider-response","133","518681","0.0-8.0-0.43","juwlz4ru1d","many_one","0","direct_first","1","NA05EA30","2","20","1","1","3","1","","0","1","0","2314","","","","","neg","CS","CS","3","category3/CS10.png","-37","targets/44.png","direct","",""
"","image-slider-response","134","520546","0.0-8.0-0.44","juwlz4ru1d","many_one","0","direct_first","1","NA05EA30","2","20","1","1","3","1","","0","1","0","1863","","","","","neg","GS","GSold","3","category3/CS1.png","-38","targets/47.png","direct","",""
"","image-slider-response","135","524103","0.0-8.0-0.45","juwlz4ru1d","many_one","0","direct_first","1","NA05EA30","2","20","1","1","3","1","","0","1","0","3552","","","","","pos","GS","abstract","2","category2/men.png","-56","targets/42.png","direct","",""
"","image-slider-response","136","528037","0.0-8.0-0.46","juwlz4ru1d","many_one","0","direct_first","1","NA05EA30","2","20","1","1","3","1","","0","1","0","3931","","","","","neg","CS","CS","4","category4/CS7.png","13","targets/43.png","direct","",""
"","image-slider-response","137","531351","0.0-8.0-0.47","juwlz4ru1d","many_one","0","direct_first","1","NA05EA30","2","20","1","1","3","1","","0","1","0","3312","","","","","neg","GS","GSold","3","category3/CS8.png","-66","targets/35.png","direct","",""
"","html-keyboard-response","138","562288","0.0-9.0","juwlz4ru1d","many_one","0","direct_first","1","NA05EA30","2","20","1","1","3","1","","0","1","0","30934","","","<p>Sie sehen nun die chinesischen Zeichen nur ganz kurz. Danach sehen Sie die jeweilige Aussprache der Zeichen als Silbe auf dem Bildschrim. Ihre Aufgabe ist es, für jede Silbe anzugeben, ob diese etwas angenehmes, oder unangenehmes bedeuten könnte. Verlassen Sie sich hier vor allem auf Ihre Intuition.<br><br>Die Zeichen werden nur zur Orientierung dargestellt, beachten Sie sie deshalb nicht. Konzentrieren Sie sich vor allem auf die Silben. <br>Reagieren Sie mit folgenden zwei Tasten: <br><br><b>'D' </b> wenn die Silbe etwas <b>unangenehmes</b> bedeuten könnte. <br><b>'K'</b> wenn die Silbe etwas <b>angenehmes</b> bedeuten könnte. <br><br>Bitte legen Sie nun den Zeigefinger der linken Hand auf die Taste 'D' und den Zeigefinger der rechten Hand auf die Taste 'K'. <br>Reagieren Sie auf jede Silbe so schnell wie möglich. Uns interessiert Ihre spontane Reaktion. <br> <br> <br>Drücken Sie 'D' oder 'K', um die nächste Aufgabe zu starten. </p>","75","","","","","","","","","",""
"","html-keyboard-response","139","565307","0.0-10.0-0.0","juwlz4ru1d","many_one","0","direct_first","1","NA05EA30","2","20","1","1","3","1","","0","1","0","null","","","<div style=""font-size:60px;"">+</div>","null","","","","","","","","","",""
"","html-keyboard-response","140","565400","0.0-10.0-1.0","juwlz4ru1d","many_one","0","direct_first","1","NA05EA30","2","20","1","1","3","1","","0","1","0","null","","","<img src = 'category1/CS5.png' width = '100%;'>","null","","","","","","","","","",""
"","html-keyboard-response","141","565680","0.0-10.0-2.0","juwlz4ru1d","many_one","0","direct_first","1","NA05EA30","2","20","1","1","3","1","","0","1","0","null","","","<img src = 'targets/18.png' width = '100%;'>","null","","","","","","","","","",""
"","html-keyboard-response","142","570185","0.0-10.0-3.0","juwlz4ru1d","many_one","0","direct_first","1","NA05EA30","2","20","1","1","3","1","","0","1","0","4502","","","<img src = 'targets/mask.png' width = '100%;'>","75","pos","CS","CS","1","category1/CS5.png","","targets/18.png","indirect","1","0"
"","html-keyboard-response","143","571703","0.0-10.0-0.1","juwlz4ru1d","many_one","0","direct_first","1","NA05EA30","2","20","1","1","3","1","","0","1","0","null","","","<div style=""font-size:60px;"">+</div>","null","","","","","","","","","",""
"","html-keyboard-response","144","571797","0.0-10.0-1.1","juwlz4ru1d","many_one","0","direct_first","1","NA05EA30","2","20","1","1","3","1","","0","1","0","null","","","<img src = 'category1/CS10.png' width = '100%;'>","null","","","","","","","","","",""
"","html-keyboard-response","145","572076","0.0-10.0-2.1","juwlz4ru1d","many_one","0","direct_first","1","NA05EA30","2","20","1","1","3","1","","0","1","0","null","","","<img src = 'targets/34.png' width = '100%;'>","null","","","","","","","","","",""
"","html-keyboard-response","146","574979","0.0-10.0-3.1","juwlz4ru1d","many_one","0","direct_first","1","NA05EA30","2","20","1","1","3","1","","0","1","0","2901","","","<img src = 'targets/mask.png' width = '100%;'>","75","pos","CS","CS","1","category1/CS10.png","","targets/34.png","indirect","1","1"
"","html-keyboard-response","147","576498","0.0-10.0-0.2","juwlz4ru1d","many_one","0","direct_first","1","NA05EA30","2","20","1","1","3","1","","0","1","0","null","","","<div style=""font-size:60px;"">+</div>","null","","","","","","","","","",""
"","html-keyboard-response","148","576592","0.0-10.0-1.2","juwlz4ru1d","many_one","0","direct_first","1","NA05EA30","2","20","1","1","3","1","","0","1","0","null","","","<img src = 'category2/CS2.png' width = '100%;'>","null","","","","","","","","","",""
"","html-keyboard-response","149","576868","0.0-10.0-2.2","juwlz4ru1d","many_one","0","direct_first","1","NA05EA30","2","20","1","1","3","1","","0","1","0","null","","","<img src = 'targets/46.png' width = '100%;'>","null","","","","","","","","","",""
"","html-keyboard-response","150","578154","0.0-10.0-3.2","juwlz4ru1d","many_one","0","direct_first","1","NA05EA30","2","20","1","1","3","1","","0","1","0","1284","","","<img src = 'targets/mask.png' width = '100%;'>","68","pos","CS","CS","2","category2/CS2.png","","targets/46.png","indirect","0","2"
"","html-keyboard-response","151","579678","0.0-10.0-0.3","juwlz4ru1d","many_one","0","direct_first","1","NA05EA30","2","20","1","1","3","1","","0","1","0","null","","","<div style=""font-size:60px;"">+</div>","null","","","","","","","","","",""
"","html-keyboard-response","152","579772","0.0-10.0-1.3","juwlz4ru1d","many_one","0","direct_first","1","NA05EA30","2","20","1","1","3","1","","0","1","0","null","","","<img src = 'category3/CS2.png' width = '100%;'>","null","","","","","","","","","",""
"","html-keyboard-response","153","580036","0.0-10.0-2.3","juwlz4ru1d","many_one","0","direct_first","1","NA05EA30","2","20","1","1","3","1","","0","1","0","null","","","<img src = 'targets/41.png' width = '100%;'>","null","","","","","","","","","",""
"","html-keyboard-response","154","580514","0.0-10.0-3.3","juwlz4ru1d","many_one","0","direct_first","1","NA05EA30","2","20","1","1","3","1","","0","1","0","476","","","<img src = 'targets/mask.png' width = '100%;'>","68","neg","CS","CS","3","category3/CS2.png","","targets/41.png","indirect","0","3"
"","html-keyboard-response","155","582024","0.0-10.0-0.4","juwlz4ru1d","many_one","0","direct_first","1","NA05EA30","2","20","1","1","3","1","","0","1","0","null","","","<div style=""font-size:60px;"">+</div>","null","","","","","","","","","",""
"","html-keyboard-response","156","582116","0.0-10.0-1.4","juwlz4ru1d","many_one","0","direct_first","1","NA05EA30","2","20","1","1","3","1","","0","1","0","null","","","<img src = 'category3/CS4.png' width = '100%;'>","null","","","","","","","","","",""
"","html-keyboard-response","157","582397","0.0-10.0-2.4","juwlz4ru1d","many_one","0","direct_first","1","NA05EA30","2","20","1","1","3","1","","0","1","0","null","","","<img src = 'targets/39.png' width = '100%;'>","null","","","","","","","","","",""
"","html-keyboard-response","158","585300","0.0-10.0-3.4","juwlz4ru1d","many_one","0","direct_first","1","NA05EA30","2","20","1","1","3","1","","0","1","0","2901","","","<img src = 'targets/mask.png' width = '100%;'>","75","neg","CS","CS","3","category3/CS4.png","","targets/39.png","indirect","1","4"
"","html-keyboard-response","159","586820","0.0-10.0-0.5","juwlz4ru1d","many_one","0","direct_first","1","NA05EA30","2","20","1","1","3","1","","0","1","0","null","","","<div style=""font-size:60px;"">+</div>","null","","","","","","","","","",""
"","html-keyboard-response","160","586915","0.0-10.0-1.5","juwlz4ru1d","many_one","0","direct_first","1","NA05EA30","2","20","1","1","3","1","","0","1","0","null","","","<img src = 'category1/CS1.png' width = '100%;'>","null","","","","","","","","","",""
"","html-keyboard-response","161","587196","0.0-10.0-2.5","juwlz4ru1d","many_one","0","direct_first","1","NA05EA30","2","20","1","1","3","1","","0","1","0","null","","","<img src = 'targets/11.png' width = '100%;'>","null","","","","","","","","","",""
"","html-keyboard-response","162","589803","0.0-10.0-3.5","juwlz4ru1d","many_one","0","direct_first","1","NA05EA30","2","20","1","1","3","1","","0","1","0","2605","","","<img src = 'targets/mask.png' width = '100%;'>","75","pos","CS","CS","1","category1/CS1.png","","targets/11.png","indirect","1","5"
"","html-keyboard-response","163","591318","0.0-10.0-0.6","juwlz4ru1d","many_one","0","direct_first","1","NA05EA30","2","20","1","1","3","1","","0","1","0","null","","","<div style=""font-size:60px;"">+</div>","null","","","","","","","","","",""
"","html-keyboard-response","164","591413","0.0-10.0-1.6","juwlz4ru1d","many_one","0","direct_first","1","NA05EA30","2","20","1","1","3","1","","0","1","0","null","","","<img src = 'category3/CS7.png' width = '100%;'>","null","","","","","","","","","",""
"","html-keyboard-response","165","591679","0.0-10.0-2.6","juwlz4ru1d","many_one","0","direct_first","1","NA05EA30","2","20","1","1","3","1","","0","1","0","null","","","<img src = 'targets/28.png' width = '100%;'>","null","","","","","","","","","",""
"","html-keyboard-response","166","595208","0.0-10.0-3.6","juwlz4ru1d","many_one","0","direct_first","1","NA05EA30","2","20","1","1","3","1","","0","1","0","3527","","","<img src = 'targets/mask.png' width = '100%;'>","75","neg","CS","CS","3","category3/CS7.png","","targets/28.png","indirect","1","6"
"","html-keyboard-response","167","596728","0.0-10.0-0.7","juwlz4ru1d","many_one","0","direct_first","1","NA05EA30","2","20","1","1","3","1","","0","1","0","null","","","<div style=""font-size:60px;"">+</div>","null","","","","","","","","","",""
"","html-keyboard-response","168","596822","0.0-10.0-1.7","juwlz4ru1d","many_one","0","direct_first","1","NA05EA30","2","20","1","1","3","1","","0","1","0","null","","","<img src = 'category3/CS10.png' width = '100%;'>","null","","","","","","","","","",""
"","html-keyboard-response","169","597102","0.0-10.0-2.7","juwlz4ru1d","many_one","0","direct_first","1","NA05EA30","2","20","1","1","3","1","","0","1","0","null","","","<img src = 'targets/44.png' width = '100%;'>","null","","","","","","","","","",""
"","html-keyboard-response","170","598175","0.0-10.0-3.7","juwlz4ru1d","many_one","0","direct_first","1","NA05EA30","2","20","1","1","3","1","","0","1","0","1071","","","<img src = 'targets/mask.png' width = '100%;'>","75","neg","CS","CS","3","category3/CS10.png","","targets/44.png","indirect","1","7"
"","html-keyboard-response","171","599681","0.0-10.0-0.8","juwlz4ru1d","many_one","0","direct_first","1","NA05EA30","2","20","1","1","3","1","","0","1","0","null","","","<div style=""font-size:60px;"">+</div>","null","","","","","","","","","",""
"","html-keyboard-response","172","599776","0.0-10.0-1.8","juwlz4ru1d","many_one","0","direct_first","1","NA05EA30","2","20","1","1","3","1","","0","1","0","null","","","<img src = 'category2/CS9.png' width = '100%;'>","null","","","","","","","","","",""
"","html-keyboard-response","173","600043","0.0-10.0-2.8","juwlz4ru1d","many_one","0","direct_first","1","NA05EA30","2","20","1","1","3","1","","0","1","0","null","","","<img src = 'targets/38.png' width = '100%;'>","null","","","","","","","","","",""
"","html-keyboard-response","174","600973","0.0-10.0-3.8","juwlz4ru1d","many_one","0","direct_first","1","NA05EA30","2","20","1","1","3","1","","0","1","0","928","","","<img src = 'targets/mask.png' width = '100%;'>","75","pos","CS","CS","2","category2/CS9.png","","targets/38.png","indirect","1","8"
"","html-keyboard-response","175","602495","0.0-10.0-0.9","juwlz4ru1d","many_one","0","direct_first","1","NA05EA30","2","20","1","1","3","1","","0","1","0","null","","","<div style=""font-size:60px;"">+</div>","null","","","","","","","","","",""
"","html-keyboard-response","176","602588","0.0-10.0-1.9","juwlz4ru1d","many_one","0","direct_first","1","NA05EA30","2","20","1","1","3","1","","0","1","0","null","","","<img src = 'category4/CS4.png' width = '100%;'>","null","","","","","","","","","",""
"","html-keyboard-response","177","602869","0.0-10.0-2.9","juwlz4ru1d","many_one","0","direct_first","1","NA05EA30","2","20","1","1","3","1","","0","1","0","null","","","<img src = 'targets/27.png' width = '100%;'>","null","","","","","","","","","",""
"","html-keyboard-response","178","603977","0.0-10.0-3.9","juwlz4ru1d","many_one","0","direct_first","1","NA05EA30","2","20","1","1","3","1","","0","1","0","1107","","","<img src = 'targets/mask.png' width = '100%;'>","68","neg","CS","CS","4","category4/CS4.png","","targets/27.png","indirect","0","9"
"","html-keyboard-response","179","605499","0.0-10.0-0.10","juwlz4ru1d","many_one","0","direct_first","1","NA05EA30","2","20","1","1","3","1","","0","1","0","null","","","<div style=""font-size:60px;"">+</div>","null","","","","","","","","","",""
"","html-keyboard-response","180","605594","0.0-10.0-1.10","juwlz4ru1d","many_one","0","direct_first","1","NA05EA30","2","20","1","1","3","1","","0","1","0","null","","","<img src = 'category1/CS2.png' width = '100%;'>","null","","","","","","","","","",""
"","html-keyboard-response","181","605859","0.0-10.0-2.10","juwlz4ru1d","many_one","0","direct_first","1","NA05EA30","2","20","1","1","3","1","","0","1","0","null","","","<img src = 'targets/19.png' width = '100%;'>","null","","","","","","","","","",""
"","html-keyboard-response","182","607691","0.0-10.0-3.10","juwlz4ru1d","many_one","0","direct_first","1","NA05EA30","2","20","1","1","3","1","","0","1","0","1832","","","<img src = 'targets/mask.png' width = '100%;'>","68","pos","CS","CS","1","category1/CS2.png","","targets/19.png","indirect","0","10"
"","html-keyboard-response","183","609200","0.0-10.0-0.11","juwlz4ru1d","many_one","0","direct_first","1","NA05EA30","2","20","1","1","3","1","","0","1","0","null","","","<div style=""font-size:60px;"">+</div>","null","","","","","","","","","",""
"","html-keyboard-response","184","609294","0.0-10.0-1.11","juwlz4ru1d","many_one","0","direct_first","1","NA05EA30","2","20","1","1","3","1","","0","1","0","null","","","<img src = 'category2/CS4.png' width = '100%;'>","null","","","","","","","","","",""
"","html-keyboard-response","185","609560","0.0-10.0-2.11","juwlz4ru1d","many_one","0","direct_first","1","NA05EA30","2","20","1","1","3","1","","0","1","0","null","","","<img src = 'targets/16.png' width = '100%;'>","null","","","","","","","","","",""
"","html-keyboard-response","186","610534","0.0-10.0-3.11","juwlz4ru1d","many_one","0","direct_first","1","NA05EA30","2","20","1","1","3","1","","0","1","0","972","","","<img src = 'targets/mask.png' width = '100%;'>","75","pos","CS","CS","2","category2/CS4.png","","targets/16.png","indirect","1","11"
"","html-keyboard-response","187","612054","0.0-10.0-0.12","juwlz4ru1d","many_one","0","direct_first","1","NA05EA30","2","20","1","1","3","1","","0","1","0","null","","","<div style=""font-size:60px;"">+</div>","null","","","","","","","","","",""
"","html-keyboard-response","188","612148","0.0-10.0-1.12","juwlz4ru1d","many_one","0","direct_first","1","NA05EA30","2","20","1","1","3","1","","0","1","0","null","","","<img src = 'category2/CS10.png' width = '100%;'>","null","","","","","","","","","",""
"","html-keyboard-response","189","612426","0.0-10.0-2.12","juwlz4ru1d","many_one","0","direct_first","1","NA05EA30","2","20","1","1","3","1","","0","1","0","null","","","<img src = 'targets/48.png' width = '100%;'>","null","","","","","","","","","",""
"","html-keyboard-response","190","613650","0.0-10.0-3.12","juwlz4ru1d","many_one","0","direct_first","1","NA05EA30","2","20","1","1","3","1","","0","1","0","1222","","","<img src = 'targets/mask.png' width = '100%;'>","75","pos","GS","GSold","2","category2/CS10.png","","targets/48.png","indirect","1","12"
"","html-keyboard-response","191","615167","0.0-10.0-0.13","juwlz4ru1d","many_one","0","direct_first","1","NA05EA30","2","20","1","1","3","1","","0","1","0","null","","","<div style=""font-size:60px;"">+</div>","null","","","","","","","","","",""
"","html-keyboard-response","192","615260","0.0-10.0-1.13","juwlz4ru1d","many_one","0","direct_first","1","NA05EA30","2","20","1","1","3","1","","0","1","0","null","","","<img src = 'category2/CS5.png' width = '100%;'>","null","","","","","","","","","",""
"","html-keyboard-response","193","615539","0.0-10.0-2.13","juwlz4ru1d","many_one","0","direct_first","1","NA05EA30","2","20","1","1","3","1","","0","1","0","null","","","<img src = 'targets/23.png' width = '100%;'>","null","","","","","","","","","",""
"","html-keyboard-response","194","616920","0.0-10.0-3.13","juwlz4ru1d","many_one","0","direct_first","1","NA05EA30","2","20","1","1","3","1","","0","1","0","1381","","","<img src = 'targets/mask.png' width = '100%;'>","68","pos","CS","CS","2","category2/CS5.png","","targets/23.png","indirect","0","13"
"","html-keyboard-response","195","618439","0.0-10.0-0.14","juwlz4ru1d","many_one","0","direct_first","1","NA05EA30","2","20","1","1","3","1","","0","1","0","null","","","<div style=""font-size:60px;"">+</div>","null","","","","","","","","","",""
"","html-keyboard-response","196","618531","0.0-10.0-1.14","juwlz4ru1d","many_one","0","direct_first","1","NA05EA30","2","20","1","1","3","1","","0","1","0","null","","","<img src = 'category4/CS3.png' width = '100%;'>","null","","","","","","","","","",""
"","html-keyboard-response","197","618813","0.0-10.0-2.14","juwlz4ru1d","many_one","0","direct_first","1","NA05EA30","2","20","1","1","3","1","","0","1","0","null","","","<img src = 'targets/3.png' width = '100%;'>","null","","","","","","","","","",""
"","html-keyboard-response","198","619625","0.0-10.0-3.14","juwlz4ru1d","many_one","0","direct_first","1","NA05EA30","2","20","1","1","3","1","","0","1","0","811","","","<img src = 'targets/mask.png' width = '100%;'>","68","neg","CS","CS","4","category4/CS3.png","","targets/3.png","indirect","0","14"
"","html-keyboard-response","199","621138","0.0-10.0-0.15","juwlz4ru1d","many_one","0","direct_first","1","NA05EA30","2","20","1","1","3","1","","0","1","0","null","","","<div style=""font-size:60px;"">+</div>","null","","","","","","","","","",""
"","html-keyboard-response","200","621232","0.0-10.0-1.15","juwlz4ru1d","many_one","0","direct_first","1","NA05EA30","2","20","1","1","3","1","","0","1","0","null","","","<img src = 'category4/CS7.png' width = '100%;'>","null","","","","","","","","","",""
"","html-keyboard-response","201","621512","0.0-10.0-2.15","juwlz4ru1d","many_one","0","direct_first","1","NA05EA30","2","20","1","1","3","1","","0","1","0","null","","","<img src = 'targets/43.png' width = '100%;'>","null","","","","","","","","","",""
"","html-keyboard-response","202","623142","0.0-10.0-3.15","juwlz4ru1d","many_one","0","direct_first","1","NA05EA30","2","20","1","1","3","1","","0","1","0","1628","","","<img src = 'targets/mask.png' width = '100%;'>","75","neg","CS","CS","4","category4/CS7.png","","targets/43.png","indirect","1","15"
"","html-keyboard-response","203","624660","0.0-10.0-0.16","juwlz4ru1d","many_one","0","direct_first","1","NA05EA30","2","20","1","1","3","1","","0","1","0","null","","","<div style=""font-size:60px;"">+</div>","null","","","","","","","","","",""
"","html-keyboard-response","204","624754","0.0-10.0-1.16","juwlz4ru1d","many_one","0","direct_first","1","NA05EA30","2","20","1","1","3","1","","0","1","0","null","","","<img src = 'category3/CS1.png' width = '100%;'>","null","","","","","","","","","",""
"","html-keyboard-response","205","625032","0.0-10.0-2.16","juwlz4ru1d","many_one","0","direct_first","1","NA05EA30","2","20","1","1","3","1","","0","1","0","null","","","<img src = 'targets/47.png' width = '100%;'>","null","","","","","","","","","",""
"","html-keyboard-response","206","625588","0.0-10.0-3.16","juwlz4ru1d","many_one","0","direct_first","1","NA05EA30","2","20","1","1","3","1","","0","1","0","553","","","<img src = 'targets/mask.png' width = '100%;'>","75","neg","GS","GSold","3","category3/CS1.png","","targets/47.png","indirect","1","16"
"","html-keyboard-response","207","627103","0.0-10.0-0.17","juwlz4ru1d","many_one","0","direct_first","1","NA05EA30","2","20","1","1","3","1","","0","1","0","null","","","<div style=""font-size:60px;"">+</div>","null","","","","","","","","","",""
"","html-keyboard-response","208","627195","0.0-10.0-1.17","juwlz4ru1d","many_one","0","direct_first","1","NA05EA30","2","20","1","1","3","1","","0","1","0","null","","","<img src = 'category2/CS7.png' width = '100%;'>","null","","","","","","","","","",""
"","html-keyboard-response","209","627472","0.0-10.0-2.17","juwlz4ru1d","many_one","0","direct_first","1","NA05EA30","2","20","1","1","3","1","","0","1","0","null","","","<img src = 'targets/21.png' width = '100%;'>","null","","","","","","","","","",""
"","html-keyboard-response","210","627926","0.0-10.0-3.17","juwlz4ru1d","many_one","0","direct_first","1","NA05EA30","2","20","1","1","3","1","","0","1","0","453","","","<img src = 'targets/mask.png' width = '100%;'>","75","pos","CS","CS","2","category2/CS7.png","","targets/21.png","indirect","1","17"
"","html-keyboard-response","211","629441","0.0-10.0-0.18","juwlz4ru1d","many_one","0","direct_first","1","NA05EA30","2","20","1","1","3","1","","0","1","0","null","","","<div style=""font-size:60px;"">+</div>","null","","","","","","","","","",""
"","html-keyboard-response","212","629533","0.0-10.0-1.18","juwlz4ru1d","many_one","0","direct_first","1","NA05EA30","2","20","1","1","3","1","","0","1","0","null","","","<img src = 'category3/CS6.png' width = '100%;'>","null","","","","","","","","","",""
"","html-keyboard-response","213","629808","0.0-10.0-2.18","juwlz4ru1d","many_one","0","direct_first","1","NA05EA30","2","20","1","1","3","1","","0","1","0","null","","","<img src = 'targets/26.png' width = '100%;'>","null","","","","","","","","","",""
"","html-keyboard-response","214","630234","0.0-10.0-3.18","juwlz4ru1d","many_one","0","direct_first","1","NA05EA30","2","20","1","1","3","1","","0","1","0","424","","","<img src = 'targets/mask.png' width = '100%;'>","75","neg","GS","GSold","3","category3/CS6.png","","targets/26.png","indirect","1","18"
"","html-keyboard-response","215","631749","0.0-10.0-0.19","juwlz4ru1d","many_one","0","direct_first","1","NA05EA30","2","20","1","1","3","1","","0","1","0","null","","","<div style=""font-size:60px;"">+</div>","null","","","","","","","","","",""
"","html-keyboard-response","216","631843","0.0-10.0-1.19","juwlz4ru1d","many_one","0","direct_first","1","NA05EA30","2","20","1","1","3","1","","0","1","0","null","","","<img src = 'category4/CS9.png' width = '100%;'>","null","","","","","","","","","",""
"","html-keyboard-response","217","632121","0.0-10.0-2.19","juwlz4ru1d","many_one","0","direct_first","1","NA05EA30","2","20","1","1","3","1","","0","1","0","null","","","<img src = 'targets/45.png' width = '100%;'>","null","","","","","","","","","",""
"","html-keyboard-response","218","632340","0.0-10.0-3.19","juwlz4ru1d","many_one","0","direct_first","1","NA05EA30","2","20","1","1","3","1","","0","1","0","216","","","<img src = 'targets/mask.png' width = '100%;'>","75","neg","CS","CS","4","category4/CS9.png","","targets/45.png","indirect","1","19"
"","html-keyboard-response","219","633856","0.0-10.0-0.20","juwlz4ru1d","many_one","0","direct_first","1","NA05EA30","2","20","1","1","3","1","","0","1","0","null","","","<div style=""font-size:60px;"">+</div>","null","","","","","","","","","",""
"","html-keyboard-response","220","633949","0.0-10.0-1.20","juwlz4ru1d","many_one","0","direct_first","1","NA05EA30","2","20","1","1","3","1","","0","1","0","null","","","<img src = 'category4/CS10.png' width = '100%;'>","null","","","","","","","","","",""
"","html-keyboard-response","221","634226","0.0-10.0-2.20","juwlz4ru1d","many_one","0","direct_first","1","NA05EA30","2","20","1","1","3","1","","0","1","0","null","","","<img src = 'targets/37.png' width = '100%;'>","null","","","","","","","","","",""
"","html-keyboard-response","222","635070","0.0-10.0-3.20","juwlz4ru1d","many_one","0","direct_first","1","NA05EA30","2","20","1","1","3","1","","0","1","0","842","","","<img src = 'targets/mask.png' width = '100%;'>","75","neg","CS","CS","4","category4/CS10.png","","targets/37.png","indirect","1","20"
"","html-keyboard-response","223","636580","0.0-10.0-0.21","juwlz4ru1d","many_one","0","direct_first","1","NA05EA30","2","20","1","1","3","1","","0","1","0","null","","","<div style=""font-size:60px;"">+</div>","null","","","","","","","","","",""
"","html-keyboard-response","224","636672","0.0-10.0-1.21","juwlz4ru1d","many_one","0","direct_first","1","NA05EA30","2","20","1","1","3","1","","0","1","0","null","","","<img src = 'category3/CS8.png' width = '100%;'>","null","","","","","","","","","",""
"","html-keyboard-response","225","636952","0.0-10.0-2.21","juwlz4ru1d","many_one","0","direct_first","1","NA05EA30","2","20","1","1","3","1","","0","1","0","null","","","<img src = 'targets/35.png' width = '100%;'>","null","","","","","","","","","",""
"","html-keyboard-response","226","637376","0.0-10.0-3.21","juwlz4ru1d","many_one","0","direct_first","1","NA05EA30","2","20","1","1","3","1","","0","1","0","422","","","<img src = 'targets/mask.png' width = '100%;'>","75","neg","GS","GSold","3","category3/CS8.png","","targets/35.png","indirect","1","21"
"","html-keyboard-response","227","638885","0.0-10.0-0.22","juwlz4ru1d","many_one","0","direct_first","1","NA05EA30","2","20","1","1","3","1","","0","1","0","null","","","<div style=""font-size:60px;"">+</div>","null","","","","","","","","","",""
"","html-keyboard-response","228","638977","0.0-10.0-1.22","juwlz4ru1d","many_one","0","direct_first","1","NA05EA30","2","20","1","1","3","1","","0","1","0","null","","","<img src = 'category1/CS8.png' width = '100%;'>","null","","","","","","","","","",""
"","html-keyboard-response","229","639242","0.0-10.0-2.22","juwlz4ru1d","many_one","0","direct_first","1","NA05EA30","2","20","1","1","3","1","","0","1","0","null","","","<img src = 'targets/1.png' width = '100%;'>","null","","","","","","","","","",""
"","html-keyboard-response","230","640308","0.0-10.0-3.22","juwlz4ru1d","many_one","0","direct_first","1","NA05EA30","2","20","1","1","3","1","","0","1","0","1065","","","<img src = 'targets/mask.png' width = '100%;'>","68","pos","CS","CS","1","category1/CS8.png","","targets/1.png","indirect","0","22"
"","html-keyboard-response","231","641832","0.0-10.0-0.23","juwlz4ru1d","many_one","0","direct_first","1","NA05EA30","2","20","1","1","3","1","","0","1","0","null","","","<div style=""font-size:60px;"">+</div>","null","","","","","","","","","",""
"","html-keyboard-response","232","641925","0.0-10.0-1.23","juwlz4ru1d","many_one","0","direct_first","1","NA05EA30","2","20","1","1","3","1","","0","1","0","null","","","<img src = 'category3/CS5.png' width = '100%;'>","null","","","","","","","","","",""
"","html-keyboard-response","233","642204","0.0-10.0-2.23","juwlz4ru1d","many_one","0","direct_first","1","NA05EA30","2","20","1","1","3","1","","0","1","0","null","","","<img src = 'targets/33.png' width = '100%;'>","null","","","","","","","","","",""
"","html-keyboard-response","234","643236","0.0-10.0-3.23","juwlz4ru1d","many_one","0","direct_first","1","NA05EA30","2","20","1","1","3","1","","0","1","0","1031","","","<img src = 'targets/mask.png' width = '100%;'>","75","neg","CS","CS","3","category3/CS5.png","","targets/33.png","indirect","1","23"
"","survey-html-form","235","652377","0.0-11.0","juwlz4ru1d","many_one","0","direct_first","1","NA05EA30","2","20","1","1","3","1","","0","1","0","8625","","{}","","","","","","","","","","","",""
"","html-keyboard-response","236","655402","0.0-12.0-0.0","juwlz4ru1d","many_one","0","direct_first","1","NA05EA30","2","20","1","1","3","1","","0","1","0","null","","","<div style=""font-size:60px;"">+</div>","null","","","","","","","","","",""
"","html-keyboard-response","237","655496","0.0-12.0-1.0","juwlz4ru1d","many_one","0","direct_first","1","NA05EA30","2","20","1","1","3","1","","0","1","0","null","","","<img src = 'category2/GS2.png' width = '100%;'>","null","","","","","","","","","",""
"","html-keyboard-response","238","655778","0.0-12.0-2.0","juwlz4ru1d","many_one","0","direct_first","1","NA05EA30","2","20","1","1","3","1","","0","1","0","null","","","<img src = 'targets/10.png' width = '100%;'>","null","","","","","","","","","",""
"","html-keyboard-response","239","656548","0.0-12.0-3.0","juwlz4ru1d","many_one","0","direct_first","1","NA05EA30","2","20","1","1","3","1","","0","1","0","770","","","<img src = 'targets/mask.png' width = '100%;'>","75","pos","GS","GSnew","2","category2/GS2.png","","targets/10.png","indirect","1","24"
"","html-keyboard-response","240","658066","0.0-12.0-0.1","juwlz4ru1d","many_one","0","direct_first","1","NA05EA30","2","20","1","1","3","1","","0","1","0","null","","","<div style=""font-size:60px;"">+</div>","null","","","","","","","","","",""
"","html-keyboard-response","241","658159","0.0-12.0-1.1","juwlz4ru1d","many_one","0","direct_first","1","NA05EA30","2","20","1","1","3","1","","0","1","0","null","","","<img src = 'category2/men.png' width = '100%;'>","null","","","","","","","","","",""
"","html-keyboard-response","242","658438","0.0-12.0-2.1","juwlz4ru1d","many_one","0","direct_first","1","NA05EA30","2","20","1","1","3","1","","0","1","0","null","","","<img src = 'targets/42.png' width = '100%;'>","null","","","","","","","","","",""
"","html-keyboard-response","243","659532","0.0-12.0-3.1","juwlz4ru1d","many_one","0","direct_first","1","NA05EA30","2","20","1","1","3","1","","0","1","0","1092","","","<img src = 'targets/mask.png' width = '100%;'>","68","pos","GS","abstract","2","category2/men.png","","targets/42.png","indirect","0","25"
"","html-keyboard-response","244","661055","0.0-12.0-0.2","juwlz4ru1d","many_one","0","direct_first","1","NA05EA30","2","20","1","1","3","1","","0","1","0","null","","","<div style=""font-size:60px;"">+</div>","null","","","","","","","","","",""
"","html-keyboard-response","245","661149","0.0-12.0-1.2","juwlz4ru1d","many_one","0","direct_first","1","NA05EA30","2","20","1","1","3","1","","0","1","0","null","","","<img src = 'category4/lin.png' width = '100%;'>","null","","","","","","","","","",""
"","html-keyboard-response","246","661413","0.0-12.0-2.2","juwlz4ru1d","many_one","0","direct_first","1","NA05EA30","2","20","1","1","3","1","","0","1","0","null","","","<img src = 'targets/24.png' width = '100%;'>","null","","","","","","","","","",""
"","html-keyboard-response","247","662397","0.0-12.0-3.2","juwlz4ru1d","many_one","0","direct_first","1","NA05EA30","2","20","1","1","3","1","","0","1","0","982","","","<img src = 'targets/mask.png' width = '100%;'>","75","neg","GS","abstract","4","category4/lin.png","","targets/24.png","indirect","1","26"
"","html-keyboard-response","248","663919","0.0-12.0-0.3","juwlz4ru1d","many_one","0","direct_first","1","NA05EA30","2","20","1","1","3","1","","0","1","0","null","","","<div style=""font-size:60px;"">+</div>","null","","","","","","","","","",""
"","html-keyboard-response","249","664011","0.0-12.0-1.3","juwlz4ru1d","many_one","0","direct_first","1","NA05EA30","2","20","1","1","3","1","","0","1","0","null","","","<img src = 'category2/CS3.png' width = '100%;'>","null","","","","","","","","","",""
"","html-keyboard-response","250","664291","0.0-12.0-2.3","juwlz4ru1d","many_one","0","direct_first","1","NA05EA30","2","20","1","1","3","1","","0","1","0","null","","","<img src = 'targets/15.png' width = '100%;'>","null","","","","","","","","","",""
"","html-keyboard-response","251","665256","0.0-12.0-3.3","juwlz4ru1d","many_one","0","direct_first","1","NA05EA30","2","20","1","1","3","1","","0","1","0","963","","","<img src = 'targets/mask.png' width = '100%;'>","75","pos","GS","GSold","2","category2/CS3.png","","targets/15.png","indirect","1","27"
"","html-keyboard-response","252","666782","0.0-12.0-0.4","juwlz4ru1d","many_one","0","direct_first","1","NA05EA30","2","20","1","1","3","1","","0","1","0","null","","","<div style=""font-size:60px;"">+</div>","null","","","","","","","","","",""
"","html-keyboard-response","253","666875","0.0-12.0-1.4","juwlz4ru1d","many_one","0","direct_first","1","NA05EA30","2","20","1","1","3","1","","0","1","0","null","","","<img src = 'category4/CS5.png' width = '100%;'>","null","","","","","","","","","",""
"","html-keyboard-response","254","667142","0.0-12.0-2.4","juwlz4ru1d","many_one","0","direct_first","1","NA05EA30","2","20","1","1","3","1","","0","1","0","null","","","<img src = 'targets/31.png' width = '100%;'>","null","","","","","","","","","",""
"","html-keyboard-response","255","668198","0.0-12.0-3.4","juwlz4ru1d","many_one","0","direct_first","1","NA05EA30","2","20","1","1","3","1","","0","1","0","1054","","","<img src = 'targets/mask.png' width = '100%;'>","68","neg","GS","GSold","4","category4/CS5.png","","targets/31.png","indirect","0","28"
"","html-keyboard-response","256","669721","0.0-12.0-0.5","juwlz4ru1d","many_one","0","direct_first","1","NA05EA30","2","20","1","1","3","1","","0","1","0","null","","","<div style=""font-size:60px;"">+</div>","null","","","","","","","","","",""
"","html-keyboard-response","257","669814","0.0-12.0-1.5","juwlz4ru1d","many_one","0","direct_first","1","NA05EA30","2","20","1","1","3","1","","0","1","0","null","","","<img src = 'category3/GS3.png' width = '100%;'>","null","","","","","","","","","",""
"","html-keyboard-response","258","670094","0.0-12.0-2.5","juwlz4ru1d","many_one","0","direct_first","1","NA05EA30","2","20","1","1","3","1","","0","1","0","null","","","<img src = 'targets/2.png' width = '100%;'>","null","","","","","","","","","",""
"","html-keyboard-response","259","670669","0.0-12.0-3.5","juwlz4ru1d","many_one","0","direct_first","1","NA05EA30","2","20","1","1","3","1","","0","1","0","574","","","<img src = 'targets/mask.png' width = '100%;'>","68","neg","GS","GSnew","3","category3/GS3.png","","targets/2.png","indirect","0","29"
"","html-keyboard-response","260","672191","0.0-12.0-0.6","juwlz4ru1d","many_one","0","direct_first","1","NA05EA30","2","20","1","1","3","1","","0","1","0","null","","","<div style=""font-size:60px;"">+</div>","null","","","","","","","","","",""
"","html-keyboard-response","261","672283","0.0-12.0-1.6","juwlz4ru1d","many_one","0","direct_first","1","NA05EA30","2","20","1","1","3","1","","0","1","0","null","","","<img src = 'category1/CS7.png' width = '100%;'>","null","","","","","","","","","",""
"","html-keyboard-response","262","672563","0.0-12.0-2.6","juwlz4ru1d","many_one","0","direct_first","1","NA05EA30","2","20","1","1","3","1","","0","1","0","null","","","<img src = 'targets/30.png' width = '100%;'>","null","","","","","","","","","",""
"","html-keyboard-response","263","673058","0.0-12.0-3.6","juwlz4ru1d","many_one","0","direct_first","1","NA05EA30","2","20","1","1","3","1","","0","1","0","494","","","<img src = 'targets/mask.png' width = '100%;'>","75","pos","GS","GSold","1","category1/CS7.png","","targets/30.png","indirect","1","30"
"","html-keyboard-response","264","674578","0.0-12.0-0.7","juwlz4ru1d","many_one","0","direct_first","1","NA05EA30","2","20","1","1","3","1","","0","1","0","null","","","<div style=""font-size:60px;"">+</div>","null","","","","","","","","","",""
"","html-keyboard-response","265","674672","0.0-12.0-1.7","juwlz4ru1d","many_one","0","direct_first","1","NA05EA30","2","20","1","1","3","1","","0","1","0","null","","","<img src = 'category1/CS9.png' width = '100%;'>","null","","","","","","","","","",""
"","html-keyboard-response","266","674949","0.0-12.0-2.7","juwlz4ru1d","many_one","0","direct_first","1","NA05EA30","2","20","1","1","3","1","","0","1","0","null","","","<img src = 'targets/4.png' width = '100%;'>","null","","","","","","","","","",""
"","html-keyboard-response","267","675559","0.0-12.0-3.7","juwlz4ru1d","many_one","0","direct_first","1","NA05EA30","2","20","1","1","3","1","","0","1","0","608","","","<img src = 'targets/mask.png' width = '100%;'>","68","pos","GS","GSold","1","category1/CS9.png","","targets/4.png","indirect","0","31"
"","html-keyboard-response","268","677075","0.0-12.0-0.8","juwlz4ru1d","many_one","0","direct_first","1","NA05EA30","2","20","1","1","3","1","","0","1","0","null","","","<div style=""font-size:60px;"">+</div>","null","","","","","","","","","",""
"","html-keyboard-response","269","677168","0.0-12.0-1.8","juwlz4ru1d","many_one","0","direct_first","1","NA05EA30","2","20","1","1","3","1","","0","1","0","null","","","<img src = 'category4/GS1.png' width = '100%;'>","null","","","","","","","","","",""
"","html-keyboard-response","270","677447","0.0-12.0-2.8","juwlz4ru1d","many_one","0","direct_first","1","NA05EA30","2","20","1","1","3","1","","0","1","0","null","","","<img src = 'targets/36.png' width = '100%;'>","null","","","","","","","","","",""
"","html-keyboard-response","271","678163","0.0-12.0-3.8","juwlz4ru1d","many_one","0","direct_first","1","NA05EA30","2","20","1","1","3","1","","0","1","0","714","","","<img src = 'targets/mask.png' width = '100%;'>","68","neg","GS","GSnew","4","category4/GS1.png","","targets/36.png","indirect","0","32"
"","html-keyboard-response","272","679682","0.0-12.0-0.9","juwlz4ru1d","many_one","0","direct_first","1","NA05EA30","2","20","1","1","3","1","","0","1","0","null","","","<div style=""font-size:60px;"">+</div>","null","","","","","","","","","",""
"","html-keyboard-response","273","679775","0.0-12.0-1.9","juwlz4ru1d","many_one","0","direct_first","1","NA05EA30","2","20","1","1","3","1","","0","1","0","null","","","<img src = 'category3/GS2.png' width = '100%;'>","null","","","","","","","","","",""
"","html-keyboard-response","274","680052","0.0-12.0-2.9","juwlz4ru1d","many_one","0","direct_first","1","NA05EA30","2","20","1","1","3","1","","0","1","0","null","","","<img src = 'targets/9.png' width = '100%;'>","null","","","","","","","","","",""
"","html-keyboard-response","275","680620","0.0-12.0-3.9","juwlz4ru1d","many_one","0","direct_first","1","NA05EA30","2","20","1","1","3","1","","0","1","0","565","","","<img src = 'targets/mask.png' width = '100%;'>","75","neg","GS","GSnew","3","category3/GS2.png","","targets/9.png","indirect","1","33"
"","html-keyboard-response","276","682145","0.0-12.0-0.10","juwlz4ru1d","many_one","0","direct_first","1","NA05EA30","2","20","1","1","3","1","","0","1","0","null","","","<div style=""font-size:60px;"">+</div>","null","","","","","","","","","",""
"","html-keyboard-response","277","682238","0.0-12.0-1.10","juwlz4ru1d","many_one","0","direct_first","1","NA05EA30","2","20","1","1","3","1","","0","1","0","null","","","<img src = 'category1/GS2.png' width = '100%;'>","null","","","","","","","","","",""
"","html-keyboard-response","278","682517","0.0-12.0-2.10","juwlz4ru1d","many_one","0","direct_first","1","NA05EA30","2","20","1","1","3","1","","0","1","0","null","","","<img src = 'targets/32.png' width = '100%;'>","null","","","","","","","","","",""
"","html-keyboard-response","279","683094","0.0-12.0-3.10","juwlz4ru1d","many_one","0","direct_first","1","NA05EA30","2","20","1","1","3","1","","0","1","0","574","","","<img src = 'targets/mask.png' width = '100%;'>","75","pos","GS","GSnew","1","category1/GS2.png","","targets/32.png","indirect","1","34"
"","html-keyboard-response","280","684605","0.0-12.0-0.11","juwlz4ru1d","many_one","0","direct_first","1","NA05EA30","2","20","1","1","3","1","","0","1","0","null","","","<div style=""font-size:60px;"">+</div>","null","","","","","","","","","",""
"","html-keyboard-response","281","684698","0.0-12.0-1.11","juwlz4ru1d","many_one","0","direct_first","1","NA05EA30","2","20","1","1","3","1","","0","1","0","null","","","<img src = 'category1/GS3.png' width = '100%;'>","null","","","","","","","","","",""
"","html-keyboard-response","282","684976","0.0-12.0-2.11","juwlz4ru1d","many_one","0","direct_first","1","NA05EA30","2","20","1","1","3","1","","0","1","0","null","","","<img src = 'targets/12.png' width = '100%;'>","null","","","","","","","","","",""
"","html-keyboard-response","283","685478","0.0-12.0-3.11","juwlz4ru1d","many_one","0","direct_first","1","NA05EA30","2","20","1","1","3","1","","0","1","0","500","","","<img src = 'targets/mask.png' width = '100%;'>","75","pos","GS","GSnew","1","category1/GS3.png","","targets/12.png","indirect","1","35"
"","html-keyboard-response","284","686994","0.0-12.0-0.12","juwlz4ru1d","many_one","0","direct_first","1","NA05EA30","2","20","1","1","3","1","","0","1","0","null","","","<div style=""font-size:60px;"">+</div>","null","","","","","","","","","",""
"","html-keyboard-response","285","687088","0.0-12.0-1.12","juwlz4ru1d","many_one","0","direct_first","1","NA05EA30","2","20","1","1","3","1","","0","1","0","null","","","<img src = 'category1/CS4.png' width = '100%;'>","null","","","","","","","","","",""
"","html-keyboard-response","286","687366","0.0-12.0-2.12","juwlz4ru1d","many_one","0","direct_first","1","NA05EA30","2","20","1","1","3","1","","0","1","0","null","","","<img src = 'targets/17.png' width = '100%;'>","null","","","","","","","","","",""
"","html-keyboard-response","287","688160","0.0-12.0-3.12","juwlz4ru1d","many_one","0","direct_first","1","NA05EA30","2","20","1","1","3","1","","0","1","0","792","","","<img src = 'targets/mask.png' width = '100%;'>","75","pos","GS","GSold","1","category1/CS4.png","","targets/17.png","indirect","1","36"
"","html-keyboard-response","288","689674","0.0-12.0-0.13","juwlz4ru1d","many_one","0","direct_first","1","NA05EA30","2","20","1","1","3","1","","0","1","0","null","","","<div style=""font-size:60px;"">+</div>","null","","","","","","","","","",""
"","html-keyboard-response","289","689768","0.0-12.0-1.13","juwlz4ru1d","many_one","0","direct_first","1","NA05EA30","2","20","1","1","3","1","","0","1","0","null","","","<img src = 'category1/ma.png' width = '100%;'>","null","","","","","","","","","",""
"","html-keyboard-response","290","690045","0.0-12.0-2.13","juwlz4ru1d","many_one","0","direct_first","1","NA05EA30","2","20","1","1","3","1","","0","1","0","null","","","<img src = 'targets/14.png' width = '100%;'>","null","","","","","","","","","",""
"","html-keyboard-response","291","690714","0.0-12.0-3.13","juwlz4ru1d","many_one","0","direct_first","1","NA05EA30","2","20","1","1","3","1","","0","1","0","667","","","<img src = 'targets/mask.png' width = '100%;'>","75","pos","GS","abstract","1","category1/ma.png","","targets/14.png","indirect","1","37"
"","html-keyboard-response","292","692232","0.0-12.0-0.14","juwlz4ru1d","many_one","0","direct_first","1","NA05EA30","2","20","1","1","3","1","","0","1","0","null","","","<div style=""font-size:60px;"">+</div>","null","","","","","","","","","",""
"","html-keyboard-response","293","692326","0.0-12.0-1.14","juwlz4ru1d","many_one","0","direct_first","1","NA05EA30","2","20","1","1","3","1","","0","1","0","null","","","<img src = 'category4/CS6.png' width = '100%;'>","null","","","","","","","","","",""
"","html-keyboard-response","294","692603","0.0-12.0-2.14","juwlz4ru1d","many_one","0","direct_first","1","NA05EA30","2","20","1","1","3","1","","0","1","0","null","","","<img src = 'targets/13.png' width = '100%;'>","null","","","","","","","","","",""
"","html-keyboard-response","295","693165","0.0-12.0-3.14","juwlz4ru1d","many_one","0","direct_first","1","NA05EA30","2","20","1","1","3","1","","0","1","0","559","","","<img src = 'targets/mask.png' width = '100%;'>","75","neg","GS","GSold","4","category4/CS6.png","","targets/13.png","indirect","1","38"
"","html-keyboard-response","296","694683","0.0-12.0-0.15","juwlz4ru1d","many_one","0","direct_first","1","NA05EA30","2","20","1","1","3","1","","0","1","0","null","","","<div style=""font-size:60px;"">+</div>","null","","","","","","","","","",""
"","html-keyboard-response","297","694790","0.0-12.0-1.15","juwlz4ru1d","many_one","0","direct_first","1","NA05EA30","2","20","1","1","3","1","","0","1","0","null","","","<img src = 'category2/GS3.png' width = '100%;'>","null","","","","","","","","","",""
"","html-keyboard-response","298","695070","0.0-12.0-2.15","juwlz4ru1d","many_one","0","direct_first","1","NA05EA30","2","20","1","1","3","1","","0","1","0","null","","","<img src = 'targets/6.png' width = '100%;'>","null","","","","","","","","","",""
"","html-keyboard-response","299","696468","0.0-12.0-3.15","juwlz4ru1d","many_one","0","direct_first","1","NA05EA30","2","20","1","1","3","1","","0","1","0","1395","","","<img src = 'targets/mask.png' width = '100%;'>","68","pos","GS","GSnew","2","category2/GS3.png","","targets/6.png","indirect","0","39"
"","html-keyboard-response","300","697986","0.0-12.0-0.16","juwlz4ru1d","many_one","0","direct_first","1","NA05EA30","2","20","1","1","3","1","","0","1","0","null","","","<div style=""font-size:60px;"">+</div>","null","","","","","","","","","",""
"","html-keyboard-response","301","698078","0.0-12.0-1.16","juwlz4ru1d","many_one","0","direct_first","1","NA05EA30","2","20","1","1","3","1","","0","1","0","null","","","<img src = 'category3/GS1.png' width = '100%;'>","null","","","","","","","","","",""
"","html-keyboard-response","302","698356","0.0-12.0-2.16","juwlz4ru1d","many_one","0","direct_first","1","NA05EA30","2","20","1","1","3","1","","0","1","0","null","","","<img src = 'targets/22.png' width = '100%;'>","null","","","","","","","","","",""
"","html-keyboard-response","303","698893","0.0-12.0-3.16","juwlz4ru1d","many_one","0","direct_first","1","NA05EA30","2","20","1","1","3","1","","0","1","0","536","","","<img src = 'targets/mask.png' width = '100%;'>","68","neg","GS","GSnew","3","category3/GS1.png","","targets/22.png","indirect","0","40"
"","html-keyboard-response","304","700405","0.0-12.0-0.17","juwlz4ru1d","many_one","0","direct_first","1","NA05EA30","2","20","1","1","3","1","","0","1","0","null","","","<div style=""font-size:60px;"">+</div>","null","","","","","","","","","",""
"","html-keyboard-response","305","700499","0.0-12.0-1.17","juwlz4ru1d","many_one","0","direct_first","1","NA05EA30","2","20","1","1","3","1","","0","1","0","null","","","<img src = 'category3/wang.png' width = '100%;'>","null","","","","","","","","","",""
"","html-keyboard-response","306","700778","0.0-12.0-2.17","juwlz4ru1d","many_one","0","direct_first","1","NA05EA30","2","20","1","1","3","1","","0","1","0","null","","","<img src = 'targets/40.png' width = '100%;'>","null","","","","","","","","","",""
"","html-keyboard-response","307","701334","0.0-12.0-3.17","juwlz4ru1d","many_one","0","direct_first","1","NA05EA30","2","20","1","1","3","1","","0","1","0","554","","","<img src = 'targets/mask.png' width = '100%;'>","68","neg","GS","abstract","3","category3/wang.png","","targets/40.png","indirect","0","41"
"","html-keyboard-response","308","702862","0.0-12.0-0.18","juwlz4ru1d","many_one","0","direct_first","1","NA05EA30","2","20","1","1","3","1","","0","1","0","null","","","<div style=""font-size:60px;"">+</div>","null","","","","","","","","","",""
"","html-keyboard-response","309","702955","0.0-12.0-1.18","juwlz4ru1d","many_one","0","direct_first","1","NA05EA30","2","20","1","1","3","1","","0","1","0","null","","","<img src = 'category4/CS2.png' width = '100%;'>","null","","","","","","","","","",""
"","html-keyboard-response","310","703220","0.0-12.0-2.18","juwlz4ru1d","many_one","0","direct_first","1","NA05EA30","2","20","1","1","3","1","","0","1","0","null","","","<img src = 'targets/5.png' width = '100%;'>","null","","","","","","","","","",""
"","html-keyboard-response","311","704391","0.0-12.0-3.18","juwlz4ru1d","many_one","0","direct_first","1","NA05EA30","2","20","1","1","3","1","","0","1","0","1168","","","<img src = 'targets/mask.png' width = '100%;'>","75","neg","GS","GSold","4","category4/CS2.png","","targets/5.png","indirect","1","42"
"","html-keyboard-response","312","705913","0.0-12.0-0.19","juwlz4ru1d","many_one","0","direct_first","1","NA05EA30","2","20","1","1","3","1","","0","1","0","null","","","<div style=""font-size:60px;"">+</div>","null","","","","","","","","","",""
"","html-keyboard-response","313","706006","0.0-12.0-1.19","juwlz4ru1d","many_one","0","direct_first","1","NA05EA30","2","20","1","1","3","1","","0","1","0","null","","","<img src = 'category1/GS1.png' width = '100%;'>","null","","","","","","","","","",""
"","html-keyboard-response","314","706282","0.0-12.0-2.19","juwlz4ru1d","many_one","0","direct_first","1","NA05EA30","2","20","1","1","3","1","","0","1","0","null","","","<img src = 'targets/7.png' width = '100%;'>","null","","","","","","","","","",""
"","html-keyboard-response","315","709090","0.0-12.0-3.19","juwlz4ru1d","many_one","0","direct_first","1","NA05EA30","2","20","1","1","3","1","","0","1","0","2804","","","<img src = 'targets/mask.png' width = '100%;'>","75","pos","GS","GSnew","1","category1/GS1.png","","targets/7.png","indirect","1","43"
"","html-keyboard-response","316","710604","0.0-12.0-0.20","juwlz4ru1d","many_one","0","direct_first","1","NA05EA30","2","20","1","1","3","1","","0","1","0","null","","","<div style=""font-size:60px;"">+</div>","null","","","","","","","","","",""
"","html-keyboard-response","317","710698","0.0-12.0-1.20","juwlz4ru1d","many_one","0","direct_first","1","NA05EA30","2","20","1","1","3","1","","0","1","0","null","","","<img src = 'category2/CS6.png' width = '100%;'>","null","","","","","","","","","",""
"","html-keyboard-response","318","710980","0.0-12.0-2.20","juwlz4ru1d","many_one","0","direct_first","1","NA05EA30","2","20","1","1","3","1","","0","1","0","null","","","<img src = 'targets/20.png' width = '100%;'>","null","","","","","","","","","",""
"","html-keyboard-response","319","712187","0.0-12.0-3.20","juwlz4ru1d","many_one","0","direct_first","1","NA05EA30","2","20","1","1","3","1","","0","1","0","1206","","","<img src = 'targets/mask.png' width = '100%;'>","75","pos","GS","GSold","2","category2/CS6.png","","targets/20.png","indirect","1","44"
"","html-keyboard-response","320","713704","0.0-12.0-0.21","juwlz4ru1d","many_one","0","direct_first","1","NA05EA30","2","20","1","1","3","1","","0","1","0","null","","","<div style=""font-size:60px;"">+</div>","null","","","","","","","","","",""
"","html-keyboard-response","321","713797","0.0-12.0-1.21","juwlz4ru1d","many_one","0","direct_first","1","NA05EA30","2","20","1","1","3","1","","0","1","0","null","","","<img src = 'category4/GS3.png' width = '100%;'>","null","","","","","","","","","",""
"","html-keyboard-response","322","714077","0.0-12.0-2.21","juwlz4ru1d","many_one","0","direct_first","1","NA05EA30","2","20","1","1","3","1","","0","1","0","null","","","<img src = 'targets/29.png' width = '100%;'>","null","","","","","","","","","",""
"","html-keyboard-response","323","714693","0.0-12.0-3.21","juwlz4ru1d","many_one","0","direct_first","1","NA05EA30","2","20","1","1","3","1","","0","1","0","614","","","<img src = 'targets/mask.png' width = '100%;'>","75","neg","GS","GSnew","4","category4/GS3.png","","targets/29.png","indirect","1","45"
"","html-keyboard-response","324","716213","0.0-12.0-0.22","juwlz4ru1d","many_one","0","direct_first","1","NA05EA30","2","20","1","1","3","1","","0","1","0","null","","","<div style=""font-size:60px;"">+</div>","null","","","","","","","","","",""
"","html-keyboard-response","325","716305","0.0-12.0-1.22","juwlz4ru1d","many_one","0","direct_first","1","NA05EA30","2","20","1","1","3","1","","0","1","0","null","","","<img src = 'category4/GS2.png' width = '100%;'>","null","","","","","","","","","",""
"","html-keyboard-response","326","716583","0.0-12.0-2.22","juwlz4ru1d","many_one","0","direct_first","1","NA05EA30","2","20","1","1","3","1","","0","1","0","null","","","<img src = 'targets/8.png' width = '100%;'>","null","","","","","","","","","",""
"","html-keyboard-response","327","717157","0.0-12.0-3.22","juwlz4ru1d","many_one","0","direct_first","1","NA05EA30","2","20","1","1","3","1","","0","1","0","573","","","<img src = 'targets/mask.png' width = '100%;'>","75","neg","GS","GSnew","4","category4/GS2.png","","targets/8.png","indirect","1","46"
"","html-keyboard-response","328","718671","0.0-12.0-0.23","juwlz4ru1d","many_one","0","direct_first","1","NA05EA30","2","20","1","1","3","1","","0","1","0","null","","","<div style=""font-size:60px;"">+</div>","null","","","","","","","","","",""
"","html-keyboard-response","329","718764","0.0-12.0-1.23","juwlz4ru1d","many_one","0","direct_first","1","NA05EA30","2","20","1","1","3","1","","0","1","0","null","","","<img src = 'category2/GS1.png' width = '100%;'>","null","","","","","","","","","",""
"","html-keyboard-response","330","719044","0.0-12.0-2.23","juwlz4ru1d","many_one","0","direct_first","1","NA05EA30","2","20","1","1","3","1","","0","1","0","null","","","<img src = 'targets/25.png' width = '100%;'>","null","","","","","","","","","",""
"","html-keyboard-response","331","719541","0.0-12.0-3.23","juwlz4ru1d","many_one","0","direct_first","1","NA05EA30","2","20","1","1","3","1","","0","1","0","495","","","<img src = 'targets/mask.png' width = '100%;'>","75","pos","GS","GSnew","2","category2/GS1.png","","targets/25.png","indirect","1","47"
"","survey-html-form","332","726229","0.0-13.0","juwlz4ru1d","many_one","0","direct_first","1","NA05EA30","2","20","1","1","3","1","","0","1","0","6171","","{}","","","","","","","","","","","",""
