"success","trial_type","trial_index","time_elapsed","internal_node_id","subject","condition","condition_code","measure","measure_code","codeword","gender","age","education","chinese","fach","handedness","rt","url","responses","stimulus","key_press","val","type","type_specific","category","cs_selected","target","indirect","task","nr_pres","response"
"true","fullscreen","0","1795","0.0-0.0","ha76c9uznm","many_one","0","indirect_first","0","er06ge01","0","20","1","1","1","1","","","","","","","","","","","","","","",""
"","external-html","1","52143","0.0-1.0","ha76c9uznm","many_one","0","indirect_first","0","er06ge01","0","20","1","1","1","1","50340","text/information.html","","","","","","","","","","","","",""
"","external-html","2","112103","0.0-2.0","ha76c9uznm","many_one","0","indirect_first","0","er06ge01","0","20","1","1","1","1","59955","text/consent.html","","","","","","","","","","","","",""
"","survey-html-form","3","165510","0.0-3.0","ha76c9uznm","many_one","0","indirect_first","0","er06ge01","0","20","1","1","1","1","53404","","{""codeword_enter"":""er06ge01""}","","","","","","","","","","","",""
"","survey-html-form","4","182065","0.0-4.0","ha76c9uznm","many_one","0","indirect_first","0","er06ge01","0","20","1","1","1","1","16553","","{""age"":""20"",""education"":""1"",""subject"":""1"",""gender"":""0"",""handedness"":""1"",""chinese"":""1""}","","","","","","","","","","","",""
"","survey-html-form","5","191279","0.0-5.0","ha76c9uznm","many_one","0","indirect_first","0","er06ge01","0","20","1","1","1","1","9214","","{}","","","","","","","","","","","",""
"","html-keyboard-response","6","195315","0.0-6.0-0.0-0.0","ha76c9uznm","many_one","0","indirect_first","0","er06ge01","0","20","1","1","1","1","null","","","<div class = 'row'><div class = 'column'><img src = 'category3/CS2.png' width = '70%;'></div><div class = 'column'><img src = 'usneg/9561.bmp' width = '100%;'></div></div>","null","neg","CS","CS","3","category3/CS2.png","","","","",""
"","html-keyboard-response","7","197845","0.0-6.0-0.0-0.1","ha76c9uznm","many_one","0","indirect_first","0","er06ge01","0","20","1","1","1","1","null","","","<div class = 'row'><div class = 'column'><img src = 'uspos/2360.bmp' width = '100%;'></div><div class = 'column'><img src = 'category4/CS10.png' width = '70%;'></div></div>","null","pos","CS","CS","4","category4/CS10.png","","","","",""
"","html-keyboard-response","8","200385","0.0-6.0-0.0-0.2","ha76c9uznm","many_one","0","indirect_first","0","er06ge01","0","20","1","1","1","1","null","","","<div class = 'row'><div class = 'column'><img src = 'category3/CS7.png' width = '70%;'></div><div class = 'column'><img src = 'usneg/7380.bmp' width = '100%;'></div></div>","null","neg","CS","CS","3","category3/CS7.png","","","","",""
"","html-keyboard-response","9","202925","0.0-6.0-0.0-0.3","ha76c9uznm","many_one","0","indirect_first","0","er06ge01","0","20","1","1","1","1","null","","","<div class = 'row'><div class = 'column'><img src = 'category1/CS6.png' width = '70%;'></div><div class = 'column'><img src = 'uspos/1710.bmp' width = '100%;'></div></div>","null","pos","CS","CS","1","category1/CS6.png","","","","",""
"","html-keyboard-response","10","205464","0.0-6.0-0.0-0.4","ha76c9uznm","many_one","0","indirect_first","0","er06ge01","0","20","1","1","1","1","null","","","<div class = 'row'><div class = 'column'><img src = 'category2/CS5.png' width = '70%;'></div><div class = 'column'><img src = 'usneg/3300.bmp' width = '100%;'></div></div>","null","neg","CS","CS","2","category2/CS5.png","","","","",""
"","html-keyboard-response","11","208004","0.0-6.0-0.0-0.5","ha76c9uznm","many_one","0","indirect_first","0","er06ge01","0","20","1","1","1","1","null","","","<div class = 'row'><div class = 'column'><img src = 'usneg/9404.bmp' width = '100%;'></div><div class = 'column'><img src = 'category3/CS4.png' width = '70%;'></div></div>","null","neg","CS","CS","3","category3/CS4.png","","","","",""
"","html-keyboard-response","12","210545","0.0-6.0-0.0-0.6","ha76c9uznm","many_one","0","indirect_first","0","er06ge01","0","20","1","1","1","1","null","","","<div class = 'row'><div class = 'column'><img src = 'uspos/5760.bmp' width = '100%;'></div><div class = 'column'><img src = 'category1/CS7.png' width = '70%;'></div></div>","null","pos","CS","CS","1","category1/CS7.png","","","","",""
"","html-keyboard-response","13","213085","0.0-6.0-0.0-0.7","ha76c9uznm","many_one","0","indirect_first","0","er06ge01","0","20","1","1","1","1","null","","","<div class = 'row'><div class = 'column'><img src = 'category3/CS6.png' width = '70%;'></div><div class = 'column'><img src = 'usneg/9830.bmp' width = '100%;'></div></div>","null","neg","CS","CS","3","category3/CS6.png","","","","",""
"","html-keyboard-response","14","215625","0.0-6.0-0.0-0.8","ha76c9uznm","many_one","0","indirect_first","0","er06ge01","0","20","1","1","1","1","null","","","<div class = 'row'><div class = 'column'><img src = 'category3/CS5.png' width = '70%;'></div><div class = 'column'><img src = 'usneg/9330.bmp' width = '100%;'></div></div>","null","neg","CS","CS","3","category3/CS5.png","","","","",""
"","html-keyboard-response","15","218165","0.0-6.0-0.0-0.9","ha76c9uznm","many_one","0","indirect_first","0","er06ge01","0","20","1","1","1","1","null","","","<div class = 'row'><div class = 'column'><img src = 'category2/CS10.png' width = '70%;'></div><div class = 'column'><img src = 'usneg/9415.bmp' width = '100%;'></div></div>","null","neg","CS","CS","2","category2/CS10.png","","","","",""
"","html-keyboard-response","16","220705","0.0-6.0-0.0-0.10","ha76c9uznm","many_one","0","indirect_first","0","er06ge01","0","20","1","1","1","1","null","","","<div class = 'row'><div class = 'column'><img src = 'usneg/2900.bmp' width = '100%;'></div><div class = 'column'><img src = 'category2/CS3.png' width = '70%;'></div></div>","null","neg","CS","CS","2","category2/CS3.png","","","","",""
"","html-keyboard-response","17","223240","0.0-6.0-0.0-0.11","ha76c9uznm","many_one","0","indirect_first","0","er06ge01","0","20","1","1","1","1","null","","","<div class = 'row'><div class = 'column'><img src = 'category4/CS4.png' width = '70%;'></div><div class = 'column'><img src = 'uspos/8190.bmp' width = '100%;'></div></div>","null","pos","CS","CS","4","category4/CS4.png","","","","",""
"","html-keyboard-response","18","225744","0.0-6.0-0.0-0.12","ha76c9uznm","many_one","0","indirect_first","0","er06ge01","0","20","1","1","1","1","null","","","<div class = 'row'><div class = 'column'><img src = 'uspos/8461.bmp' width = '100%;'></div><div class = 'column'><img src = 'category1/CS8.png' width = '70%;'></div></div>","null","pos","CS","CS","1","category1/CS8.png","","","","",""
"","html-keyboard-response","19","228285","0.0-6.0-0.0-0.13","ha76c9uznm","many_one","0","indirect_first","0","er06ge01","0","20","1","1","1","1","null","","","<div class = 'row'><div class = 'column'><img src = 'usneg/9050.bmp' width = '100%;'></div><div class = 'column'><img src = 'category2/CS2.png' width = '70%;'></div></div>","null","neg","CS","CS","2","category2/CS2.png","","","","",""
"","html-keyboard-response","20","230825","0.0-6.0-0.0-0.14","ha76c9uznm","many_one","0","indirect_first","0","er06ge01","0","20","1","1","1","1","null","","","<div class = 'row'><div class = 'column'><img src = 'uspos/2030.bmp' width = '100%;'></div><div class = 'column'><img src = 'category1/CS2.png' width = '70%;'></div></div>","null","pos","CS","CS","1","category1/CS2.png","","","","",""
"","html-keyboard-response","21","233355","0.0-6.0-0.0-0.15","ha76c9uznm","many_one","0","indirect_first","0","er06ge01","0","20","1","1","1","1","null","","","<div class = 'row'><div class = 'column'><img src = 'uspos/2550.bmp' width = '100%;'></div><div class = 'column'><img src = 'category4/CS6.png' width = '70%;'></div></div>","null","pos","CS","CS","4","category4/CS6.png","","","","",""
"","html-keyboard-response","22","235894","0.0-6.0-0.0-0.16","ha76c9uznm","many_one","0","indirect_first","0","er06ge01","0","20","1","1","1","1","null","","","<div class = 'row'><div class = 'column'><img src = 'category4/CS7.png' width = '70%;'></div><div class = 'column'><img src = 'uspos/2341.bmp' width = '100%;'></div></div>","null","pos","CS","CS","4","category4/CS7.png","","","","",""
"","html-keyboard-response","23","238435","0.0-6.0-0.0-0.17","ha76c9uznm","many_one","0","indirect_first","0","er06ge01","0","20","1","1","1","1","null","","","<div class = 'row'><div class = 'column'><img src = 'category2/CS7.png' width = '70%;'></div><div class = 'column'><img src = 'usneg/6020.bmp' width = '100%;'></div></div>","null","neg","CS","CS","2","category2/CS7.png","","","","",""
"","html-keyboard-response","24","240974","0.0-6.0-0.0-0.18","ha76c9uznm","many_one","0","indirect_first","0","er06ge01","0","20","1","1","1","1","null","","","<div class = 'row'><div class = 'column'><img src = 'uspos/1460.bmp' width = '100%;'></div><div class = 'column'><img src = 'category1/CS9.png' width = '70%;'></div></div>","null","pos","CS","CS","1","category1/CS9.png","","","","",""
"","html-keyboard-response","25","243514","0.0-6.0-0.0-0.19","ha76c9uznm","many_one","0","indirect_first","0","er06ge01","0","20","1","1","1","1","null","","","<div class = 'row'><div class = 'column'><img src = 'uspos/2340.bmp' width = '100%;'></div><div class = 'column'><img src = 'category4/CS2.png' width = '70%;'></div></div>","null","pos","CS","CS","4","category4/CS2.png","","","","",""
"","survey-html-form","26","246095","0.0-6.0-1.0","ha76c9uznm","many_one","0","indirect_first","0","er06ge01","0","20","1","1","1","1","2061","","{}","","","","","","","","","","","",""
"","html-keyboard-response","27","250134","0.0-6.0-2.0-0.0","ha76c9uznm","many_one","0","indirect_first","0","er06ge01","0","20","1","1","1","1","null","","","<div class = 'row'><div class = 'column'><img src = 'category2/CS7.png' width = '70%;'></div><div class = 'column'><img src = 'usneg/6020.bmp' width = '100%;'></div></div>","null","neg","CS","CS","2","category2/CS7.png","","","","",""
"","html-keyboard-response","28","252664","0.0-6.0-2.0-0.1","ha76c9uznm","many_one","0","indirect_first","0","er06ge01","0","20","1","1","1","1","null","","","<div class = 'row'><div class = 'column'><img src = 'category4/CS7.png' width = '70%;'></div><div class = 'column'><img src = 'uspos/2341.bmp' width = '100%;'></div></div>","null","pos","CS","CS","4","category4/CS7.png","","","","",""
"","html-keyboard-response","29","255205","0.0-6.0-2.0-0.2","ha76c9uznm","many_one","0","indirect_first","0","er06ge01","0","20","1","1","1","1","null","","","<div class = 'row'><div class = 'column'><img src = 'category3/CS4.png' width = '70%;'></div><div class = 'column'><img src = 'usneg/9404.bmp' width = '100%;'></div></div>","null","neg","CS","CS","3","category3/CS4.png","","","","",""
"","html-keyboard-response","30","257734","0.0-6.0-2.0-0.3","ha76c9uznm","many_one","0","indirect_first","0","er06ge01","0","20","1","1","1","1","null","","","<div class = 'row'><div class = 'column'><img src = 'usneg/7380.bmp' width = '100%;'></div><div class = 'column'><img src = 'category3/CS7.png' width = '70%;'></div></div>","null","neg","CS","CS","3","category3/CS7.png","","","","",""
"","html-keyboard-response","31","260254","0.0-6.0-2.0-0.4","ha76c9uznm","many_one","0","indirect_first","0","er06ge01","0","20","1","1","1","1","null","","","<div class = 'row'><div class = 'column'><img src = 'category1/CS7.png' width = '70%;'></div><div class = 'column'><img src = 'uspos/5760.bmp' width = '100%;'></div></div>","null","pos","CS","CS","1","category1/CS7.png","","","","",""
"","html-keyboard-response","32","262784","0.0-6.0-2.0-0.5","ha76c9uznm","many_one","0","indirect_first","0","er06ge01","0","20","1","1","1","1","null","","","<div class = 'row'><div class = 'column'><img src = 'usneg/9050.bmp' width = '100%;'></div><div class = 'column'><img src = 'category2/CS2.png' width = '70%;'></div></div>","null","neg","CS","CS","2","category2/CS2.png","","","","",""
"","html-keyboard-response","33","265305","0.0-6.0-2.0-0.6","ha76c9uznm","many_one","0","indirect_first","0","er06ge01","0","20","1","1","1","1","null","","","<div class = 'row'><div class = 'column'><img src = 'category1/CS8.png' width = '70%;'></div><div class = 'column'><img src = 'uspos/8461.bmp' width = '100%;'></div></div>","null","pos","CS","CS","1","category1/CS8.png","","","","",""
"","html-keyboard-response","34","267834","0.0-6.0-2.0-0.7","ha76c9uznm","many_one","0","indirect_first","0","er06ge01","0","20","1","1","1","1","null","","","<div class = 'row'><div class = 'column'><img src = 'usneg/9830.bmp' width = '100%;'></div><div class = 'column'><img src = 'category3/CS6.png' width = '70%;'></div></div>","null","neg","CS","CS","3","category3/CS6.png","","","","",""
"","html-keyboard-response","35","270364","0.0-6.0-2.0-0.8","ha76c9uznm","many_one","0","indirect_first","0","er06ge01","0","20","1","1","1","1","null","","","<div class = 'row'><div class = 'column'><img src = 'uspos/1460.bmp' width = '100%;'></div><div class = 'column'><img src = 'category1/CS9.png' width = '70%;'></div></div>","null","pos","CS","CS","1","category1/CS9.png","","","","",""
"","html-keyboard-response","36","272905","0.0-6.0-2.0-0.9","ha76c9uznm","many_one","0","indirect_first","0","er06ge01","0","20","1","1","1","1","null","","","<div class = 'row'><div class = 'column'><img src = 'uspos/2550.bmp' width = '100%;'></div><div class = 'column'><img src = 'category4/CS6.png' width = '70%;'></div></div>","null","pos","CS","CS","4","category4/CS6.png","","","","",""
"","html-keyboard-response","37","275434","0.0-6.0-2.0-0.10","ha76c9uznm","many_one","0","indirect_first","0","er06ge01","0","20","1","1","1","1","null","","","<div class = 'row'><div class = 'column'><img src = 'category4/CS2.png' width = '70%;'></div><div class = 'column'><img src = 'uspos/2340.bmp' width = '100%;'></div></div>","null","pos","CS","CS","4","category4/CS2.png","","","","",""
"","html-keyboard-response","38","277956","0.0-6.0-2.0-0.11","ha76c9uznm","many_one","0","indirect_first","0","er06ge01","0","20","1","1","1","1","null","","","<div class = 'row'><div class = 'column'><img src = 'usneg/9330.bmp' width = '100%;'></div><div class = 'column'><img src = 'category3/CS5.png' width = '70%;'></div></div>","null","neg","CS","CS","3","category3/CS5.png","","","","",""
"","html-keyboard-response","39","280474","0.0-6.0-2.0-0.12","ha76c9uznm","many_one","0","indirect_first","0","er06ge01","0","20","1","1","1","1","null","","","<div class = 'row'><div class = 'column'><img src = 'category1/CS2.png' width = '70%;'></div><div class = 'column'><img src = 'uspos/2030.bmp' width = '100%;'></div></div>","null","pos","CS","CS","1","category1/CS2.png","","","","",""
"","html-keyboard-response","40","283014","0.0-6.0-2.0-0.13","ha76c9uznm","many_one","0","indirect_first","0","er06ge01","0","20","1","1","1","1","null","","","<div class = 'row'><div class = 'column'><img src = 'usneg/3300.bmp' width = '100%;'></div><div class = 'column'><img src = 'category2/CS5.png' width = '70%;'></div></div>","null","neg","CS","CS","2","category2/CS5.png","","","","",""
"","html-keyboard-response","41","285534","0.0-6.0-2.0-0.14","ha76c9uznm","many_one","0","indirect_first","0","er06ge01","0","20","1","1","1","1","null","","","<div class = 'row'><div class = 'column'><img src = 'category3/CS2.png' width = '70%;'></div><div class = 'column'><img src = 'usneg/9561.bmp' width = '100%;'></div></div>","null","neg","CS","CS","3","category3/CS2.png","","","","",""
"","html-keyboard-response","42","288054","0.0-6.0-2.0-0.15","ha76c9uznm","many_one","0","indirect_first","0","er06ge01","0","20","1","1","1","1","null","","","<div class = 'row'><div class = 'column'><img src = 'category1/CS6.png' width = '70%;'></div><div class = 'column'><img src = 'uspos/1710.bmp' width = '100%;'></div></div>","null","pos","CS","CS","1","category1/CS6.png","","","","",""
"","html-keyboard-response","43","290594","0.0-6.0-2.0-0.16","ha76c9uznm","many_one","0","indirect_first","0","er06ge01","0","20","1","1","1","1","null","","","<div class = 'row'><div class = 'column'><img src = 'category2/CS10.png' width = '70%;'></div><div class = 'column'><img src = 'usneg/9415.bmp' width = '100%;'></div></div>","null","neg","CS","CS","2","category2/CS10.png","","","","",""
"","html-keyboard-response","44","293134","0.0-6.0-2.0-0.17","ha76c9uznm","many_one","0","indirect_first","0","er06ge01","0","20","1","1","1","1","null","","","<div class = 'row'><div class = 'column'><img src = 'uspos/2360.bmp' width = '100%;'></div><div class = 'column'><img src = 'category4/CS10.png' width = '70%;'></div></div>","null","pos","CS","CS","4","category4/CS10.png","","","","",""
"","html-keyboard-response","45","295664","0.0-6.0-2.0-0.18","ha76c9uznm","many_one","0","indirect_first","0","er06ge01","0","20","1","1","1","1","null","","","<div class = 'row'><div class = 'column'><img src = 'usneg/2900.bmp' width = '100%;'></div><div class = 'column'><img src = 'category2/CS3.png' width = '70%;'></div></div>","null","neg","CS","CS","2","category2/CS3.png","","","","",""
"","html-keyboard-response","46","298204","0.0-6.0-2.0-0.19","ha76c9uznm","many_one","0","indirect_first","0","er06ge01","0","20","1","1","1","1","null","","","<div class = 'row'><div class = 'column'><img src = 'uspos/8190.bmp' width = '100%;'></div><div class = 'column'><img src = 'category4/CS4.png' width = '70%;'></div></div>","null","pos","CS","CS","4","category4/CS4.png","","","","",""
"","survey-html-form","47","300903","0.0-6.0-3.0","ha76c9uznm","many_one","0","indirect_first","0","er06ge01","0","20","1","1","1","1","2178","","{}","","","","","","","","","","","",""
"","html-keyboard-response","48","304924","0.0-6.0-4.0-0.0","ha76c9uznm","many_one","0","indirect_first","0","er06ge01","0","20","1","1","1","1","null","","","<div class = 'row'><div class = 'column'><img src = 'usneg/9830.bmp' width = '100%;'></div><div class = 'column'><img src = 'category3/CS6.png' width = '70%;'></div></div>","null","neg","CS","CS","3","category3/CS6.png","","","","",""
"","html-keyboard-response","49","307459","0.0-6.0-4.0-0.1","ha76c9uznm","many_one","0","indirect_first","0","er06ge01","0","20","1","1","1","1","null","","","<div class = 'row'><div class = 'column'><img src = 'usneg/9404.bmp' width = '100%;'></div><div class = 'column'><img src = 'category3/CS4.png' width = '70%;'></div></div>","null","neg","CS","CS","3","category3/CS4.png","","","","",""
"","html-keyboard-response","50","309964","0.0-6.0-4.0-0.2","ha76c9uznm","many_one","0","indirect_first","0","er06ge01","0","20","1","1","1","1","null","","","<div class = 'row'><div class = 'column'><img src = 'category1/CS6.png' width = '70%;'></div><div class = 'column'><img src = 'uspos/1710.bmp' width = '100%;'></div></div>","null","pos","CS","CS","1","category1/CS6.png","","","","",""
"","html-keyboard-response","51","312504","0.0-6.0-4.0-0.3","ha76c9uznm","many_one","0","indirect_first","0","er06ge01","0","20","1","1","1","1","null","","","<div class = 'row'><div class = 'column'><img src = 'uspos/2360.bmp' width = '100%;'></div><div class = 'column'><img src = 'category4/CS10.png' width = '70%;'></div></div>","null","pos","CS","CS","4","category4/CS10.png","","","","",""
"","html-keyboard-response","52","315044","0.0-6.0-4.0-0.4","ha76c9uznm","many_one","0","indirect_first","0","er06ge01","0","20","1","1","1","1","null","","","<div class = 'row'><div class = 'column'><img src = 'category4/CS7.png' width = '70%;'></div><div class = 'column'><img src = 'uspos/2341.bmp' width = '100%;'></div></div>","null","pos","CS","CS","4","category4/CS7.png","","","","",""
"","html-keyboard-response","53","317584","0.0-6.0-4.0-0.5","ha76c9uznm","many_one","0","indirect_first","0","er06ge01","0","20","1","1","1","1","null","","","<div class = 'row'><div class = 'column'><img src = 'usneg/9561.bmp' width = '100%;'></div><div class = 'column'><img src = 'category3/CS2.png' width = '70%;'></div></div>","null","neg","CS","CS","3","category3/CS2.png","","","","",""
"","html-keyboard-response","54","320124","0.0-6.0-4.0-0.6","ha76c9uznm","many_one","0","indirect_first","0","er06ge01","0","20","1","1","1","1","null","","","<div class = 'row'><div class = 'column'><img src = 'usneg/9415.bmp' width = '100%;'></div><div class = 'column'><img src = 'category2/CS10.png' width = '70%;'></div></div>","null","neg","CS","CS","2","category2/CS10.png","","","","",""
"","html-keyboard-response","55","322654","0.0-6.0-4.0-0.7","ha76c9uznm","many_one","0","indirect_first","0","er06ge01","0","20","1","1","1","1","null","","","<div class = 'row'><div class = 'column'><img src = 'category1/CS9.png' width = '70%;'></div><div class = 'column'><img src = 'uspos/1460.bmp' width = '100%;'></div></div>","null","pos","CS","CS","1","category1/CS9.png","","","","",""
"","html-keyboard-response","56","325194","0.0-6.0-4.0-0.8","ha76c9uznm","many_one","0","indirect_first","0","er06ge01","0","20","1","1","1","1","null","","","<div class = 'row'><div class = 'column'><img src = 'usneg/9050.bmp' width = '100%;'></div><div class = 'column'><img src = 'category2/CS2.png' width = '70%;'></div></div>","null","neg","CS","CS","2","category2/CS2.png","","","","",""
"","html-keyboard-response","57","327734","0.0-6.0-4.0-0.9","ha76c9uznm","many_one","0","indirect_first","0","er06ge01","0","20","1","1","1","1","null","","","<div class = 'row'><div class = 'column'><img src = 'usneg/7380.bmp' width = '100%;'></div><div class = 'column'><img src = 'category3/CS7.png' width = '70%;'></div></div>","null","neg","CS","CS","3","category3/CS7.png","","","","",""
"","html-keyboard-response","58","330274","0.0-6.0-4.0-0.10","ha76c9uznm","many_one","0","indirect_first","0","er06ge01","0","20","1","1","1","1","null","","","<div class = 'row'><div class = 'column'><img src = 'category4/CS2.png' width = '70%;'></div><div class = 'column'><img src = 'uspos/2340.bmp' width = '100%;'></div></div>","null","pos","CS","CS","4","category4/CS2.png","","","","",""
"","html-keyboard-response","59","332814","0.0-6.0-4.0-0.11","ha76c9uznm","many_one","0","indirect_first","0","er06ge01","0","20","1","1","1","1","null","","","<div class = 'row'><div class = 'column'><img src = 'uspos/5760.bmp' width = '100%;'></div><div class = 'column'><img src = 'category1/CS7.png' width = '70%;'></div></div>","null","pos","CS","CS","1","category1/CS7.png","","","","",""
"","html-keyboard-response","60","335354","0.0-6.0-4.0-0.12","ha76c9uznm","many_one","0","indirect_first","0","er06ge01","0","20","1","1","1","1","null","","","<div class = 'row'><div class = 'column'><img src = 'usneg/9330.bmp' width = '100%;'></div><div class = 'column'><img src = 'category3/CS5.png' width = '70%;'></div></div>","null","neg","CS","CS","3","category3/CS5.png","","","","",""
"","html-keyboard-response","61","337884","0.0-6.0-4.0-0.13","ha76c9uznm","many_one","0","indirect_first","0","er06ge01","0","20","1","1","1","1","null","","","<div class = 'row'><div class = 'column'><img src = 'category2/CS7.png' width = '70%;'></div><div class = 'column'><img src = 'usneg/6020.bmp' width = '100%;'></div></div>","null","neg","CS","CS","2","category2/CS7.png","","","","",""
"","html-keyboard-response","62","340424","0.0-6.0-4.0-0.14","ha76c9uznm","many_one","0","indirect_first","0","er06ge01","0","20","1","1","1","1","null","","","<div class = 'row'><div class = 'column'><img src = 'usneg/3300.bmp' width = '100%;'></div><div class = 'column'><img src = 'category2/CS5.png' width = '70%;'></div></div>","null","neg","CS","CS","2","category2/CS5.png","","","","",""
"","html-keyboard-response","63","342964","0.0-6.0-4.0-0.15","ha76c9uznm","many_one","0","indirect_first","0","er06ge01","0","20","1","1","1","1","null","","","<div class = 'row'><div class = 'column'><img src = 'category2/CS3.png' width = '70%;'></div><div class = 'column'><img src = 'usneg/2900.bmp' width = '100%;'></div></div>","null","neg","CS","CS","2","category2/CS3.png","","","","",""
"","html-keyboard-response","64","345504","0.0-6.0-4.0-0.16","ha76c9uznm","many_one","0","indirect_first","0","er06ge01","0","20","1","1","1","1","null","","","<div class = 'row'><div class = 'column'><img src = 'uspos/2030.bmp' width = '100%;'></div><div class = 'column'><img src = 'category1/CS2.png' width = '70%;'></div></div>","null","pos","CS","CS","1","category1/CS2.png","","","","",""
"","html-keyboard-response","65","348044","0.0-6.0-4.0-0.17","ha76c9uznm","many_one","0","indirect_first","0","er06ge01","0","20","1","1","1","1","null","","","<div class = 'row'><div class = 'column'><img src = 'uspos/8461.bmp' width = '100%;'></div><div class = 'column'><img src = 'category1/CS8.png' width = '70%;'></div></div>","null","pos","CS","CS","1","category1/CS8.png","","","","",""
"","html-keyboard-response","66","350584","0.0-6.0-4.0-0.18","ha76c9uznm","many_one","0","indirect_first","0","er06ge01","0","20","1","1","1","1","null","","","<div class = 'row'><div class = 'column'><img src = 'uspos/8190.bmp' width = '100%;'></div><div class = 'column'><img src = 'category4/CS4.png' width = '70%;'></div></div>","null","pos","CS","CS","4","category4/CS4.png","","","","",""
"","html-keyboard-response","67","353113","0.0-6.0-4.0-0.19","ha76c9uznm","many_one","0","indirect_first","0","er06ge01","0","20","1","1","1","1","null","","","<div class = 'row'><div class = 'column'><img src = 'category4/CS6.png' width = '70%;'></div><div class = 'column'><img src = 'uspos/2550.bmp' width = '100%;'></div></div>","null","pos","CS","CS","4","category4/CS6.png","","","","",""
"","survey-html-form","68","356944","0.0-6.0-5.0","ha76c9uznm","many_one","0","indirect_first","0","er06ge01","0","20","1","1","1","1","3309","","{}","","","","","","","","","","","",""
"","html-keyboard-response","69","360974","0.0-6.0-6.0-0.0","ha76c9uznm","many_one","0","indirect_first","0","er06ge01","0","20","1","1","1","1","null","","","<div class = 'row'><div class = 'column'><img src = 'category4/CS2.png' width = '70%;'></div><div class = 'column'><img src = 'uspos/2340.bmp' width = '100%;'></div></div>","null","pos","CS","CS","4","category4/CS2.png","","","","",""
"","html-keyboard-response","70","363493","0.0-6.0-6.0-0.1","ha76c9uznm","many_one","0","indirect_first","0","er06ge01","0","20","1","1","1","1","null","","","<div class = 'row'><div class = 'column'><img src = 'category3/CS4.png' width = '70%;'></div><div class = 'column'><img src = 'usneg/9404.bmp' width = '100%;'></div></div>","null","neg","CS","CS","3","category3/CS4.png","","","","",""
"","html-keyboard-response","71","366024","0.0-6.0-6.0-0.2","ha76c9uznm","many_one","0","indirect_first","0","er06ge01","0","20","1","1","1","1","null","","","<div class = 'row'><div class = 'column'><img src = 'uspos/5760.bmp' width = '100%;'></div><div class = 'column'><img src = 'category1/CS7.png' width = '70%;'></div></div>","null","pos","CS","CS","1","category1/CS7.png","","","","",""
"","html-keyboard-response","72","368563","0.0-6.0-6.0-0.3","ha76c9uznm","many_one","0","indirect_first","0","er06ge01","0","20","1","1","1","1","null","","","<div class = 'row'><div class = 'column'><img src = 'uspos/2550.bmp' width = '100%;'></div><div class = 'column'><img src = 'category4/CS6.png' width = '70%;'></div></div>","null","pos","CS","CS","4","category4/CS6.png","","","","",""
"","html-keyboard-response","73","371093","0.0-6.0-6.0-0.4","ha76c9uznm","many_one","0","indirect_first","0","er06ge01","0","20","1","1","1","1","null","","","<div class = 'row'><div class = 'column'><img src = 'category2/CS3.png' width = '70%;'></div><div class = 'column'><img src = 'usneg/2900.bmp' width = '100%;'></div></div>","null","neg","CS","CS","2","category2/CS3.png","","","","",""
"","html-keyboard-response","74","373613","0.0-6.0-6.0-0.5","ha76c9uznm","many_one","0","indirect_first","0","er06ge01","0","20","1","1","1","1","null","","","<div class = 'row'><div class = 'column'><img src = 'usneg/9330.bmp' width = '100%;'></div><div class = 'column'><img src = 'category3/CS5.png' width = '70%;'></div></div>","null","neg","CS","CS","3","category3/CS5.png","","","","",""
"","html-keyboard-response","75","376133","0.0-6.0-6.0-0.6","ha76c9uznm","many_one","0","indirect_first","0","er06ge01","0","20","1","1","1","1","null","","","<div class = 'row'><div class = 'column'><img src = 'category3/CS2.png' width = '70%;'></div><div class = 'column'><img src = 'usneg/9561.bmp' width = '100%;'></div></div>","null","neg","CS","CS","3","category3/CS2.png","","","","",""
"","html-keyboard-response","76","378664","0.0-6.0-6.0-0.7","ha76c9uznm","many_one","0","indirect_first","0","er06ge01","0","20","1","1","1","1","null","","","<div class = 'row'><div class = 'column'><img src = 'uspos/2360.bmp' width = '100%;'></div><div class = 'column'><img src = 'category4/CS10.png' width = '70%;'></div></div>","null","pos","CS","CS","4","category4/CS10.png","","","","",""
"","html-keyboard-response","77","381203","0.0-6.0-6.0-0.8","ha76c9uznm","many_one","0","indirect_first","0","er06ge01","0","20","1","1","1","1","null","","","<div class = 'row'><div class = 'column'><img src = 'usneg/9050.bmp' width = '100%;'></div><div class = 'column'><img src = 'category2/CS2.png' width = '70%;'></div></div>","null","neg","CS","CS","2","category2/CS2.png","","","","",""
"","html-keyboard-response","78","383734","0.0-6.0-6.0-0.9","ha76c9uznm","many_one","0","indirect_first","0","er06ge01","0","20","1","1","1","1","null","","","<div class = 'row'><div class = 'column'><img src = 'category1/CS6.png' width = '70%;'></div><div class = 'column'><img src = 'uspos/1710.bmp' width = '100%;'></div></div>","null","pos","CS","CS","1","category1/CS6.png","","","","",""
"","html-keyboard-response","79","386254","0.0-6.0-6.0-0.10","ha76c9uznm","many_one","0","indirect_first","0","er06ge01","0","20","1","1","1","1","null","","","<div class = 'row'><div class = 'column'><img src = 'category2/CS7.png' width = '70%;'></div><div class = 'column'><img src = 'usneg/6020.bmp' width = '100%;'></div></div>","null","neg","CS","CS","2","category2/CS7.png","","","","",""
"","html-keyboard-response","80","388764","0.0-6.0-6.0-0.11","ha76c9uznm","many_one","0","indirect_first","0","er06ge01","0","20","1","1","1","1","null","","","<div class = 'row'><div class = 'column'><img src = 'category1/CS9.png' width = '70%;'></div><div class = 'column'><img src = 'uspos/1460.bmp' width = '100%;'></div></div>","null","pos","CS","CS","1","category1/CS9.png","","","","",""
"","html-keyboard-response","81","391293","0.0-6.0-6.0-0.12","ha76c9uznm","many_one","0","indirect_first","0","er06ge01","0","20","1","1","1","1","null","","","<div class = 'row'><div class = 'column'><img src = 'category2/CS5.png' width = '70%;'></div><div class = 'column'><img src = 'usneg/3300.bmp' width = '100%;'></div></div>","null","neg","CS","CS","2","category2/CS5.png","","","","",""
"","html-keyboard-response","82","393814","0.0-6.0-6.0-0.13","ha76c9uznm","many_one","0","indirect_first","0","er06ge01","0","20","1","1","1","1","null","","","<div class = 'row'><div class = 'column'><img src = 'category1/CS2.png' width = '70%;'></div><div class = 'column'><img src = 'uspos/2030.bmp' width = '100%;'></div></div>","null","pos","CS","CS","1","category1/CS2.png","","","","",""
"","html-keyboard-response","83","396354","0.0-6.0-6.0-0.14","ha76c9uznm","many_one","0","indirect_first","0","er06ge01","0","20","1","1","1","1","null","","","<div class = 'row'><div class = 'column'><img src = 'category1/CS8.png' width = '70%;'></div><div class = 'column'><img src = 'uspos/8461.bmp' width = '100%;'></div></div>","null","pos","CS","CS","1","category1/CS8.png","","","","",""
"","html-keyboard-response","84","398894","0.0-6.0-6.0-0.15","ha76c9uznm","many_one","0","indirect_first","0","er06ge01","0","20","1","1","1","1","null","","","<div class = 'row'><div class = 'column'><img src = 'usneg/9830.bmp' width = '100%;'></div><div class = 'column'><img src = 'category3/CS6.png' width = '70%;'></div></div>","null","neg","CS","CS","3","category3/CS6.png","","","","",""
"","html-keyboard-response","85","401434","0.0-6.0-6.0-0.16","ha76c9uznm","many_one","0","indirect_first","0","er06ge01","0","20","1","1","1","1","null","","","<div class = 'row'><div class = 'column'><img src = 'category4/CS4.png' width = '70%;'></div><div class = 'column'><img src = 'uspos/8190.bmp' width = '100%;'></div></div>","null","pos","CS","CS","4","category4/CS4.png","","","","",""
"","html-keyboard-response","86","403974","0.0-6.0-6.0-0.17","ha76c9uznm","many_one","0","indirect_first","0","er06ge01","0","20","1","1","1","1","null","","","<div class = 'row'><div class = 'column'><img src = 'uspos/2341.bmp' width = '100%;'></div><div class = 'column'><img src = 'category4/CS7.png' width = '70%;'></div></div>","null","pos","CS","CS","4","category4/CS7.png","","","","",""
"","html-keyboard-response","87","406484","0.0-6.0-6.0-0.18","ha76c9uznm","many_one","0","indirect_first","0","er06ge01","0","20","1","1","1","1","null","","","<div class = 'row'><div class = 'column'><img src = 'category3/CS7.png' width = '70%;'></div><div class = 'column'><img src = 'usneg/7380.bmp' width = '100%;'></div></div>","null","neg","CS","CS","3","category3/CS7.png","","","","",""
"","html-keyboard-response","88","409024","0.0-6.0-6.0-0.19","ha76c9uznm","many_one","0","indirect_first","0","er06ge01","0","20","1","1","1","1","null","","","<div class = 'row'><div class = 'column'><img src = 'category2/CS10.png' width = '70%;'></div><div class = 'column'><img src = 'usneg/9415.bmp' width = '100%;'></div></div>","null","neg","CS","CS","2","category2/CS10.png","","","","",""
"","html-keyboard-response","89","444784","0.0-7.0","ha76c9uznm","many_one","0","indirect_first","0","er06ge01","0","20","1","1","1","1","35239","","","<p>Sie sehen nun die chinesischen Zeichen nur ganz kurz. Danach sehen Sie die jeweilige Aussprache der Zeichen als Silbe auf dem Bildschrim. Ihre Aufgabe ist es, für jede Silbe anzugeben, ob diese etwas angenehmes, oder unangenehmes bedeuten könnte. Verlassen Sie sich hier vor allem auf Ihre Intuition.<br><br>Die Zeichen werden nur zur Orientierung dargestellt, beachten Sie sie deshalb nicht. Konzentrieren Sie sich vor allem auf die Silben. <br>Reagieren Sie mit folgenden zwei Tasten: <br><br><b>'D' </b> wenn die Silbe etwas <b>unangenehmes</b> bedeuten könnte. <br><b>'K'</b> wenn die Silbe etwas <b>angenehmes</b> bedeuten könnte. <br><br>Bitte legen Sie nun den Zeigefinger der linken Hand auf die Taste 'D' und den Zeigefinger der rechten Hand auf die Taste 'K'. <br>Reagieren Sie auf jede Silbe so schnell wie möglich. Uns interessiert Ihre spontane Reaktion. <br> <br> <br>Drücken Sie 'D' oder 'K', um die nächste Aufgabe zu starten. </p>","68","","","","","","","","","",""
"","html-keyboard-response","90","447824","0.0-8.0-0.0","ha76c9uznm","many_one","0","indirect_first","0","er06ge01","0","20","1","1","1","1","null","","","<div style=""font-size:60px;"">+</div>","null","","","","","","","","","",""
"","html-keyboard-response","91","447924","0.0-8.0-1.0","ha76c9uznm","many_one","0","indirect_first","0","er06ge01","0","20","1","1","1","1","null","","","<img src = 'category2/CS9.png' width = '100%;'>","null","","","","","","","","","",""
"","html-keyboard-response","92","448203","0.0-8.0-2.0","ha76c9uznm","many_one","0","indirect_first","0","er06ge01","0","20","1","1","1","1","null","","","<img src = 'targets/12.png' width = '100%;'>","null","","","","","","","","","",""
"","html-keyboard-response","93","450183","0.0-8.0-3.0","ha76c9uznm","many_one","0","indirect_first","0","er06ge01","0","20","1","1","1","1","1978","","","<img src = 'targets/mask.png' width = '100%;'>","68","neg","GS","GSold","2","category2/CS9.png","targets/12.png","0","indirect","0",""
"","html-keyboard-response","94","451724","0.0-8.0-0.1","ha76c9uznm","many_one","0","indirect_first","0","er06ge01","0","20","1","1","1","1","null","","","<div style=""font-size:60px;"">+</div>","null","","","","","","","","","",""
"","html-keyboard-response","95","451823","0.0-8.0-1.1","ha76c9uznm","many_one","0","indirect_first","0","er06ge01","0","20","1","1","1","1","null","","","<img src = 'category3/CS5.png' width = '100%;'>","null","","","","","","","","","",""
"","html-keyboard-response","96","452104","0.0-8.0-2.1","ha76c9uznm","many_one","0","indirect_first","0","er06ge01","0","20","1","1","1","1","null","","","<img src = 'targets/27.png' width = '100%;'>","null","","","","","","","","","",""
"","html-keyboard-response","97","453336","0.0-8.0-3.1","ha76c9uznm","many_one","0","indirect_first","0","er06ge01","0","20","1","1","1","1","1231","","","<img src = 'targets/mask.png' width = '100%;'>","75","neg","CS","CS","3","category3/CS5.png","targets/27.png","1","indirect","1",""
"","html-keyboard-response","98","454864","0.0-8.0-0.2","ha76c9uznm","many_one","0","indirect_first","0","er06ge01","0","20","1","1","1","1","null","","","<div style=""font-size:60px;"">+</div>","null","","","","","","","","","",""
"","html-keyboard-response","99","454964","0.0-8.0-1.2","ha76c9uznm","many_one","0","indirect_first","0","er06ge01","0","20","1","1","1","1","null","","","<img src = 'category4/CS6.png' width = '100%;'>","null","","","","","","","","","",""
"","html-keyboard-response","100","455244","0.0-8.0-2.2","ha76c9uznm","many_one","0","indirect_first","0","er06ge01","0","20","1","1","1","1","null","","","<img src = 'targets/14.png' width = '100%;'>","null","","","","","","","","","",""
"","html-keyboard-response","101","456416","0.0-8.0-3.2","ha76c9uznm","many_one","0","indirect_first","0","er06ge01","0","20","1","1","1","1","1171","","","<img src = 'targets/mask.png' width = '100%;'>","68","pos","CS","CS","4","category4/CS6.png","targets/14.png","0","indirect","2",""
"","html-keyboard-response","102","457944","0.0-8.0-0.3","ha76c9uznm","many_one","0","indirect_first","0","er06ge01","0","20","1","1","1","1","null","","","<div style=""font-size:60px;"">+</div>","null","","","","","","","","","",""
"","html-keyboard-response","103","458044","0.0-8.0-1.3","ha76c9uznm","many_one","0","indirect_first","0","er06ge01","0","20","1","1","1","1","null","","","<img src = 'category3/CS2.png' width = '100%;'>","null","","","","","","","","","",""
"","html-keyboard-response","104","458324","0.0-8.0-2.3","ha76c9uznm","many_one","0","indirect_first","0","er06ge01","0","20","1","1","1","1","null","","","<img src = 'targets/19.png' width = '100%;'>","null","","","","","","","","","",""
"","html-keyboard-response","105","459054","0.0-8.0-3.3","ha76c9uznm","many_one","0","indirect_first","0","er06ge01","0","20","1","1","1","1","729","","","<img src = 'targets/mask.png' width = '100%;'>","68","neg","CS","CS","3","category3/CS2.png","targets/19.png","0","indirect","3",""
"","html-keyboard-response","106","460564","0.0-8.0-0.4","ha76c9uznm","many_one","0","indirect_first","0","er06ge01","0","20","1","1","1","1","null","","","<div style=""font-size:60px;"">+</div>","null","","","","","","","","","",""
"","html-keyboard-response","107","460656","0.0-8.0-1.4","ha76c9uznm","many_one","0","indirect_first","0","er06ge01","0","20","1","1","1","1","null","","","<img src = 'category2/CS2.png' width = '100%;'>","null","","","","","","","","","",""
"","html-keyboard-response","108","460909","0.0-8.0-2.4","ha76c9uznm","many_one","0","indirect_first","0","er06ge01","0","20","1","1","1","1","null","","","<img src = 'targets/48.png' width = '100%;'>","null","","","","","","","","","",""
"","html-keyboard-response","109","461767","0.0-8.0-3.4","ha76c9uznm","many_one","0","indirect_first","0","er06ge01","0","20","1","1","1","1","857","","","<img src = 'targets/mask.png' width = '100%;'>","68","neg","CS","CS","2","category2/CS2.png","targets/48.png","0","indirect","4",""
"","html-keyboard-response","110","463303","0.0-8.0-0.5","ha76c9uznm","many_one","0","indirect_first","0","er06ge01","0","20","1","1","1","1","null","","","<div style=""font-size:60px;"">+</div>","null","","","","","","","","","",""
"","html-keyboard-response","111","463404","0.0-8.0-1.5","ha76c9uznm","many_one","0","indirect_first","0","er06ge01","0","20","1","1","1","1","null","","","<img src = 'category3/CS4.png' width = '100%;'>","null","","","","","","","","","",""
"","html-keyboard-response","112","463683","0.0-8.0-2.5","ha76c9uznm","many_one","0","indirect_first","0","er06ge01","0","20","1","1","1","1","null","","","<img src = 'targets/45.png' width = '100%;'>","null","","","","","","","","","",""
"","html-keyboard-response","113","464975","0.0-8.0-3.5","ha76c9uznm","many_one","0","indirect_first","0","er06ge01","0","20","1","1","1","1","1290","","","<img src = 'targets/mask.png' width = '100%;'>","75","neg","CS","CS","3","category3/CS4.png","targets/45.png","1","indirect","5",""
"","html-keyboard-response","114","466499","0.0-8.0-0.6","ha76c9uznm","many_one","0","indirect_first","0","er06ge01","0","20","1","1","1","1","null","","","<div style=""font-size:60px;"">+</div>","null","","","","","","","","","",""
"","html-keyboard-response","115","466600","0.0-8.0-1.6","ha76c9uznm","many_one","0","indirect_first","0","er06ge01","0","20","1","1","1","1","null","","","<img src = 'category1/CS9.png' width = '100%;'>","null","","","","","","","","","",""
"","html-keyboard-response","116","466883","0.0-8.0-2.6","ha76c9uznm","many_one","0","indirect_first","0","er06ge01","0","20","1","1","1","1","null","","","<img src = 'targets/36.png' width = '100%;'>","null","","","","","","","","","",""
"","html-keyboard-response","117","467983","0.0-8.0-3.6","ha76c9uznm","many_one","0","indirect_first","0","er06ge01","0","20","1","1","1","1","1099","","","<img src = 'targets/mask.png' width = '100%;'>","75","pos","CS","CS","1","category1/CS9.png","targets/36.png","1","indirect","6",""
"","html-keyboard-response","118","469503","0.0-8.0-0.7","ha76c9uznm","many_one","0","indirect_first","0","er06ge01","0","20","1","1","1","1","null","","","<div style=""font-size:60px;"">+</div>","null","","","","","","","","","",""
"","html-keyboard-response","119","469603","0.0-8.0-1.7","ha76c9uznm","many_one","0","indirect_first","0","er06ge01","0","20","1","1","1","1","null","","","<img src = 'category2/CS5.png' width = '100%;'>","null","","","","","","","","","",""
"","html-keyboard-response","120","469884","0.0-8.0-2.7","ha76c9uznm","many_one","0","indirect_first","0","er06ge01","0","20","1","1","1","1","null","","","<img src = 'targets/42.png' width = '100%;'>","null","","","","","","","","","",""
"","html-keyboard-response","121","471479","0.0-8.0-3.7","ha76c9uznm","many_one","0","indirect_first","0","er06ge01","0","20","1","1","1","1","1594","","","<img src = 'targets/mask.png' width = '100%;'>","68","neg","CS","CS","2","category2/CS5.png","targets/42.png","0","indirect","7",""
"","html-keyboard-response","122","473004","0.0-8.0-0.8","ha76c9uznm","many_one","0","indirect_first","0","er06ge01","0","20","1","1","1","1","null","","","<div style=""font-size:60px;"">+</div>","null","","","","","","","","","",""
"","html-keyboard-response","123","473104","0.0-8.0-1.8","ha76c9uznm","many_one","0","indirect_first","0","er06ge01","0","20","1","1","1","1","null","","","<img src = 'category2/CS4.png' width = '100%;'>","null","","","","","","","","","",""
"","html-keyboard-response","124","473383","0.0-8.0-2.8","ha76c9uznm","many_one","0","indirect_first","0","er06ge01","0","20","1","1","1","1","null","","","<img src = 'targets/30.png' width = '100%;'>","null","","","","","","","","","",""
"","html-keyboard-response","125","474415","0.0-8.0-3.8","ha76c9uznm","many_one","0","indirect_first","0","er06ge01","0","20","1","1","1","1","1031","","","<img src = 'targets/mask.png' width = '100%;'>","75","neg","GS","GSold","2","category2/CS4.png","targets/30.png","1","indirect","8",""
"","html-keyboard-response","126","475954","0.0-8.0-0.9","ha76c9uznm","many_one","0","indirect_first","0","er06ge01","0","20","1","1","1","1","null","","","<div style=""font-size:60px;"">+</div>","null","","","","","","","","","",""
"","html-keyboard-response","127","476054","0.0-8.0-1.9","ha76c9uznm","many_one","0","indirect_first","0","er06ge01","0","20","1","1","1","1","null","","","<img src = 'category1/CS2.png' width = '100%;'>","null","","","","","","","","","",""
"","html-keyboard-response","128","476334","0.0-8.0-2.9","ha76c9uznm","many_one","0","indirect_first","0","er06ge01","0","20","1","1","1","1","null","","","<img src = 'targets/33.png' width = '100%;'>","null","","","","","","","","","",""
"","html-keyboard-response","129","477567","0.0-8.0-3.9","ha76c9uznm","many_one","0","indirect_first","0","er06ge01","0","20","1","1","1","1","1231","","","<img src = 'targets/mask.png' width = '100%;'>","75","pos","CS","CS","1","category1/CS2.png","targets/33.png","1","indirect","9",""
"","html-keyboard-response","130","479083","0.0-8.0-0.10","ha76c9uznm","many_one","0","indirect_first","0","er06ge01","0","20","1","1","1","1","null","","","<div style=""font-size:60px;"">+</div>","null","","","","","","","","","",""
"","html-keyboard-response","131","479184","0.0-8.0-1.10","ha76c9uznm","many_one","0","indirect_first","0","er06ge01","0","20","1","1","1","1","null","","","<img src = 'category4/CS5.png' width = '100%;'>","null","","","","","","","","","",""
"","html-keyboard-response","132","479464","0.0-8.0-2.10","ha76c9uznm","many_one","0","indirect_first","0","er06ge01","0","20","1","1","1","1","null","","","<img src = 'targets/39.png' width = '100%;'>","null","","","","","","","","","",""
"","html-keyboard-response","133","480391","0.0-8.0-3.10","ha76c9uznm","many_one","0","indirect_first","0","er06ge01","0","20","1","1","1","1","926","","","<img src = 'targets/mask.png' width = '100%;'>","68","pos","GS","GSold","4","category4/CS5.png","targets/39.png","0","indirect","10",""
"","html-keyboard-response","134","481923","0.0-8.0-0.11","ha76c9uznm","many_one","0","indirect_first","0","er06ge01","0","20","1","1","1","1","null","","","<div style=""font-size:60px;"">+</div>","null","","","","","","","","","",""
"","html-keyboard-response","135","482023","0.0-8.0-1.11","ha76c9uznm","many_one","0","indirect_first","0","er06ge01","0","20","1","1","1","1","null","","","<img src = 'category4/CS4.png' width = '100%;'>","null","","","","","","","","","",""
"","html-keyboard-response","136","482303","0.0-8.0-2.11","ha76c9uznm","many_one","0","indirect_first","0","er06ge01","0","20","1","1","1","1","null","","","<img src = 'targets/20.png' width = '100%;'>","null","","","","","","","","","",""
"","html-keyboard-response","137","483951","0.0-8.0-3.11","ha76c9uznm","many_one","0","indirect_first","0","er06ge01","0","20","1","1","1","1","1646","","","<img src = 'targets/mask.png' width = '100%;'>","75","pos","CS","CS","4","category4/CS4.png","targets/20.png","1","indirect","11",""
"","html-keyboard-response","138","485464","0.0-8.0-0.12","ha76c9uznm","many_one","0","indirect_first","0","er06ge01","0","20","1","1","1","1","null","","","<div style=""font-size:60px;"">+</div>","null","","","","","","","","","",""
"","html-keyboard-response","139","485563","0.0-8.0-1.12","ha76c9uznm","many_one","0","indirect_first","0","er06ge01","0","20","1","1","1","1","null","","","<img src = 'category2/CS3.png' width = '100%;'>","null","","","","","","","","","",""
"","html-keyboard-response","140","485843","0.0-8.0-2.12","ha76c9uznm","many_one","0","indirect_first","0","er06ge01","0","20","1","1","1","1","null","","","<img src = 'targets/46.png' width = '100%;'>","null","","","","","","","","","",""
"","html-keyboard-response","141","486511","0.0-8.0-3.12","ha76c9uznm","many_one","0","indirect_first","0","er06ge01","0","20","1","1","1","1","667","","","<img src = 'targets/mask.png' width = '100%;'>","75","neg","CS","CS","2","category2/CS3.png","targets/46.png","1","indirect","12",""
"","html-keyboard-response","142","488044","0.0-8.0-0.13","ha76c9uznm","many_one","0","indirect_first","0","er06ge01","0","20","1","1","1","1","null","","","<div style=""font-size:60px;"">+</div>","null","","","","","","","","","",""
"","html-keyboard-response","143","488144","0.0-8.0-1.13","ha76c9uznm","many_one","0","indirect_first","0","er06ge01","0","20","1","1","1","1","null","","","<img src = 'category2/CS10.png' width = '100%;'>","null","","","","","","","","","",""
"","html-keyboard-response","144","488424","0.0-8.0-2.13","ha76c9uznm","many_one","0","indirect_first","0","er06ge01","0","20","1","1","1","1","null","","","<img src = 'targets/22.png' width = '100%;'>","null","","","","","","","","","",""
"","html-keyboard-response","145","489359","0.0-8.0-3.13","ha76c9uznm","many_one","0","indirect_first","0","er06ge01","0","20","1","1","1","1","935","","","<img src = 'targets/mask.png' width = '100%;'>","75","neg","CS","CS","2","category2/CS10.png","targets/22.png","1","indirect","13",""
"","html-keyboard-response","146","490883","0.0-8.0-0.14","ha76c9uznm","many_one","0","indirect_first","0","er06ge01","0","20","1","1","1","1","null","","","<div style=""font-size:60px;"">+</div>","null","","","","","","","","","",""
"","html-keyboard-response","147","490984","0.0-8.0-1.14","ha76c9uznm","many_one","0","indirect_first","0","er06ge01","0","20","1","1","1","1","null","","","<img src = 'category2/CS7.png' width = '100%;'>","null","","","","","","","","","",""
"","html-keyboard-response","148","491264","0.0-8.0-2.14","ha76c9uznm","many_one","0","indirect_first","0","er06ge01","0","20","1","1","1","1","null","","","<img src = 'targets/43.png' width = '100%;'>","null","","","","","","","","","",""
"","html-keyboard-response","149","492567","0.0-8.0-3.14","ha76c9uznm","many_one","0","indirect_first","0","er06ge01","0","20","1","1","1","1","1302","","","<img src = 'targets/mask.png' width = '100%;'>","75","neg","CS","CS","2","category2/CS7.png","targets/43.png","1","indirect","14",""
"","html-keyboard-response","150","494084","0.0-8.0-0.15","ha76c9uznm","many_one","0","indirect_first","0","er06ge01","0","20","1","1","1","1","null","","","<div style=""font-size:60px;"">+</div>","null","","","","","","","","","",""
"","html-keyboard-response","151","494183","0.0-8.0-1.15","ha76c9uznm","many_one","0","indirect_first","0","er06ge01","0","20","1","1","1","1","null","","","<img src = 'category2/CS8.png' width = '100%;'>","null","","","","","","","","","",""
"","html-keyboard-response","152","494464","0.0-8.0-2.15","ha76c9uznm","many_one","0","indirect_first","0","er06ge01","0","20","1","1","1","1","null","","","<img src = 'targets/5.png' width = '100%;'>","null","","","","","","","","","",""
"","html-keyboard-response","153","495704","0.0-8.0-3.15","ha76c9uznm","many_one","0","indirect_first","0","er06ge01","0","20","1","1","1","1","1238","","","<img src = 'targets/mask.png' width = '100%;'>","68","neg","GS","GSold","2","category2/CS8.png","targets/5.png","0","indirect","15",""
"","html-keyboard-response","154","497223","0.0-8.0-0.16","ha76c9uznm","many_one","0","indirect_first","0","er06ge01","0","20","1","1","1","1","null","","","<div style=""font-size:60px;"">+</div>","null","","","","","","","","","",""
"","html-keyboard-response","155","497323","0.0-8.0-1.16","ha76c9uznm","many_one","0","indirect_first","0","er06ge01","0","20","1","1","1","1","null","","","<img src = 'category4/CS2.png' width = '100%;'>","null","","","","","","","","","",""
"","html-keyboard-response","156","497604","0.0-8.0-2.16","ha76c9uznm","many_one","0","indirect_first","0","er06ge01","0","20","1","1","1","1","null","","","<img src = 'targets/24.png' width = '100%;'>","null","","","","","","","","","",""
"","html-keyboard-response","157","499583","0.0-8.0-3.16","ha76c9uznm","many_one","0","indirect_first","0","er06ge01","0","20","1","1","1","1","1978","","","<img src = 'targets/mask.png' width = '100%;'>","68","pos","CS","CS","4","category4/CS2.png","targets/24.png","0","indirect","16",""
"","html-keyboard-response","158","501124","0.0-8.0-0.17","ha76c9uznm","many_one","0","indirect_first","0","er06ge01","0","20","1","1","1","1","null","","","<div style=""font-size:60px;"">+</div>","null","","","","","","","","","",""
"","html-keyboard-response","159","501223","0.0-8.0-1.17","ha76c9uznm","many_one","0","indirect_first","0","er06ge01","0","20","1","1","1","1","null","","","<img src = 'category1/CS6.png' width = '100%;'>","null","","","","","","","","","",""
"","html-keyboard-response","160","501504","0.0-8.0-2.17","ha76c9uznm","many_one","0","indirect_first","0","er06ge01","0","20","1","1","1","1","null","","","<img src = 'targets/32.png' width = '100%;'>","null","","","","","","","","","",""
"","html-keyboard-response","161","503039","0.0-8.0-3.17","ha76c9uznm","many_one","0","indirect_first","0","er06ge01","0","20","1","1","1","1","1534","","","<img src = 'targets/mask.png' width = '100%;'>","75","pos","CS","CS","1","category1/CS6.png","targets/32.png","1","indirect","17",""
"","html-keyboard-response","162","504563","0.0-8.0-0.18","ha76c9uznm","many_one","0","indirect_first","0","er06ge01","0","20","1","1","1","1","null","","","<div style=""font-size:60px;"">+</div>","null","","","","","","","","","",""
"","html-keyboard-response","163","504664","0.0-8.0-1.18","ha76c9uznm","many_one","0","indirect_first","0","er06ge01","0","20","1","1","1","1","null","","","<img src = 'category1/CS8.png' width = '100%;'>","null","","","","","","","","","",""
"","html-keyboard-response","164","504943","0.0-8.0-2.18","ha76c9uznm","many_one","0","indirect_first","0","er06ge01","0","20","1","1","1","1","null","","","<img src = 'targets/4.png' width = '100%;'>","null","","","","","","","","","",""
"","html-keyboard-response","165","506112","0.0-8.0-3.18","ha76c9uznm","many_one","0","indirect_first","0","er06ge01","0","20","1","1","1","1","1167","","","<img src = 'targets/mask.png' width = '100%;'>","75","pos","CS","CS","1","category1/CS8.png","targets/4.png","1","indirect","18",""
"","html-keyboard-response","166","507643","0.0-8.0-0.19","ha76c9uznm","many_one","0","indirect_first","0","er06ge01","0","20","1","1","1","1","null","","","<div style=""font-size:60px;"">+</div>","null","","","","","","","","","",""
"","html-keyboard-response","167","507743","0.0-8.0-1.19","ha76c9uznm","many_one","0","indirect_first","0","er06ge01","0","20","1","1","1","1","null","","","<img src = 'category4/CS10.png' width = '100%;'>","null","","","","","","","","","",""
"","html-keyboard-response","168","508024","0.0-8.0-2.19","ha76c9uznm","many_one","0","indirect_first","0","er06ge01","0","20","1","1","1","1","null","","","<img src = 'targets/8.png' width = '100%;'>","null","","","","","","","","","",""
"","html-keyboard-response","169","508944","0.0-8.0-3.19","ha76c9uznm","many_one","0","indirect_first","0","er06ge01","0","20","1","1","1","1","918","","","<img src = 'targets/mask.png' width = '100%;'>","75","pos","CS","CS","4","category4/CS10.png","targets/8.png","1","indirect","19",""
"","html-keyboard-response","170","510483","0.0-8.0-0.20","ha76c9uznm","many_one","0","indirect_first","0","er06ge01","0","20","1","1","1","1","null","","","<div style=""font-size:60px;"">+</div>","null","","","","","","","","","",""
"","html-keyboard-response","171","510584","0.0-8.0-1.20","ha76c9uznm","many_one","0","indirect_first","0","er06ge01","0","20","1","1","1","1","null","","","<img src = 'category3/CS6.png' width = '100%;'>","null","","","","","","","","","",""
"","html-keyboard-response","172","510863","0.0-8.0-2.20","ha76c9uznm","many_one","0","indirect_first","0","er06ge01","0","20","1","1","1","1","null","","","<img src = 'targets/13.png' width = '100%;'>","null","","","","","","","","","",""
"","html-keyboard-response","173","512415","0.0-8.0-3.20","ha76c9uznm","many_one","0","indirect_first","0","er06ge01","0","20","1","1","1","1","1551","","","<img src = 'targets/mask.png' width = '100%;'>","75","neg","CS","CS","3","category3/CS6.png","targets/13.png","1","indirect","20",""
"","html-keyboard-response","174","513943","0.0-8.0-0.21","ha76c9uznm","many_one","0","indirect_first","0","er06ge01","0","20","1","1","1","1","null","","","<div style=""font-size:60px;"">+</div>","null","","","","","","","","","",""
"","html-keyboard-response","175","514044","0.0-8.0-1.21","ha76c9uznm","many_one","0","indirect_first","0","er06ge01","0","20","1","1","1","1","null","","","<img src = 'category4/CS7.png' width = '100%;'>","null","","","","","","","","","",""
"","html-keyboard-response","176","514324","0.0-8.0-2.21","ha76c9uznm","many_one","0","indirect_first","0","er06ge01","0","20","1","1","1","1","null","","","<img src = 'targets/17.png' width = '100%;'>","null","","","","","","","","","",""
"","html-keyboard-response","177","515495","0.0-8.0-3.21","ha76c9uznm","many_one","0","indirect_first","0","er06ge01","0","20","1","1","1","1","1170","","","<img src = 'targets/mask.png' width = '100%;'>","68","pos","CS","CS","4","category4/CS7.png","targets/17.png","0","indirect","21",""
"","html-keyboard-response","178","517023","0.0-8.0-0.22","ha76c9uznm","many_one","0","indirect_first","0","er06ge01","0","20","1","1","1","1","null","","","<div style=""font-size:60px;"">+</div>","null","","","","","","","","","",""
"","html-keyboard-response","179","517123","0.0-8.0-1.22","ha76c9uznm","many_one","0","indirect_first","0","er06ge01","0","20","1","1","1","1","null","","","<img src = 'category3/CS7.png' width = '100%;'>","null","","","","","","","","","",""
"","html-keyboard-response","180","517404","0.0-8.0-2.22","ha76c9uznm","many_one","0","indirect_first","0","er06ge01","0","20","1","1","1","1","null","","","<img src = 'targets/15.png' width = '100%;'>","null","","","","","","","","","",""
"","html-keyboard-response","181","519295","0.0-8.0-3.22","ha76c9uznm","many_one","0","indirect_first","0","er06ge01","0","20","1","1","1","1","1890","","","<img src = 'targets/mask.png' width = '100%;'>","75","neg","CS","CS","3","category3/CS7.png","targets/15.png","1","indirect","22",""
"","html-keyboard-response","182","520823","0.0-8.0-0.23","ha76c9uznm","many_one","0","indirect_first","0","er06ge01","0","20","1","1","1","1","null","","","<div style=""font-size:60px;"">+</div>","null","","","","","","","","","",""
"","html-keyboard-response","183","520924","0.0-8.0-1.23","ha76c9uznm","many_one","0","indirect_first","0","er06ge01","0","20","1","1","1","1","null","","","<img src = 'category1/CS7.png' width = '100%;'>","null","","","","","","","","","",""
"","html-keyboard-response","184","521190","0.0-8.0-2.23","ha76c9uznm","many_one","0","indirect_first","0","er06ge01","0","20","1","1","1","1","null","","","<img src = 'targets/9.png' width = '100%;'>","null","","","","","","","","","",""
"","html-keyboard-response","185","522640","0.0-8.0-3.23","ha76c9uznm","many_one","0","indirect_first","0","er06ge01","0","20","1","1","1","1","1448","","","<img src = 'targets/mask.png' width = '100%;'>","75","pos","CS","CS","1","category1/CS7.png","targets/9.png","1","indirect","23",""
"","survey-html-form","186","528463","0.0-9.0","ha76c9uznm","many_one","0","indirect_first","0","er06ge01","0","20","1","1","1","1","5319","","{}","","","","","","","","","","","",""
"","html-keyboard-response","187","531484","0.0-10.0-0.0","ha76c9uznm","many_one","0","indirect_first","0","er06ge01","0","20","1","1","1","1","null","","","<div style=""font-size:60px;"">+</div>","null","","","","","","","","","",""
"","html-keyboard-response","188","531583","0.0-10.0-1.0","ha76c9uznm","many_one","0","indirect_first","0","er06ge01","0","20","1","1","1","1","null","","","<img src = 'category4/lin.png' width = '100%;'>","null","","","","","","","","","",""
"","html-keyboard-response","189","531864","0.0-10.0-2.0","ha76c9uznm","many_one","0","indirect_first","0","er06ge01","0","20","1","1","1","1","null","","","<img src = 'targets/11.png' width = '100%;'>","null","","","","","","","","","",""
"","html-keyboard-response","190","534127","0.0-10.0-3.0","ha76c9uznm","many_one","0","indirect_first","0","er06ge01","0","20","1","1","1","1","2262","","","<img src = 'targets/mask.png' width = '100%;'>","68","pos","GS","abstract","4","category4/lin.png","targets/11.png","0","indirect","24",""
"","html-keyboard-response","191","535664","0.0-10.0-0.1","ha76c9uznm","many_one","0","indirect_first","0","er06ge01","0","20","1","1","1","1","null","","","<div style=""font-size:60px;"">+</div>","null","","","","","","","","","",""
"","html-keyboard-response","192","535763","0.0-10.0-1.1","ha76c9uznm","many_one","0","indirect_first","0","er06ge01","0","20","1","1","1","1","null","","","<img src = 'category3/wang.png' width = '100%;'>","null","","","","","","","","","",""
"","html-keyboard-response","193","536044","0.0-10.0-2.1","ha76c9uznm","many_one","0","indirect_first","0","er06ge01","0","20","1","1","1","1","null","","","<img src = 'targets/28.png' width = '100%;'>","null","","","","","","","","","",""
"","html-keyboard-response","194","539863","0.0-10.0-3.1","ha76c9uznm","many_one","0","indirect_first","0","er06ge01","0","20","1","1","1","1","3819","","","<img src = 'targets/mask.png' width = '100%;'>","75","neg","GS","abstract","3","category3/wang.png","targets/28.png","1","indirect","25",""
"","html-keyboard-response","195","541403","0.0-10.0-0.2","ha76c9uznm","many_one","0","indirect_first","0","er06ge01","0","20","1","1","1","1","null","","","<div style=""font-size:60px;"">+</div>","null","","","","","","","","","",""
"","html-keyboard-response","196","541504","0.0-10.0-1.2","ha76c9uznm","many_one","0","indirect_first","0","er06ge01","0","20","1","1","1","1","null","","","<img src = 'category2/GS1.png' width = '100%;'>","null","","","","","","","","","",""
"","html-keyboard-response","197","541784","0.0-10.0-2.2","ha76c9uznm","many_one","0","indirect_first","0","er06ge01","0","20","1","1","1","1","null","","","<img src = 'targets/31.png' width = '100%;'>","null","","","","","","","","","",""
"","html-keyboard-response","198","542646","0.0-10.0-3.2","ha76c9uznm","many_one","0","indirect_first","0","er06ge01","0","20","1","1","1","1","862","","","<img src = 'targets/mask.png' width = '100%;'>","68","neg","GS","GSnew","2","category2/GS1.png","targets/31.png","0","indirect","26",""
"","html-keyboard-response","199","544183","0.0-10.0-0.3","ha76c9uznm","many_one","0","indirect_first","0","er06ge01","0","20","1","1","1","1","null","","","<div style=""font-size:60px;"">+</div>","null","","","","","","","","","",""
"","html-keyboard-response","200","544283","0.0-10.0-1.3","ha76c9uznm","many_one","0","indirect_first","0","er06ge01","0","20","1","1","1","1","null","","","<img src = 'category1/ma.png' width = '100%;'>","null","","","","","","","","","",""
"","html-keyboard-response","201","544563","0.0-10.0-2.3","ha76c9uznm","many_one","0","indirect_first","0","er06ge01","0","20","1","1","1","1","null","","","<img src = 'targets/37.png' width = '100%;'>","null","","","","","","","","","",""
"","html-keyboard-response","202","545575","0.0-10.0-3.3","ha76c9uznm","many_one","0","indirect_first","0","er06ge01","0","20","1","1","1","1","1010","","","<img src = 'targets/mask.png' width = '100%;'>","68","pos","GS","abstract","1","category1/ma.png","targets/37.png","0","indirect","27",""
"","html-keyboard-response","203","547104","0.0-10.0-0.4","ha76c9uznm","many_one","0","indirect_first","0","er06ge01","0","20","1","1","1","1","null","","","<div style=""font-size:60px;"">+</div>","null","","","","","","","","","",""
"","html-keyboard-response","204","547203","0.0-10.0-1.4","ha76c9uznm","many_one","0","indirect_first","0","er06ge01","0","20","1","1","1","1","null","","","<img src = 'category1/CS4.png' width = '100%;'>","null","","","","","","","","","",""
"","html-keyboard-response","205","547483","0.0-10.0-2.4","ha76c9uznm","many_one","0","indirect_first","0","er06ge01","0","20","1","1","1","1","null","","","<img src = 'targets/2.png' width = '100%;'>","null","","","","","","","","","",""
"","html-keyboard-response","206","548735","0.0-10.0-3.4","ha76c9uznm","many_one","0","indirect_first","0","er06ge01","0","20","1","1","1","1","1250","","","<img src = 'targets/mask.png' width = '100%;'>","68","pos","GS","GSold","1","category1/CS4.png","targets/2.png","0","indirect","28",""
"","html-keyboard-response","207","550264","0.0-10.0-0.5","ha76c9uznm","many_one","0","indirect_first","0","er06ge01","0","20","1","1","1","1","null","","","<div style=""font-size:60px;"">+</div>","null","","","","","","","","","",""
"","html-keyboard-response","208","550364","0.0-10.0-1.5","ha76c9uznm","many_one","0","indirect_first","0","er06ge01","0","20","1","1","1","1","null","","","<img src = 'category4/GS1.png' width = '100%;'>","null","","","","","","","","","",""
"","html-keyboard-response","209","550639","0.0-10.0-2.5","ha76c9uznm","many_one","0","indirect_first","0","er06ge01","0","20","1","1","1","1","null","","","<img src = 'targets/25.png' width = '100%;'>","null","","","","","","","","","",""
"","html-keyboard-response","210","551295","0.0-10.0-3.5","ha76c9uznm","many_one","0","indirect_first","0","er06ge01","0","20","1","1","1","1","655","","","<img src = 'targets/mask.png' width = '100%;'>","75","pos","GS","GSnew","4","category4/GS1.png","targets/25.png","1","indirect","29",""
"","html-keyboard-response","211","552804","0.0-10.0-0.6","ha76c9uznm","many_one","0","indirect_first","0","er06ge01","0","20","1","1","1","1","null","","","<div style=""font-size:60px;"">+</div>","null","","","","","","","","","",""
"","html-keyboard-response","212","552904","0.0-10.0-1.6","ha76c9uznm","many_one","0","indirect_first","0","er06ge01","0","20","1","1","1","1","null","","","<img src = 'category1/GS1.png' width = '100%;'>","null","","","","","","","","","",""
"","html-keyboard-response","213","553184","0.0-10.0-2.6","ha76c9uznm","many_one","0","indirect_first","0","er06ge01","0","20","1","1","1","1","null","","","<img src = 'targets/26.png' width = '100%;'>","null","","","","","","","","","",""
"","html-keyboard-response","214","554095","0.0-10.0-3.6","ha76c9uznm","many_one","0","indirect_first","0","er06ge01","0","20","1","1","1","1","911","","","<img src = 'targets/mask.png' width = '100%;'>","68","pos","GS","GSnew","1","category1/GS1.png","targets/26.png","0","indirect","30",""
"","html-keyboard-response","215","555623","0.0-10.0-0.7","ha76c9uznm","many_one","0","indirect_first","0","er06ge01","0","20","1","1","1","1","null","","","<div style=""font-size:60px;"">+</div>","null","","","","","","","","","",""
"","html-keyboard-response","216","555723","0.0-10.0-1.7","ha76c9uznm","many_one","0","indirect_first","0","er06ge01","0","20","1","1","1","1","null","","","<img src = 'category1/CS10.png' width = '100%;'>","null","","","","","","","","","",""
"","html-keyboard-response","217","556004","0.0-10.0-2.7","ha76c9uznm","many_one","0","indirect_first","0","er06ge01","0","20","1","1","1","1","null","","","<img src = 'targets/7.png' width = '100%;'>","null","","","","","","","","","",""
"","html-keyboard-response","218","557247","0.0-10.0-3.7","ha76c9uznm","many_one","0","indirect_first","0","er06ge01","0","20","1","1","1","1","1242","","","<img src = 'targets/mask.png' width = '100%;'>","68","pos","GS","GSold","1","category1/CS10.png","targets/7.png","0","indirect","31",""
"","html-keyboard-response","219","558762","0.0-10.0-0.8","ha76c9uznm","many_one","0","indirect_first","0","er06ge01","0","20","1","1","1","1","null","","","<div style=""font-size:60px;"">+</div>","null","","","","","","","","","",""
"","html-keyboard-response","220","558863","0.0-10.0-1.8","ha76c9uznm","many_one","0","indirect_first","0","er06ge01","0","20","1","1","1","1","null","","","<img src = 'category3/CS10.png' width = '100%;'>","null","","","","","","","","","",""
"","html-keyboard-response","221","559144","0.0-10.0-2.8","ha76c9uznm","many_one","0","indirect_first","0","er06ge01","0","20","1","1","1","1","null","","","<img src = 'targets/40.png' width = '100%;'>","null","","","","","","","","","",""
"","html-keyboard-response","222","559943","0.0-10.0-3.8","ha76c9uznm","many_one","0","indirect_first","0","er06ge01","0","20","1","1","1","1","798","","","<img src = 'targets/mask.png' width = '100%;'>","75","neg","GS","GSold","3","category3/CS10.png","targets/40.png","1","indirect","32",""
"","html-keyboard-response","223","561483","0.0-10.0-0.9","ha76c9uznm","many_one","0","indirect_first","0","er06ge01","0","20","1","1","1","1","null","","","<div style=""font-size:60px;"">+</div>","null","","","","","","","","","",""
"","html-keyboard-response","224","561583","0.0-10.0-1.9","ha76c9uznm","many_one","0","indirect_first","0","er06ge01","0","20","1","1","1","1","null","","","<img src = 'category1/GS3.png' width = '100%;'>","null","","","","","","","","","",""
"","html-keyboard-response","225","561863","0.0-10.0-2.9","ha76c9uznm","many_one","0","indirect_first","0","er06ge01","0","20","1","1","1","1","null","","","<img src = 'targets/23.png' width = '100%;'>","null","","","","","","","","","",""
"","html-keyboard-response","226","562887","0.0-10.0-3.9","ha76c9uznm","many_one","0","indirect_first","0","er06ge01","0","20","1","1","1","1","1022","","","<img src = 'targets/mask.png' width = '100%;'>","75","pos","GS","GSnew","1","category1/GS3.png","targets/23.png","1","indirect","33",""
"","html-keyboard-response","227","564404","0.0-10.0-0.10","ha76c9uznm","many_one","0","indirect_first","0","er06ge01","0","20","1","1","1","1","null","","","<div style=""font-size:60px;"">+</div>","null","","","","","","","","","",""
"","html-keyboard-response","228","564503","0.0-10.0-1.10","ha76c9uznm","many_one","0","indirect_first","0","er06ge01","0","20","1","1","1","1","null","","","<img src = 'category2/men.png' width = '100%;'>","null","","","","","","","","","",""
"","html-keyboard-response","229","564783","0.0-10.0-2.10","ha76c9uznm","many_one","0","indirect_first","0","er06ge01","0","20","1","1","1","1","null","","","<img src = 'targets/41.png' width = '100%;'>","null","","","","","","","","","",""
"","html-keyboard-response","230","565607","0.0-10.0-3.10","ha76c9uznm","many_one","0","indirect_first","0","er06ge01","0","20","1","1","1","1","822","","","<img src = 'targets/mask.png' width = '100%;'>","68","neg","GS","abstract","2","category2/men.png","targets/41.png","0","indirect","34",""
"","html-keyboard-response","231","567144","0.0-10.0-0.11","ha76c9uznm","many_one","0","indirect_first","0","er06ge01","0","20","1","1","1","1","null","","","<div style=""font-size:60px;"">+</div>","null","","","","","","","","","",""
"","html-keyboard-response","232","567243","0.0-10.0-1.11","ha76c9uznm","many_one","0","indirect_first","0","er06ge01","0","20","1","1","1","1","null","","","<img src = 'category1/GS2.png' width = '100%;'>","null","","","","","","","","","",""
"","html-keyboard-response","233","567524","0.0-10.0-2.11","ha76c9uznm","many_one","0","indirect_first","0","er06ge01","0","20","1","1","1","1","null","","","<img src = 'targets/35.png' width = '100%;'>","null","","","","","","","","","",""
"","html-keyboard-response","234","568399","0.0-10.0-3.11","ha76c9uznm","many_one","0","indirect_first","0","er06ge01","0","20","1","1","1","1","874","","","<img src = 'targets/mask.png' width = '100%;'>","75","pos","GS","GSnew","1","category1/GS2.png","targets/35.png","1","indirect","35",""
"","html-keyboard-response","235","569923","0.0-10.0-0.12","ha76c9uznm","many_one","0","indirect_first","0","er06ge01","0","20","1","1","1","1","null","","","<div style=""font-size:60px;"">+</div>","null","","","","","","","","","",""
"","html-keyboard-response","236","570024","0.0-10.0-1.12","ha76c9uznm","many_one","0","indirect_first","0","er06ge01","0","20","1","1","1","1","null","","","<img src = 'category3/GS1.png' width = '100%;'>","null","","","","","","","","","",""
"","html-keyboard-response","237","570304","0.0-10.0-2.12","ha76c9uznm","many_one","0","indirect_first","0","er06ge01","0","20","1","1","1","1","null","","","<img src = 'targets/1.png' width = '100%;'>","null","","","","","","","","","",""
"","html-keyboard-response","238","571631","0.0-10.0-3.12","ha76c9uznm","many_one","0","indirect_first","0","er06ge01","0","20","1","1","1","1","1327","","","<img src = 'targets/mask.png' width = '100%;'>","68","neg","GS","GSnew","3","category3/GS1.png","targets/1.png","0","indirect","36",""
"","html-keyboard-response","239","573143","0.0-10.0-0.13","ha76c9uznm","many_one","0","indirect_first","0","er06ge01","0","20","1","1","1","1","null","","","<div style=""font-size:60px;"">+</div>","null","","","","","","","","","",""
"","html-keyboard-response","240","573244","0.0-10.0-1.13","ha76c9uznm","many_one","0","indirect_first","0","er06ge01","0","20","1","1","1","1","null","","","<img src = 'category4/GS2.png' width = '100%;'>","null","","","","","","","","","",""
"","html-keyboard-response","241","573524","0.0-10.0-2.13","ha76c9uznm","many_one","0","indirect_first","0","er06ge01","0","20","1","1","1","1","null","","","<img src = 'targets/29.png' width = '100%;'>","null","","","","","","","","","",""
"","html-keyboard-response","242","574703","0.0-10.0-3.13","ha76c9uznm","many_one","0","indirect_first","0","er06ge01","0","20","1","1","1","1","1178","","","<img src = 'targets/mask.png' width = '100%;'>","75","pos","GS","GSnew","4","category4/GS2.png","targets/29.png","1","indirect","37",""
"","html-keyboard-response","243","576233","0.0-10.0-0.14","ha76c9uznm","many_one","0","indirect_first","0","er06ge01","0","20","1","1","1","1","null","","","<div style=""font-size:60px;"">+</div>","null","","","","","","","","","",""
"","html-keyboard-response","244","576333","0.0-10.0-1.14","ha76c9uznm","many_one","0","indirect_first","0","er06ge01","0","20","1","1","1","1","null","","","<img src = 'category3/CS3.png' width = '100%;'>","null","","","","","","","","","",""
"","html-keyboard-response","245","576614","0.0-10.0-2.14","ha76c9uznm","many_one","0","indirect_first","0","er06ge01","0","20","1","1","1","1","null","","","<img src = 'targets/16.png' width = '100%;'>","null","","","","","","","","","",""
"","html-keyboard-response","246","577495","0.0-10.0-3.14","ha76c9uznm","many_one","0","indirect_first","0","er06ge01","0","20","1","1","1","1","878","","","<img src = 'targets/mask.png' width = '100%;'>","68","neg","GS","GSold","3","category3/CS3.png","targets/16.png","0","indirect","38",""
"","html-keyboard-response","247","579034","0.0-10.0-0.15","ha76c9uznm","many_one","0","indirect_first","0","er06ge01","0","20","1","1","1","1","null","","","<div style=""font-size:60px;"">+</div>","null","","","","","","","","","",""
"","html-keyboard-response","248","579134","0.0-10.0-1.15","ha76c9uznm","many_one","0","indirect_first","0","er06ge01","0","20","1","1","1","1","null","","","<img src = 'category2/GS2.png' width = '100%;'>","null","","","","","","","","","",""
"","html-keyboard-response","249","579414","0.0-10.0-2.15","ha76c9uznm","many_one","0","indirect_first","0","er06ge01","0","20","1","1","1","1","null","","","<img src = 'targets/6.png' width = '100%;'>","null","","","","","","","","","",""
"","html-keyboard-response","250","580951","0.0-10.0-3.15","ha76c9uznm","many_one","0","indirect_first","0","er06ge01","0","20","1","1","1","1","1537","","","<img src = 'targets/mask.png' width = '100%;'>","68","neg","GS","GSnew","2","category2/GS2.png","targets/6.png","0","indirect","39",""
"","html-keyboard-response","251","582463","0.0-10.0-0.16","ha76c9uznm","many_one","0","indirect_first","0","er06ge01","0","20","1","1","1","1","null","","","<div style=""font-size:60px;"">+</div>","null","","","","","","","","","",""
"","html-keyboard-response","252","582564","0.0-10.0-1.16","ha76c9uznm","many_one","0","indirect_first","0","er06ge01","0","20","1","1","1","1","null","","","<img src = 'category3/GS2.png' width = '100%;'>","null","","","","","","","","","",""
"","html-keyboard-response","253","582829","0.0-10.0-2.16","ha76c9uznm","many_one","0","indirect_first","0","er06ge01","0","20","1","1","1","1","null","","","<img src = 'targets/21.png' width = '100%;'>","null","","","","","","","","","",""
"","html-keyboard-response","254","584767","0.0-10.0-3.16","ha76c9uznm","many_one","0","indirect_first","0","er06ge01","0","20","1","1","1","1","1936","","","<img src = 'targets/mask.png' width = '100%;'>","75","neg","GS","GSnew","3","category3/GS2.png","targets/21.png","1","indirect","40",""
"","html-keyboard-response","255","586303","0.0-10.0-0.17","ha76c9uznm","many_one","0","indirect_first","0","er06ge01","0","20","1","1","1","1","null","","","<div style=""font-size:60px;"">+</div>","null","","","","","","","","","",""
"","html-keyboard-response","256","586404","0.0-10.0-1.17","ha76c9uznm","many_one","0","indirect_first","0","er06ge01","0","20","1","1","1","1","null","","","<img src = 'category3/GS3.png' width = '100%;'>","null","","","","","","","","","",""
"","html-keyboard-response","257","586684","0.0-10.0-2.17","ha76c9uznm","many_one","0","indirect_first","0","er06ge01","0","20","1","1","1","1","null","","","<img src = 'targets/34.png' width = '100%;'>","null","","","","","","","","","",""
"","html-keyboard-response","258","587391","0.0-10.0-3.17","ha76c9uznm","many_one","0","indirect_first","0","er06ge01","0","20","1","1","1","1","707","","","<img src = 'targets/mask.png' width = '100%;'>","68","neg","GS","GSnew","3","category3/GS3.png","targets/34.png","0","indirect","41",""
"","html-keyboard-response","259","588913","0.0-10.0-0.18","ha76c9uznm","many_one","0","indirect_first","0","er06ge01","0","20","1","1","1","1","null","","","<div style=""font-size:60px;"">+</div>","null","","","","","","","","","",""
"","html-keyboard-response","260","589014","0.0-10.0-1.18","ha76c9uznm","many_one","0","indirect_first","0","er06ge01","0","20","1","1","1","1","null","","","<img src = 'category3/CS9.png' width = '100%;'>","null","","","","","","","","","",""
"","html-keyboard-response","261","589293","0.0-10.0-2.18","ha76c9uznm","many_one","0","indirect_first","0","er06ge01","0","20","1","1","1","1","null","","","<img src = 'targets/3.png' width = '100%;'>","null","","","","","","","","","",""
"","html-keyboard-response","262","590871","0.0-10.0-3.18","ha76c9uznm","many_one","0","indirect_first","0","er06ge01","0","20","1","1","1","1","1577","","","<img src = 'targets/mask.png' width = '100%;'>","75","neg","GS","GSold","3","category3/CS9.png","targets/3.png","1","indirect","42",""
"","html-keyboard-response","263","592393","0.0-10.0-0.19","ha76c9uznm","many_one","0","indirect_first","0","er06ge01","0","20","1","1","1","1","null","","","<div style=""font-size:60px;"">+</div>","null","","","","","","","","","",""
"","html-keyboard-response","264","592494","0.0-10.0-1.19","ha76c9uznm","many_one","0","indirect_first","0","er06ge01","0","20","1","1","1","1","null","","","<img src = 'category4/CS8.png' width = '100%;'>","null","","","","","","","","","",""
"","html-keyboard-response","265","592773","0.0-10.0-2.19","ha76c9uznm","many_one","0","indirect_first","0","er06ge01","0","20","1","1","1","1","null","","","<img src = 'targets/47.png' width = '100%;'>","null","","","","","","","","","",""
"","html-keyboard-response","266","593743","0.0-10.0-3.19","ha76c9uznm","many_one","0","indirect_first","0","er06ge01","0","20","1","1","1","1","969","","","<img src = 'targets/mask.png' width = '100%;'>","75","pos","GS","GSold","4","category4/CS8.png","targets/47.png","1","indirect","43",""
"","html-keyboard-response","267","595273","0.0-10.0-0.20","ha76c9uznm","many_one","0","indirect_first","0","er06ge01","0","20","1","1","1","1","null","","","<div style=""font-size:60px;"">+</div>","null","","","","","","","","","",""
"","html-keyboard-response","268","595373","0.0-10.0-1.20","ha76c9uznm","many_one","0","indirect_first","0","er06ge01","0","20","1","1","1","1","null","","","<img src = 'category2/GS3.png' width = '100%;'>","null","","","","","","","","","",""
"","html-keyboard-response","269","595653","0.0-10.0-2.20","ha76c9uznm","many_one","0","indirect_first","0","er06ge01","0","20","1","1","1","1","null","","","<img src = 'targets/10.png' width = '100%;'>","null","","","","","","","","","",""
"","html-keyboard-response","270","596735","0.0-10.0-3.20","ha76c9uznm","many_one","0","indirect_first","0","er06ge01","0","20","1","1","1","1","1081","","","<img src = 'targets/mask.png' width = '100%;'>","68","neg","GS","GSnew","2","category2/GS3.png","targets/10.png","0","indirect","44",""
"","html-keyboard-response","271","598253","0.0-10.0-0.21","ha76c9uznm","many_one","0","indirect_first","0","er06ge01","0","20","1","1","1","1","null","","","<div style=""font-size:60px;"">+</div>","null","","","","","","","","","",""
"","html-keyboard-response","272","598364","0.0-10.0-1.21","ha76c9uznm","many_one","0","indirect_first","0","er06ge01","0","20","1","1","1","1","null","","","<img src = 'category4/GS3.png' width = '100%;'>","null","","","","","","","","","",""
"","html-keyboard-response","273","598643","0.0-10.0-2.21","ha76c9uznm","many_one","0","indirect_first","0","er06ge01","0","20","1","1","1","1","null","","","<img src = 'targets/44.png' width = '100%;'>","null","","","","","","","","","",""
"","html-keyboard-response","274","599735","0.0-10.0-3.21","ha76c9uznm","many_one","0","indirect_first","0","er06ge01","0","20","1","1","1","1","1090","","","<img src = 'targets/mask.png' width = '100%;'>","68","pos","GS","GSnew","4","category4/GS3.png","targets/44.png","0","indirect","45",""
"","html-keyboard-response","275","601274","0.0-10.0-0.22","ha76c9uznm","many_one","0","indirect_first","0","er06ge01","0","20","1","1","1","1","null","","","<div style=""font-size:60px;"">+</div>","null","","","","","","","","","",""
"","html-keyboard-response","276","601373","0.0-10.0-1.22","ha76c9uznm","many_one","0","indirect_first","0","er06ge01","0","20","1","1","1","1","null","","","<img src = 'category4/CS3.png' width = '100%;'>","null","","","","","","","","","",""
"","html-keyboard-response","277","601653","0.0-10.0-2.22","ha76c9uznm","many_one","0","indirect_first","0","er06ge01","0","20","1","1","1","1","null","","","<img src = 'targets/18.png' width = '100%;'>","null","","","","","","","","","",""
"","html-keyboard-response","278","602591","0.0-10.0-3.22","ha76c9uznm","many_one","0","indirect_first","0","er06ge01","0","20","1","1","1","1","937","","","<img src = 'targets/mask.png' width = '100%;'>","68","pos","GS","GSold","4","category4/CS3.png","targets/18.png","0","indirect","46",""
"","html-keyboard-response","279","604113","0.0-10.0-0.23","ha76c9uznm","many_one","0","indirect_first","0","er06ge01","0","20","1","1","1","1","null","","","<div style=""font-size:60px;"">+</div>","null","","","","","","","","","",""
"","html-keyboard-response","280","604213","0.0-10.0-1.23","ha76c9uznm","many_one","0","indirect_first","0","er06ge01","0","20","1","1","1","1","null","","","<img src = 'category1/CS1.png' width = '100%;'>","null","","","","","","","","","",""
"","html-keyboard-response","281","604491","0.0-10.0-2.23","ha76c9uznm","many_one","0","indirect_first","0","er06ge01","0","20","1","1","1","1","null","","","<img src = 'targets/38.png' width = '100%;'>","null","","","","","","","","","",""
"","html-keyboard-response","282","605150","0.0-10.0-3.23","ha76c9uznm","many_one","0","indirect_first","0","er06ge01","0","20","1","1","1","1","658","","","<img src = 'targets/mask.png' width = '100%;'>","75","pos","GS","GSold","1","category1/CS1.png","targets/38.png","1","indirect","47",""
"","survey-html-form","283","616214","0.0-11.0","ha76c9uznm","many_one","0","indirect_first","0","er06ge01","0","20","1","1","1","1","10560","","{}","","","","","","","","","","","",""
"","image-slider-response","284","628525","0.0-12.0-0.0","ha76c9uznm","many_one","0","indirect_first","0","er06ge01","0","20","1","1","1","1","10285","","","","","pos","GS","GSold","1","category1/CS1.png","targets/38.png","","direct","","61"
"","image-slider-response","285","633502","0.0-12.0-0.1","ha76c9uznm","many_one","0","indirect_first","0","er06ge01","0","20","1","1","1","1","4975","","","","","pos","CS","CS","1","category1/CS2.png","targets/33.png","","direct","","38"
"","image-slider-response","286","638086","0.0-12.0-0.2","ha76c9uznm","many_one","0","indirect_first","0","er06ge01","0","20","1","1","1","1","4583","","","","","neg","CS","CS","2","category2/CS7.png","targets/43.png","","direct","","-1"
"","image-slider-response","287","643181","0.0-12.0-0.3","ha76c9uznm","many_one","0","indirect_first","0","er06ge01","0","20","1","1","1","1","5095","","","","","pos","GS","GSnew","4","category4/GS2.png","targets/29.png","","direct","","-8"
"","image-slider-response","288","647774","0.0-12.0-0.4","ha76c9uznm","many_one","0","indirect_first","0","er06ge01","0","20","1","1","1","1","4592","","","","","neg","GS","abstract","3","category3/wang.png","targets/28.png","","direct","","31"
"","image-slider-response","289","653006","0.0-12.0-0.5","ha76c9uznm","many_one","0","indirect_first","0","er06ge01","0","20","1","1","1","1","5230","","","","","pos","CS","CS","1","category1/CS7.png","targets/9.png","","direct","","46"
"","image-slider-response","290","657157","0.0-12.0-0.6","ha76c9uznm","many_one","0","indirect_first","0","er06ge01","0","20","1","1","1","1","4151","","","","","pos","GS","GSnew","1","category1/GS3.png","targets/23.png","","direct","","-25"
"","image-slider-response","291","662005","0.0-12.0-0.7","ha76c9uznm","many_one","0","indirect_first","0","er06ge01","0","20","1","1","1","1","4847","","","","","neg","GS","GSold","3","category3/CS10.png","targets/40.png","","direct","","16"
"","image-slider-response","292","666526","0.0-12.0-0.8","ha76c9uznm","many_one","0","indirect_first","0","er06ge01","0","20","1","1","1","1","4519","","","","","pos","GS","abstract","4","category4/lin.png","targets/11.png","","direct","","73"
"","image-slider-response","293","670782","0.0-12.0-0.9","ha76c9uznm","many_one","0","indirect_first","0","er06ge01","0","20","1","1","1","1","4255","","","","","pos","GS","GSold","4","category4/CS3.png","targets/18.png","","direct","","1"
"","image-slider-response","294","675182","0.0-12.0-0.10","ha76c9uznm","many_one","0","indirect_first","0","er06ge01","0","20","1","1","1","1","4399","","","","","pos","GS","GSold","4","category4/CS5.png","targets/39.png","","direct","","47"
"","image-slider-response","295","679062","0.0-12.0-0.11","ha76c9uznm","many_one","0","indirect_first","0","er06ge01","0","20","1","1","1","1","3879","","","","","neg","GS","GSnew","3","category3/GS1.png","targets/1.png","","direct","","84"
"","image-slider-response","296","684805","0.0-12.0-0.12","ha76c9uznm","many_one","0","indirect_first","0","er06ge01","0","20","1","1","1","1","5742","","","","","neg","CS","CS","2","category2/CS5.png","targets/42.png","","direct","","-8"
"","image-slider-response","297","688014","0.0-12.0-0.13","ha76c9uznm","many_one","0","indirect_first","0","er06ge01","0","20","1","1","1","1","3208","","","","","pos","CS","CS","1","category1/CS9.png","targets/36.png","","direct","","39"
"","image-slider-response","298","691181","0.0-12.0-0.14","ha76c9uznm","many_one","0","indirect_first","0","er06ge01","0","20","1","1","1","1","3167","","","","","pos","GS","GSnew","1","category1/GS1.png","targets/26.png","","direct","","1"
"","image-slider-response","299","693941","0.0-12.0-0.15","ha76c9uznm","many_one","0","indirect_first","0","er06ge01","0","20","1","1","1","1","2759","","","","","neg","CS","CS","3","category3/CS2.png","targets/19.png","","direct","","2"
"","image-slider-response","300","697134","0.0-12.0-0.16","ha76c9uznm","many_one","0","indirect_first","0","er06ge01","0","20","1","1","1","1","3191","","","","","neg","CS","CS","3","category3/CS5.png","targets/27.png","","direct","","-12"
"","image-slider-response","301","703645","0.0-12.0-0.17","ha76c9uznm","many_one","0","indirect_first","0","er06ge01","0","20","1","1","1","1","6510","","","","","pos","CS","CS","1","category1/CS8.png","targets/4.png","","direct","","18"
"","image-slider-response","302","707037","0.0-12.0-0.18","ha76c9uznm","many_one","0","indirect_first","0","er06ge01","0","20","1","1","1","1","3391","","","","","pos","GS","GSnew","4","category4/GS3.png","targets/44.png","","direct","","57"
"","image-slider-response","303","711846","0.0-12.0-0.19","ha76c9uznm","many_one","0","indirect_first","0","er06ge01","0","20","1","1","1","1","4806","","","","","neg","GS","GSold","2","category2/CS4.png","targets/30.png","","direct","","-7"
"","image-slider-response","304","715894","0.0-12.0-0.20","ha76c9uznm","many_one","0","indirect_first","0","er06ge01","0","20","1","1","1","1","4047","","","","","pos","CS","CS","4","category4/CS4.png","targets/20.png","","direct","","100"
"","image-slider-response","305","718294","0.0-12.0-0.21","ha76c9uznm","many_one","0","indirect_first","0","er06ge01","0","20","1","1","1","1","2399","","","","","pos","GS","GSold","4","category4/CS8.png","targets/47.png","","direct","","76"
"","image-slider-response","306","722046","0.0-12.0-0.22","ha76c9uznm","many_one","0","indirect_first","0","er06ge01","0","20","1","1","1","1","3750","","","","","neg","CS","CS","3","category3/CS7.png","targets/15.png","","direct","","-12"
"","image-slider-response","307","724302","0.0-12.0-0.23","ha76c9uznm","many_one","0","indirect_first","0","er06ge01","0","20","1","1","1","1","2255","","","","","pos","CS","CS","4","category4/CS6.png","targets/14.png","","direct","","59"
"","image-slider-response","308","726717","0.0-12.0-0.24","ha76c9uznm","many_one","0","indirect_first","0","er06ge01","0","20","1","1","1","1","2415","","","","","pos","GS","GSnew","1","category1/GS2.png","targets/35.png","","direct","","-8"
"","image-slider-response","309","729270","0.0-12.0-0.25","ha76c9uznm","many_one","0","indirect_first","0","er06ge01","0","20","1","1","1","1","2551","","","","","pos","GS","GSold","1","category1/CS4.png","targets/2.png","","direct","","-4"
"","image-slider-response","310","734078","0.0-12.0-0.26","ha76c9uznm","many_one","0","indirect_first","0","er06ge01","0","20","1","1","1","1","4807","","","","","neg","CS","CS","2","category2/CS3.png","targets/46.png","","direct","","-7"
"","image-slider-response","311","737950","0.0-12.0-0.27","ha76c9uznm","many_one","0","indirect_first","0","er06ge01","0","20","1","1","1","1","3871","","","","","neg","GS","GSnew","2","category2/GS2.png","targets/6.png","","direct","","12"
"","image-slider-response","312","741326","0.0-12.0-0.28","ha76c9uznm","many_one","0","indirect_first","0","er06ge01","0","20","1","1","1","1","3376","","","","","pos","CS","CS","4","category4/CS2.png","targets/24.png","","direct","","19"
"","image-slider-response","313","748510","0.0-12.0-0.29","ha76c9uznm","many_one","0","indirect_first","0","er06ge01","0","20","1","1","1","1","7182","","","","","neg","GS","GSold","2","category2/CS8.png","targets/5.png","","direct","","13"
"","image-slider-response","314","751870","0.0-12.0-0.30","ha76c9uznm","many_one","0","indirect_first","0","er06ge01","0","20","1","1","1","1","3359","","","","","pos","GS","abstract","1","category1/ma.png","targets/37.png","","direct","","2"
"","image-slider-response","315","757005","0.0-12.0-0.31","ha76c9uznm","many_one","0","indirect_first","0","er06ge01","0","20","1","1","1","1","5134","","","","","neg","GS","GSnew","3","category3/GS2.png","targets/21.png","","direct","","28"
"","image-slider-response","316","762837","0.0-12.0-0.32","ha76c9uznm","many_one","0","indirect_first","0","er06ge01","0","20","1","1","1","1","5831","","","","","neg","CS","CS","3","category3/CS4.png","targets/45.png","","direct","","-43"
"","image-slider-response","317","765965","0.0-12.0-0.33","ha76c9uznm","many_one","0","indirect_first","0","er06ge01","0","20","1","1","1","1","3127","","","","","neg","CS","CS","2","category2/CS2.png","targets/48.png","","direct","","-14"
"","image-slider-response","318","769838","0.0-12.0-0.34","ha76c9uznm","many_one","0","indirect_first","0","er06ge01","0","20","1","1","1","1","3870","","","","","neg","GS","GSnew","3","category3/GS3.png","targets/34.png","","direct","","-37"
"","image-slider-response","319","774134","0.0-12.0-0.35","ha76c9uznm","many_one","0","indirect_first","0","er06ge01","0","20","1","1","1","1","4294","","","","","neg","GS","GSold","3","category3/CS9.png","targets/3.png","","direct","","40"
"","image-slider-response","320","777718","0.0-12.0-0.36","ha76c9uznm","many_one","0","indirect_first","0","er06ge01","0","20","1","1","1","1","3583","","","","","pos","GS","GSold","1","category1/CS10.png","targets/7.png","","direct","","-11"
"","image-slider-response","321","780782","0.0-12.0-0.37","ha76c9uznm","many_one","0","indirect_first","0","er06ge01","0","20","1","1","1","1","3063","","","","","pos","CS","CS","1","category1/CS6.png","targets/32.png","","direct","","-8"
"","image-slider-response","322","785077","0.0-12.0-0.38","ha76c9uznm","many_one","0","indirect_first","0","er06ge01","0","20","1","1","1","1","4294","","","","","neg","CS","CS","2","category2/CS10.png","targets/22.png","","direct","","82"
"","image-slider-response","323","787893","0.0-12.0-0.39","ha76c9uznm","many_one","0","indirect_first","0","er06ge01","0","20","1","1","1","1","2815","","","","","pos","GS","GSnew","4","category4/GS1.png","targets/25.png","","direct","","78"
"","image-slider-response","324","791998","0.0-12.0-0.40","ha76c9uznm","many_one","0","indirect_first","0","er06ge01","0","20","1","1","1","1","4102","","","","","neg","GS","GSold","2","category2/CS9.png","targets/12.png","","direct","","-13"
"","image-slider-response","325","794485","0.0-12.0-0.41","ha76c9uznm","many_one","0","indirect_first","0","er06ge01","0","20","1","1","1","1","2485","","","","","neg","GS","abstract","2","category2/men.png","targets/41.png","","direct","","-15"
"","image-slider-response","326","797365","0.0-12.0-0.42","ha76c9uznm","many_one","0","indirect_first","0","er06ge01","0","20","1","1","1","1","2879","","","","","pos","CS","CS","4","category4/CS10.png","targets/8.png","","direct","","58"
"","image-slider-response","327","800222","0.0-12.0-0.43","ha76c9uznm","many_one","0","indirect_first","0","er06ge01","0","20","1","1","1","1","2855","","","","","neg","GS","GSold","3","category3/CS3.png","targets/16.png","","direct","","-39"
"","image-slider-response","328","803406","0.0-12.0-0.44","ha76c9uznm","many_one","0","indirect_first","0","er06ge01","0","20","1","1","1","1","3182","","","","","neg","CS","CS","3","category3/CS6.png","targets/13.png","","direct","","10"
"","image-slider-response","329","805998","0.0-12.0-0.45","ha76c9uznm","many_one","0","indirect_first","0","er06ge01","0","20","1","1","1","1","2591","","","","","neg","GS","GSnew","2","category2/GS3.png","targets/10.png","","direct","","-13"
"","image-slider-response","330","811197","0.0-12.0-0.46","ha76c9uznm","many_one","0","indirect_first","0","er06ge01","0","20","1","1","1","1","5199","","","","","neg","GS","GSnew","2","category2/GS1.png","targets/31.png","","direct","","2"
"","image-slider-response","331","814133","0.0-12.0-0.47","ha76c9uznm","many_one","0","indirect_first","0","er06ge01","0","20","1","1","1","1","2935","","","","","pos","CS","CS","4","category4/CS7.png","targets/17.png","","direct","","57"
"","survey-html-form","332","820150","0.0-13.0","ha76c9uznm","many_one","0","indirect_first","0","er06ge01","0","20","1","1","1","1","6016","","{}","","","","","","","","","","","",""
"","image-slider-response","333","826341","0.0-14.0-0.0","ha76c9uznm","many_one","0","indirect_first","0","er06ge01","0","20","1","1","1","1","5176","","","","","neg","All","all","3","category3/wang_all.png","","","all","","73"
"","image-slider-response","334","832062","0.0-14.0-0.1","ha76c9uznm","many_one","0","indirect_first","0","er06ge01","0","20","1","1","1","1","5719","","","","","pos","All","all","1","category1/ma_all.png","","","all","","46"
"","image-slider-response","335","837621","0.0-14.0-0.2","ha76c9uznm","many_one","0","indirect_first","0","er06ge01","0","20","1","1","1","1","5559","","","","","pos","All","all","4","category4/lin_all.png","","","all","","11"
"","image-slider-response","336","843293","0.0-14.0-0.3","ha76c9uznm","many_one","0","indirect_first","0","er06ge01","0","20","1","1","1","1","5670","","","","","neg","All","all","2","category2/men_all.png","","","all","","28"
"","survey-text","337","909340","0.0-15.0","ha76c9uznm","many_one","0","indirect_first","0","er06ge01","0","20","1","1","1","1","66046","","{""Q0"":""""}","","","","","","","","","","","",""
