"success","trial_type","trial_index","time_elapsed","internal_node_id","subject","condition","condition_code","measure","measure_code","codeword","gender","age","education","chinese","fach","handedness","comment","hinschauen","ablenkung","gewissenhaft","rt","url","responses","stimulus","key_press","val","type","type_specific","category","cs_selected","response","target","task","indirect","nr_pres"
"true","fullscreen","0","10681","0.0-0.0","qojb7hpk86","many_one","0","direct_first","1","la07ar09","1","27","1","1","3","1","Das Bild mit dem Mond und der Wüste ist sehr schön. Daher hatte ich mir das Zeichen dafür eingeprägt und immer positiv bewertet. Ansonsten ging ich schon fast nur meiner Intuition nach. ","0","1","0","","","","","","","","","","","","","","",""
"","external-html","1","17001","0.0-1.0","qojb7hpk86","many_one","0","direct_first","1","la07ar09","1","27","1","1","3","1","Das Bild mit dem Mond und der Wüste ist sehr schön. Daher hatte ich mir das Zeichen dafür eingeprägt und immer positiv bewertet. Ansonsten ging ich schon fast nur meiner Intuition nach. ","0","1","0","6224","text/information.html","","","","","","","","","","","","",""
"","external-html","2","29497","0.0-2.0","qojb7hpk86","many_one","0","direct_first","1","la07ar09","1","27","1","1","3","1","Das Bild mit dem Mond und der Wüste ist sehr schön. Daher hatte ich mir das Zeichen dafür eingeprägt und immer positiv bewertet. Ansonsten ging ich schon fast nur meiner Intuition nach. ","0","1","0","12455","text/consent.html","","","","","","","","","","","","",""
"","survey-html-form","3","119516","0.0-3.0","qojb7hpk86","many_one","0","direct_first","1","la07ar09","1","27","1","1","3","1","Das Bild mit dem Mond und der Wüste ist sehr schön. Daher hatte ich mir das Zeichen dafür eingeprägt und immer positiv bewertet. Ansonsten ging ich schon fast nur meiner Intuition nach. ","0","1","0","90015","","{""codeword_enter"":""la07ar09""}","","","","","","","","","","","",""
"","survey-html-form","4","138276","0.0-4.0","qojb7hpk86","many_one","0","direct_first","1","la07ar09","1","27","1","1","3","1","Das Bild mit dem Mond und der Wüste ist sehr schön. Daher hatte ich mir das Zeichen dafür eingeprägt und immer positiv bewertet. Ansonsten ging ich schon fast nur meiner Intuition nach. ","0","1","0","18756","","{""age"":""27"",""education"":""1"",""subject"":""3"",""gender"":""1"",""handedness"":""1"",""chinese"":""1""}","","","","","","","","","","","",""
"","survey-html-form","5","170778","0.0-5.0","qojb7hpk86","many_one","0","direct_first","1","la07ar09","1","27","1","1","3","1","Das Bild mit dem Mond und der Wüste ist sehr schön. Daher hatte ich mir das Zeichen dafür eingeprägt und immer positiv bewertet. Ansonsten ging ich schon fast nur meiner Intuition nach. ","0","1","0","32500","","{}","","","","","","","","","","","",""
"","html-keyboard-response","6","174799","0.0-6.0-0.0-0.0","qojb7hpk86","many_one","0","direct_first","1","la07ar09","1","27","1","1","3","1","Das Bild mit dem Mond und der Wüste ist sehr schön. Daher hatte ich mir das Zeichen dafür eingeprägt und immer positiv bewertet. Ansonsten ging ich schon fast nur meiner Intuition nach. ","0","1","0","null","","","<div class = 'row'><div class = 'column'><img src = 'category1/CS2.png' width = '70%;'></div><div class = 'column'><img src = 'usneg/2900.bmp' width = '100%;'></div></div>","null","neg","CS","CS","1","category1/CS2.png","","","","",""
"","html-keyboard-response","7","177329","0.0-6.0-0.0-0.1","qojb7hpk86","many_one","0","direct_first","1","la07ar09","1","27","1","1","3","1","Das Bild mit dem Mond und der Wüste ist sehr schön. Daher hatte ich mir das Zeichen dafür eingeprägt und immer positiv bewertet. Ansonsten ging ich schon fast nur meiner Intuition nach. ","0","1","0","null","","","<div class = 'row'><div class = 'column'><img src = 'uspos/1710.bmp' width = '100%;'></div><div class = 'column'><img src = 'category3/CS9.png' width = '70%;'></div></div>","null","pos","CS","CS","3","category3/CS9.png","","","","",""
"","html-keyboard-response","8","179868","0.0-6.0-0.0-0.2","qojb7hpk86","many_one","0","direct_first","1","la07ar09","1","27","1","1","3","1","Das Bild mit dem Mond und der Wüste ist sehr schön. Daher hatte ich mir das Zeichen dafür eingeprägt und immer positiv bewertet. Ansonsten ging ich schon fast nur meiner Intuition nach. ","0","1","0","null","","","<div class = 'row'><div class = 'column'><img src = 'uspos/5470.bmp' width = '100%;'></div><div class = 'column'><img src = 'category4/CS10.png' width = '70%;'></div></div>","null","pos","CS","CS","4","category4/CS10.png","","","","",""
"","html-keyboard-response","9","182409","0.0-6.0-0.0-0.3","qojb7hpk86","many_one","0","direct_first","1","la07ar09","1","27","1","1","3","1","Das Bild mit dem Mond und der Wüste ist sehr schön. Daher hatte ich mir das Zeichen dafür eingeprägt und immer positiv bewertet. Ansonsten ging ich schon fast nur meiner Intuition nach. ","0","1","0","null","","","<div class = 'row'><div class = 'column'><img src = 'usneg/9290.bmp' width = '100%;'></div><div class = 'column'><img src = 'category1/CS9.png' width = '70%;'></div></div>","null","neg","CS","CS","1","category1/CS9.png","","","","",""
"","html-keyboard-response","10","184918","0.0-6.0-0.0-0.4","qojb7hpk86","many_one","0","direct_first","1","la07ar09","1","27","1","1","3","1","Das Bild mit dem Mond und der Wüste ist sehr schön. Daher hatte ich mir das Zeichen dafür eingeprägt und immer positiv bewertet. Ansonsten ging ich schon fast nur meiner Intuition nach. ","0","1","0","null","","","<div class = 'row'><div class = 'column'><img src = 'uspos/2360.bmp' width = '100%;'></div><div class = 'column'><img src = 'category4/CS8.png' width = '70%;'></div></div>","null","pos","CS","CS","4","category4/CS8.png","","","","",""
"","html-keyboard-response","11","187436","0.0-6.0-0.0-0.5","qojb7hpk86","many_one","0","direct_first","1","la07ar09","1","27","1","1","3","1","Das Bild mit dem Mond und der Wüste ist sehr schön. Daher hatte ich mir das Zeichen dafür eingeprägt und immer positiv bewertet. Ansonsten ging ich schon fast nur meiner Intuition nach. ","0","1","0","null","","","<div class = 'row'><div class = 'column'><img src = 'usneg/6212.bmp' width = '100%;'></div><div class = 'column'><img src = 'category2/CS9.png' width = '70%;'></div></div>","null","neg","CS","CS","2","category2/CS9.png","","","","",""
"","html-keyboard-response","12","189966","0.0-6.0-0.0-0.6","qojb7hpk86","many_one","0","direct_first","1","la07ar09","1","27","1","1","3","1","Das Bild mit dem Mond und der Wüste ist sehr schön. Daher hatte ich mir das Zeichen dafür eingeprägt und immer positiv bewertet. Ansonsten ging ich schon fast nur meiner Intuition nach. ","0","1","0","null","","","<div class = 'row'><div class = 'column'><img src = 'uspos/5831.bmp' width = '100%;'></div><div class = 'column'><img src = 'category3/CS8.png' width = '70%;'></div></div>","null","pos","CS","CS","3","category3/CS8.png","","","","",""
"","html-keyboard-response","13","192475","0.0-6.0-0.0-0.7","qojb7hpk86","many_one","0","direct_first","1","la07ar09","1","27","1","1","3","1","Das Bild mit dem Mond und der Wüste ist sehr schön. Daher hatte ich mir das Zeichen dafür eingeprägt und immer positiv bewertet. Ansonsten ging ich schon fast nur meiner Intuition nach. ","0","1","0","null","","","<div class = 'row'><div class = 'column'><img src = 'usneg/9041.bmp' width = '100%;'></div><div class = 'column'><img src = 'category2/CS6.png' width = '70%;'></div></div>","null","neg","CS","CS","2","category2/CS6.png","","","","",""
"","html-keyboard-response","14","194984","0.0-6.0-0.0-0.8","qojb7hpk86","many_one","0","direct_first","1","la07ar09","1","27","1","1","3","1","Das Bild mit dem Mond und der Wüste ist sehr schön. Daher hatte ich mir das Zeichen dafür eingeprägt und immer positiv bewertet. Ansonsten ging ich schon fast nur meiner Intuition nach. ","0","1","0","null","","","<div class = 'row'><div class = 'column'><img src = 'uspos/8190.bmp' width = '100%;'></div><div class = 'column'><img src = 'category3/CS2.png' width = '70%;'></div></div>","null","pos","CS","CS","3","category3/CS2.png","","","","",""
"","html-keyboard-response","15","197494","0.0-6.0-0.0-0.9","qojb7hpk86","many_one","0","direct_first","1","la07ar09","1","27","1","1","3","1","Das Bild mit dem Mond und der Wüste ist sehr schön. Daher hatte ich mir das Zeichen dafür eingeprägt und immer positiv bewertet. Ansonsten ging ich schon fast nur meiner Intuition nach. ","0","1","0","null","","","<div class = 'row'><div class = 'column'><img src = 'category4/CS4.png' width = '70%;'></div><div class = 'column'><img src = 'uspos/7580.bmp' width = '100%;'></div></div>","null","pos","CS","CS","4","category4/CS4.png","","","","",""
"","html-keyboard-response","16","200002","0.0-6.0-0.0-0.10","qojb7hpk86","many_one","0","direct_first","1","la07ar09","1","27","1","1","3","1","Das Bild mit dem Mond und der Wüste ist sehr schön. Daher hatte ich mir das Zeichen dafür eingeprägt und immer positiv bewertet. Ansonsten ging ich schon fast nur meiner Intuition nach. ","0","1","0","null","","","<div class = 'row'><div class = 'column'><img src = 'uspos/1460.bmp' width = '100%;'></div><div class = 'column'><img src = 'category4/CS2.png' width = '70%;'></div></div>","null","pos","CS","CS","4","category4/CS2.png","","","","",""
"","html-keyboard-response","17","202522","0.0-6.0-0.0-0.11","qojb7hpk86","many_one","0","direct_first","1","la07ar09","1","27","1","1","3","1","Das Bild mit dem Mond und der Wüste ist sehr schön. Daher hatte ich mir das Zeichen dafür eingeprägt und immer positiv bewertet. Ansonsten ging ich schon fast nur meiner Intuition nach. ","0","1","0","null","","","<div class = 'row'><div class = 'column'><img src = 'uspos/2160.bmp' width = '100%;'></div><div class = 'column'><img src = 'category4/CS1.png' width = '70%;'></div></div>","null","pos","CS","CS","4","category4/CS1.png","","","","",""
"","html-keyboard-response","18","205041","0.0-6.0-0.0-0.12","qojb7hpk86","many_one","0","direct_first","1","la07ar09","1","27","1","1","3","1","Das Bild mit dem Mond und der Wüste ist sehr schön. Daher hatte ich mir das Zeichen dafür eingeprägt und immer positiv bewertet. Ansonsten ging ich schon fast nur meiner Intuition nach. ","0","1","0","null","","","<div class = 'row'><div class = 'column'><img src = 'category2/CS7.png' width = '70%;'></div><div class = 'column'><img src = 'usneg/6020.bmp' width = '100%;'></div></div>","null","neg","CS","CS","2","category2/CS7.png","","","","",""
"","html-keyboard-response","19","207560","0.0-6.0-0.0-0.13","qojb7hpk86","many_one","0","direct_first","1","la07ar09","1","27","1","1","3","1","Das Bild mit dem Mond und der Wüste ist sehr schön. Daher hatte ich mir das Zeichen dafür eingeprägt und immer positiv bewertet. Ansonsten ging ich schon fast nur meiner Intuition nach. ","0","1","0","null","","","<div class = 'row'><div class = 'column'><img src = 'category1/CS6.png' width = '70%;'></div><div class = 'column'><img src = 'usneg/6570.1.bmp' width = '100%;'></div></div>","null","neg","CS","CS","1","category1/CS6.png","","","","",""
"","html-keyboard-response","20","210080","0.0-6.0-0.0-0.14","qojb7hpk86","many_one","0","direct_first","1","la07ar09","1","27","1","1","3","1","Das Bild mit dem Mond und der Wüste ist sehr schön. Daher hatte ich mir das Zeichen dafür eingeprägt und immer positiv bewertet. Ansonsten ging ich schon fast nur meiner Intuition nach. ","0","1","0","null","","","<div class = 'row'><div class = 'column'><img src = 'usneg/9220.bmp' width = '100%;'></div><div class = 'column'><img src = 'category2/CS1.png' width = '70%;'></div></div>","null","neg","CS","CS","2","category2/CS1.png","","","","",""
"","html-keyboard-response","21","212590","0.0-6.0-0.0-0.15","qojb7hpk86","many_one","0","direct_first","1","la07ar09","1","27","1","1","3","1","Das Bild mit dem Mond und der Wüste ist sehr schön. Daher hatte ich mir das Zeichen dafür eingeprägt und immer positiv bewertet. Ansonsten ging ich schon fast nur meiner Intuition nach. ","0","1","0","null","","","<div class = 'row'><div class = 'column'><img src = 'category1/CS5.png' width = '70%;'></div><div class = 'column'><img src = 'usneg/3160.bmp' width = '100%;'></div></div>","null","neg","CS","CS","1","category1/CS5.png","","","","",""
"","html-keyboard-response","22","215103","0.0-6.0-0.0-0.16","qojb7hpk86","many_one","0","direct_first","1","la07ar09","1","27","1","1","3","1","Das Bild mit dem Mond und der Wüste ist sehr schön. Daher hatte ich mir das Zeichen dafür eingeprägt und immer positiv bewertet. Ansonsten ging ich schon fast nur meiner Intuition nach. ","0","1","0","null","","","<div class = 'row'><div class = 'column'><img src = 'category3/CS3.png' width = '70%;'></div><div class = 'column'><img src = 'uspos/8080.bmp' width = '100%;'></div></div>","null","pos","CS","CS","3","category3/CS3.png","","","","",""
"","html-keyboard-response","23","217618","0.0-6.0-0.0-0.17","qojb7hpk86","many_one","0","direct_first","1","la07ar09","1","27","1","1","3","1","Das Bild mit dem Mond und der Wüste ist sehr schön. Daher hatte ich mir das Zeichen dafür eingeprägt und immer positiv bewertet. Ansonsten ging ich schon fast nur meiner Intuition nach. ","0","1","0","null","","","<div class = 'row'><div class = 'column'><img src = 'usneg/9435.bmp' width = '100%;'></div><div class = 'column'><img src = 'category2/CS5.png' width = '70%;'></div></div>","null","neg","CS","CS","2","category2/CS5.png","","","","",""
"","html-keyboard-response","24","220147","0.0-6.0-0.0-0.18","qojb7hpk86","many_one","0","direct_first","1","la07ar09","1","27","1","1","3","1","Das Bild mit dem Mond und der Wüste ist sehr schön. Daher hatte ich mir das Zeichen dafür eingeprägt und immer positiv bewertet. Ansonsten ging ich schon fast nur meiner Intuition nach. ","0","1","0","null","","","<div class = 'row'><div class = 'column'><img src = 'usneg/2205.bmp' width = '100%;'></div><div class = 'column'><img src = 'category1/CS10.png' width = '70%;'></div></div>","null","neg","CS","CS","1","category1/CS10.png","","","","",""
"","html-keyboard-response","25","222667","0.0-6.0-0.0-0.19","qojb7hpk86","many_one","0","direct_first","1","la07ar09","1","27","1","1","3","1","Das Bild mit dem Mond und der Wüste ist sehr schön. Daher hatte ich mir das Zeichen dafür eingeprägt und immer positiv bewertet. Ansonsten ging ich schon fast nur meiner Intuition nach. ","0","1","0","null","","","<div class = 'row'><div class = 'column'><img src = 'uspos/5621.bmp' width = '100%;'></div><div class = 'column'><img src = 'category3/CS1.png' width = '70%;'></div></div>","null","pos","CS","CS","3","category3/CS1.png","","","","",""
"","survey-html-form","26","231826","0.0-6.0-1.0","qojb7hpk86","many_one","0","direct_first","1","la07ar09","1","27","1","1","3","1","Das Bild mit dem Mond und der Wüste ist sehr schön. Daher hatte ich mir das Zeichen dafür eingeprägt und immer positiv bewertet. Ansonsten ging ich schon fast nur meiner Intuition nach. ","0","1","0","8650","","{}","","","","","","","","","","","",""
"","html-keyboard-response","27","235852","0.0-6.0-2.0-0.0","qojb7hpk86","many_one","0","direct_first","1","la07ar09","1","27","1","1","3","1","Das Bild mit dem Mond und der Wüste ist sehr schön. Daher hatte ich mir das Zeichen dafür eingeprägt und immer positiv bewertet. Ansonsten ging ich schon fast nur meiner Intuition nach. ","0","1","0","null","","","<div class = 'row'><div class = 'column'><img src = 'uspos/8190.bmp' width = '100%;'></div><div class = 'column'><img src = 'category3/CS2.png' width = '70%;'></div></div>","null","pos","CS","CS","3","category3/CS2.png","","","","",""
"","html-keyboard-response","28","238373","0.0-6.0-2.0-0.1","qojb7hpk86","many_one","0","direct_first","1","la07ar09","1","27","1","1","3","1","Das Bild mit dem Mond und der Wüste ist sehr schön. Daher hatte ich mir das Zeichen dafür eingeprägt und immer positiv bewertet. Ansonsten ging ich schon fast nur meiner Intuition nach. ","0","1","0","null","","","<div class = 'row'><div class = 'column'><img src = 'category1/CS6.png' width = '70%;'></div><div class = 'column'><img src = 'usneg/6570.1.bmp' width = '100%;'></div></div>","null","neg","CS","CS","1","category1/CS6.png","","","","",""
"","html-keyboard-response","29","240892","0.0-6.0-2.0-0.2","qojb7hpk86","many_one","0","direct_first","1","la07ar09","1","27","1","1","3","1","Das Bild mit dem Mond und der Wüste ist sehr schön. Daher hatte ich mir das Zeichen dafür eingeprägt und immer positiv bewertet. Ansonsten ging ich schon fast nur meiner Intuition nach. ","0","1","0","null","","","<div class = 'row'><div class = 'column'><img src = 'usneg/9220.bmp' width = '100%;'></div><div class = 'column'><img src = 'category2/CS1.png' width = '70%;'></div></div>","null","neg","CS","CS","2","category2/CS1.png","","","","",""
"","html-keyboard-response","30","243410","0.0-6.0-2.0-0.3","qojb7hpk86","many_one","0","direct_first","1","la07ar09","1","27","1","1","3","1","Das Bild mit dem Mond und der Wüste ist sehr schön. Daher hatte ich mir das Zeichen dafür eingeprägt und immer positiv bewertet. Ansonsten ging ich schon fast nur meiner Intuition nach. ","0","1","0","null","","","<div class = 'row'><div class = 'column'><img src = 'uspos/2360.bmp' width = '100%;'></div><div class = 'column'><img src = 'category4/CS8.png' width = '70%;'></div></div>","null","pos","CS","CS","4","category4/CS8.png","","","","",""
"","html-keyboard-response","31","245920","0.0-6.0-2.0-0.4","qojb7hpk86","many_one","0","direct_first","1","la07ar09","1","27","1","1","3","1","Das Bild mit dem Mond und der Wüste ist sehr schön. Daher hatte ich mir das Zeichen dafür eingeprägt und immer positiv bewertet. Ansonsten ging ich schon fast nur meiner Intuition nach. ","0","1","0","null","","","<div class = 'row'><div class = 'column'><img src = 'uspos/7580.bmp' width = '100%;'></div><div class = 'column'><img src = 'category4/CS4.png' width = '70%;'></div></div>","null","pos","CS","CS","4","category4/CS4.png","","","","",""
"","html-keyboard-response","32","248449","0.0-6.0-2.0-0.5","qojb7hpk86","many_one","0","direct_first","1","la07ar09","1","27","1","1","3","1","Das Bild mit dem Mond und der Wüste ist sehr schön. Daher hatte ich mir das Zeichen dafür eingeprägt und immer positiv bewertet. Ansonsten ging ich schon fast nur meiner Intuition nach. ","0","1","0","null","","","<div class = 'row'><div class = 'column'><img src = 'category2/CS5.png' width = '70%;'></div><div class = 'column'><img src = 'usneg/9435.bmp' width = '100%;'></div></div>","null","neg","CS","CS","2","category2/CS5.png","","","","",""
"","html-keyboard-response","33","250959","0.0-6.0-2.0-0.6","qojb7hpk86","many_one","0","direct_first","1","la07ar09","1","27","1","1","3","1","Das Bild mit dem Mond und der Wüste ist sehr schön. Daher hatte ich mir das Zeichen dafür eingeprägt und immer positiv bewertet. Ansonsten ging ich schon fast nur meiner Intuition nach. ","0","1","0","null","","","<div class = 'row'><div class = 'column'><img src = 'uspos/2160.bmp' width = '100%;'></div><div class = 'column'><img src = 'category4/CS1.png' width = '70%;'></div></div>","null","pos","CS","CS","4","category4/CS1.png","","","","",""
"","html-keyboard-response","34","253478","0.0-6.0-2.0-0.7","qojb7hpk86","many_one","0","direct_first","1","la07ar09","1","27","1","1","3","1","Das Bild mit dem Mond und der Wüste ist sehr schön. Daher hatte ich mir das Zeichen dafür eingeprägt und immer positiv bewertet. Ansonsten ging ich schon fast nur meiner Intuition nach. ","0","1","0","null","","","<div class = 'row'><div class = 'column'><img src = 'category1/CS9.png' width = '70%;'></div><div class = 'column'><img src = 'usneg/9290.bmp' width = '100%;'></div></div>","null","neg","CS","CS","1","category1/CS9.png","","","","",""
"","html-keyboard-response","35","255998","0.0-6.0-2.0-0.8","qojb7hpk86","many_one","0","direct_first","1","la07ar09","1","27","1","1","3","1","Das Bild mit dem Mond und der Wüste ist sehr schön. Daher hatte ich mir das Zeichen dafür eingeprägt und immer positiv bewertet. Ansonsten ging ich schon fast nur meiner Intuition nach. ","0","1","0","null","","","<div class = 'row'><div class = 'column'><img src = 'uspos/5831.bmp' width = '100%;'></div><div class = 'column'><img src = 'category3/CS8.png' width = '70%;'></div></div>","null","pos","CS","CS","3","category3/CS8.png","","","","",""
"","html-keyboard-response","36","258517","0.0-6.0-2.0-0.9","qojb7hpk86","many_one","0","direct_first","1","la07ar09","1","27","1","1","3","1","Das Bild mit dem Mond und der Wüste ist sehr schön. Daher hatte ich mir das Zeichen dafür eingeprägt und immer positiv bewertet. Ansonsten ging ich schon fast nur meiner Intuition nach. ","0","1","0","null","","","<div class = 'row'><div class = 'column'><img src = 'category2/CS7.png' width = '70%;'></div><div class = 'column'><img src = 'usneg/6020.bmp' width = '100%;'></div></div>","null","neg","CS","CS","2","category2/CS7.png","","","","",""
"","html-keyboard-response","37","261046","0.0-6.0-2.0-0.10","qojb7hpk86","many_one","0","direct_first","1","la07ar09","1","27","1","1","3","1","Das Bild mit dem Mond und der Wüste ist sehr schön. Daher hatte ich mir das Zeichen dafür eingeprägt und immer positiv bewertet. Ansonsten ging ich schon fast nur meiner Intuition nach. ","0","1","0","null","","","<div class = 'row'><div class = 'column'><img src = 'uspos/8080.bmp' width = '100%;'></div><div class = 'column'><img src = 'category3/CS3.png' width = '70%;'></div></div>","null","pos","CS","CS","3","category3/CS3.png","","","","",""
"","html-keyboard-response","38","263566","0.0-6.0-2.0-0.11","qojb7hpk86","many_one","0","direct_first","1","la07ar09","1","27","1","1","3","1","Das Bild mit dem Mond und der Wüste ist sehr schön. Daher hatte ich mir das Zeichen dafür eingeprägt und immer positiv bewertet. Ansonsten ging ich schon fast nur meiner Intuition nach. ","0","1","0","null","","","<div class = 'row'><div class = 'column'><img src = 'category2/CS6.png' width = '70%;'></div><div class = 'column'><img src = 'usneg/9041.bmp' width = '100%;'></div></div>","null","neg","CS","CS","2","category2/CS6.png","","","","",""
"","html-keyboard-response","39","266085","0.0-6.0-2.0-0.12","qojb7hpk86","many_one","0","direct_first","1","la07ar09","1","27","1","1","3","1","Das Bild mit dem Mond und der Wüste ist sehr schön. Daher hatte ich mir das Zeichen dafür eingeprägt und immer positiv bewertet. Ansonsten ging ich schon fast nur meiner Intuition nach. ","0","1","0","null","","","<div class = 'row'><div class = 'column'><img src = 'category3/CS1.png' width = '70%;'></div><div class = 'column'><img src = 'uspos/5621.bmp' width = '100%;'></div></div>","null","pos","CS","CS","3","category3/CS1.png","","","","",""
"","html-keyboard-response","40","268616","0.0-6.0-2.0-0.13","qojb7hpk86","many_one","0","direct_first","1","la07ar09","1","27","1","1","3","1","Das Bild mit dem Mond und der Wüste ist sehr schön. Daher hatte ich mir das Zeichen dafür eingeprägt und immer positiv bewertet. Ansonsten ging ich schon fast nur meiner Intuition nach. ","0","1","0","null","","","<div class = 'row'><div class = 'column'><img src = 'uspos/1710.bmp' width = '100%;'></div><div class = 'column'><img src = 'category3/CS9.png' width = '70%;'></div></div>","null","pos","CS","CS","3","category3/CS9.png","","","","",""
"","html-keyboard-response","41","271134","0.0-6.0-2.0-0.14","qojb7hpk86","many_one","0","direct_first","1","la07ar09","1","27","1","1","3","1","Das Bild mit dem Mond und der Wüste ist sehr schön. Daher hatte ich mir das Zeichen dafür eingeprägt und immer positiv bewertet. Ansonsten ging ich schon fast nur meiner Intuition nach. ","0","1","0","null","","","<div class = 'row'><div class = 'column'><img src = 'category4/CS10.png' width = '70%;'></div><div class = 'column'><img src = 'uspos/5470.bmp' width = '100%;'></div></div>","null","pos","CS","CS","4","category4/CS10.png","","","","",""
"","html-keyboard-response","42","273654","0.0-6.0-2.0-0.15","qojb7hpk86","many_one","0","direct_first","1","la07ar09","1","27","1","1","3","1","Das Bild mit dem Mond und der Wüste ist sehr schön. Daher hatte ich mir das Zeichen dafür eingeprägt und immer positiv bewertet. Ansonsten ging ich schon fast nur meiner Intuition nach. ","0","1","0","null","","","<div class = 'row'><div class = 'column'><img src = 'usneg/3160.bmp' width = '100%;'></div><div class = 'column'><img src = 'category1/CS5.png' width = '70%;'></div></div>","null","neg","CS","CS","1","category1/CS5.png","","","","",""
"","html-keyboard-response","43","276183","0.0-6.0-2.0-0.16","qojb7hpk86","many_one","0","direct_first","1","la07ar09","1","27","1","1","3","1","Das Bild mit dem Mond und der Wüste ist sehr schön. Daher hatte ich mir das Zeichen dafür eingeprägt und immer positiv bewertet. Ansonsten ging ich schon fast nur meiner Intuition nach. ","0","1","0","null","","","<div class = 'row'><div class = 'column'><img src = 'category4/CS2.png' width = '70%;'></div><div class = 'column'><img src = 'uspos/1460.bmp' width = '100%;'></div></div>","null","pos","CS","CS","4","category4/CS2.png","","","","",""
"","html-keyboard-response","44","278709","0.0-6.0-2.0-0.17","qojb7hpk86","many_one","0","direct_first","1","la07ar09","1","27","1","1","3","1","Das Bild mit dem Mond und der Wüste ist sehr schön. Daher hatte ich mir das Zeichen dafür eingeprägt und immer positiv bewertet. Ansonsten ging ich schon fast nur meiner Intuition nach. ","0","1","0","null","","","<div class = 'row'><div class = 'column'><img src = 'usneg/2900.bmp' width = '100%;'></div><div class = 'column'><img src = 'category1/CS2.png' width = '70%;'></div></div>","null","neg","CS","CS","1","category1/CS2.png","","","","",""
"","html-keyboard-response","45","281211","0.0-6.0-2.0-0.18","qojb7hpk86","many_one","0","direct_first","1","la07ar09","1","27","1","1","3","1","Das Bild mit dem Mond und der Wüste ist sehr schön. Daher hatte ich mir das Zeichen dafür eingeprägt und immer positiv bewertet. Ansonsten ging ich schon fast nur meiner Intuition nach. ","0","1","0","null","","","<div class = 'row'><div class = 'column'><img src = 'usneg/2205.bmp' width = '100%;'></div><div class = 'column'><img src = 'category1/CS10.png' width = '70%;'></div></div>","null","neg","CS","CS","1","category1/CS10.png","","","","",""
"","html-keyboard-response","46","283741","0.0-6.0-2.0-0.19","qojb7hpk86","many_one","0","direct_first","1","la07ar09","1","27","1","1","3","1","Das Bild mit dem Mond und der Wüste ist sehr schön. Daher hatte ich mir das Zeichen dafür eingeprägt und immer positiv bewertet. Ansonsten ging ich schon fast nur meiner Intuition nach. ","0","1","0","null","","","<div class = 'row'><div class = 'column'><img src = 'usneg/6212.bmp' width = '100%;'></div><div class = 'column'><img src = 'category2/CS9.png' width = '70%;'></div></div>","null","neg","CS","CS","2","category2/CS9.png","","","","",""
"","survey-html-form","47","301618","0.0-6.0-3.0","qojb7hpk86","many_one","0","direct_first","1","la07ar09","1","27","1","1","3","1","Das Bild mit dem Mond und der Wüste ist sehr schön. Daher hatte ich mir das Zeichen dafür eingeprägt und immer positiv bewertet. Ansonsten ging ich schon fast nur meiner Intuition nach. ","0","1","0","17369","","{}","","","","","","","","","","","",""
"","html-keyboard-response","48","305643","0.0-6.0-4.0-0.0","qojb7hpk86","many_one","0","direct_first","1","la07ar09","1","27","1","1","3","1","Das Bild mit dem Mond und der Wüste ist sehr schön. Daher hatte ich mir das Zeichen dafür eingeprägt und immer positiv bewertet. Ansonsten ging ich schon fast nur meiner Intuition nach. ","0","1","0","null","","","<div class = 'row'><div class = 'column'><img src = 'category3/CS3.png' width = '70%;'></div><div class = 'column'><img src = 'uspos/8080.bmp' width = '100%;'></div></div>","null","pos","CS","CS","3","category3/CS3.png","","","","",""
"","html-keyboard-response","49","308152","0.0-6.0-4.0-0.1","qojb7hpk86","many_one","0","direct_first","1","la07ar09","1","27","1","1","3","1","Das Bild mit dem Mond und der Wüste ist sehr schön. Daher hatte ich mir das Zeichen dafür eingeprägt und immer positiv bewertet. Ansonsten ging ich schon fast nur meiner Intuition nach. ","0","1","0","null","","","<div class = 'row'><div class = 'column'><img src = 'usneg/2900.bmp' width = '100%;'></div><div class = 'column'><img src = 'category1/CS2.png' width = '70%;'></div></div>","null","neg","CS","CS","1","category1/CS2.png","","","","",""
"","html-keyboard-response","50","310671","0.0-6.0-4.0-0.2","qojb7hpk86","many_one","0","direct_first","1","la07ar09","1","27","1","1","3","1","Das Bild mit dem Mond und der Wüste ist sehr schön. Daher hatte ich mir das Zeichen dafür eingeprägt und immer positiv bewertet. Ansonsten ging ich schon fast nur meiner Intuition nach. ","0","1","0","null","","","<div class = 'row'><div class = 'column'><img src = 'usneg/9041.bmp' width = '100%;'></div><div class = 'column'><img src = 'category2/CS6.png' width = '70%;'></div></div>","null","neg","CS","CS","2","category2/CS6.png","","","","",""
"","html-keyboard-response","51","313201","0.0-6.0-4.0-0.3","qojb7hpk86","many_one","0","direct_first","1","la07ar09","1","27","1","1","3","1","Das Bild mit dem Mond und der Wüste ist sehr schön. Daher hatte ich mir das Zeichen dafür eingeprägt und immer positiv bewertet. Ansonsten ging ich schon fast nur meiner Intuition nach. ","0","1","0","null","","","<div class = 'row'><div class = 'column'><img src = 'category4/CS8.png' width = '70%;'></div><div class = 'column'><img src = 'uspos/2360.bmp' width = '100%;'></div></div>","null","pos","CS","CS","4","category4/CS8.png","","","","",""
"","html-keyboard-response","52","315731","0.0-6.0-4.0-0.4","qojb7hpk86","many_one","0","direct_first","1","la07ar09","1","27","1","1","3","1","Das Bild mit dem Mond und der Wüste ist sehr schön. Daher hatte ich mir das Zeichen dafür eingeprägt und immer positiv bewertet. Ansonsten ging ich schon fast nur meiner Intuition nach. ","0","1","0","null","","","<div class = 'row'><div class = 'column'><img src = 'usneg/6020.bmp' width = '100%;'></div><div class = 'column'><img src = 'category2/CS7.png' width = '70%;'></div></div>","null","neg","CS","CS","2","category2/CS7.png","","","","",""
"","html-keyboard-response","53","318240","0.0-6.0-4.0-0.5","qojb7hpk86","many_one","0","direct_first","1","la07ar09","1","27","1","1","3","1","Das Bild mit dem Mond und der Wüste ist sehr schön. Daher hatte ich mir das Zeichen dafür eingeprägt und immer positiv bewertet. Ansonsten ging ich schon fast nur meiner Intuition nach. ","0","1","0","null","","","<div class = 'row'><div class = 'column'><img src = 'usneg/6212.bmp' width = '100%;'></div><div class = 'column'><img src = 'category2/CS9.png' width = '70%;'></div></div>","null","neg","CS","CS","2","category2/CS9.png","","","","",""
"","html-keyboard-response","54","320760","0.0-6.0-4.0-0.6","qojb7hpk86","many_one","0","direct_first","1","la07ar09","1","27","1","1","3","1","Das Bild mit dem Mond und der Wüste ist sehr schön. Daher hatte ich mir das Zeichen dafür eingeprägt und immer positiv bewertet. Ansonsten ging ich schon fast nur meiner Intuition nach. ","0","1","0","null","","","<div class = 'row'><div class = 'column'><img src = 'category2/CS5.png' width = '70%;'></div><div class = 'column'><img src = 'usneg/9435.bmp' width = '100%;'></div></div>","null","neg","CS","CS","2","category2/CS5.png","","","","",""
"","html-keyboard-response","55","323289","0.0-6.0-4.0-0.7","qojb7hpk86","many_one","0","direct_first","1","la07ar09","1","27","1","1","3","1","Das Bild mit dem Mond und der Wüste ist sehr schön. Daher hatte ich mir das Zeichen dafür eingeprägt und immer positiv bewertet. Ansonsten ging ich schon fast nur meiner Intuition nach. ","0","1","0","null","","","<div class = 'row'><div class = 'column'><img src = 'category1/CS10.png' width = '70%;'></div><div class = 'column'><img src = 'usneg/2205.bmp' width = '100%;'></div></div>","null","neg","CS","CS","1","category1/CS10.png","","","","",""
"","html-keyboard-response","56","325818","0.0-6.0-4.0-0.8","qojb7hpk86","many_one","0","direct_first","1","la07ar09","1","27","1","1","3","1","Das Bild mit dem Mond und der Wüste ist sehr schön. Daher hatte ich mir das Zeichen dafür eingeprägt und immer positiv bewertet. Ansonsten ging ich schon fast nur meiner Intuition nach. ","0","1","0","null","","","<div class = 'row'><div class = 'column'><img src = 'category4/CS1.png' width = '70%;'></div><div class = 'column'><img src = 'uspos/2160.bmp' width = '100%;'></div></div>","null","pos","CS","CS","4","category4/CS1.png","","","","",""
"","html-keyboard-response","57","328338","0.0-6.0-4.0-0.9","qojb7hpk86","many_one","0","direct_first","1","la07ar09","1","27","1","1","3","1","Das Bild mit dem Mond und der Wüste ist sehr schön. Daher hatte ich mir das Zeichen dafür eingeprägt und immer positiv bewertet. Ansonsten ging ich schon fast nur meiner Intuition nach. ","0","1","0","null","","","<div class = 'row'><div class = 'column'><img src = 'usneg/9220.bmp' width = '100%;'></div><div class = 'column'><img src = 'category2/CS1.png' width = '70%;'></div></div>","null","neg","CS","CS","2","category2/CS1.png","","","","",""
"","html-keyboard-response","58","330867","0.0-6.0-4.0-0.10","qojb7hpk86","many_one","0","direct_first","1","la07ar09","1","27","1","1","3","1","Das Bild mit dem Mond und der Wüste ist sehr schön. Daher hatte ich mir das Zeichen dafür eingeprägt und immer positiv bewertet. Ansonsten ging ich schon fast nur meiner Intuition nach. ","0","1","0","null","","","<div class = 'row'><div class = 'column'><img src = 'category3/CS1.png' width = '70%;'></div><div class = 'column'><img src = 'uspos/5621.bmp' width = '100%;'></div></div>","null","pos","CS","CS","3","category3/CS1.png","","","","",""
"","html-keyboard-response","59","333408","0.0-6.0-4.0-0.11","qojb7hpk86","many_one","0","direct_first","1","la07ar09","1","27","1","1","3","1","Das Bild mit dem Mond und der Wüste ist sehr schön. Daher hatte ich mir das Zeichen dafür eingeprägt und immer positiv bewertet. Ansonsten ging ich schon fast nur meiner Intuition nach. ","0","1","0","null","","","<div class = 'row'><div class = 'column'><img src = 'usneg/9290.bmp' width = '100%;'></div><div class = 'column'><img src = 'category1/CS9.png' width = '70%;'></div></div>","null","neg","CS","CS","1","category1/CS9.png","","","","",""
"","html-keyboard-response","60","335927","0.0-6.0-4.0-0.12","qojb7hpk86","many_one","0","direct_first","1","la07ar09","1","27","1","1","3","1","Das Bild mit dem Mond und der Wüste ist sehr schön. Daher hatte ich mir das Zeichen dafür eingeprägt und immer positiv bewertet. Ansonsten ging ich schon fast nur meiner Intuition nach. ","0","1","0","null","","","<div class = 'row'><div class = 'column'><img src = 'uspos/7580.bmp' width = '100%;'></div><div class = 'column'><img src = 'category4/CS4.png' width = '70%;'></div></div>","null","pos","CS","CS","4","category4/CS4.png","","","","",""
"","html-keyboard-response","61","338455","0.0-6.0-4.0-0.13","qojb7hpk86","many_one","0","direct_first","1","la07ar09","1","27","1","1","3","1","Das Bild mit dem Mond und der Wüste ist sehr schön. Daher hatte ich mir das Zeichen dafür eingeprägt und immer positiv bewertet. Ansonsten ging ich schon fast nur meiner Intuition nach. ","0","1","0","null","","","<div class = 'row'><div class = 'column'><img src = 'category4/CS10.png' width = '70%;'></div><div class = 'column'><img src = 'uspos/5470.bmp' width = '100%;'></div></div>","null","pos","CS","CS","4","category4/CS10.png","","","","",""
"","html-keyboard-response","62","340975","0.0-6.0-4.0-0.14","qojb7hpk86","many_one","0","direct_first","1","la07ar09","1","27","1","1","3","1","Das Bild mit dem Mond und der Wüste ist sehr schön. Daher hatte ich mir das Zeichen dafür eingeprägt und immer positiv bewertet. Ansonsten ging ich schon fast nur meiner Intuition nach. ","0","1","0","null","","","<div class = 'row'><div class = 'column'><img src = 'usneg/3160.bmp' width = '100%;'></div><div class = 'column'><img src = 'category1/CS5.png' width = '70%;'></div></div>","null","neg","CS","CS","1","category1/CS5.png","","","","",""
"","html-keyboard-response","63","343485","0.0-6.0-4.0-0.15","qojb7hpk86","many_one","0","direct_first","1","la07ar09","1","27","1","1","3","1","Das Bild mit dem Mond und der Wüste ist sehr schön. Daher hatte ich mir das Zeichen dafür eingeprägt und immer positiv bewertet. Ansonsten ging ich schon fast nur meiner Intuition nach. ","0","1","0","null","","","<div class = 'row'><div class = 'column'><img src = 'uspos/1460.bmp' width = '100%;'></div><div class = 'column'><img src = 'category4/CS2.png' width = '70%;'></div></div>","null","pos","CS","CS","4","category4/CS2.png","","","","",""
"","html-keyboard-response","64","345994","0.0-6.0-4.0-0.16","qojb7hpk86","many_one","0","direct_first","1","la07ar09","1","27","1","1","3","1","Das Bild mit dem Mond und der Wüste ist sehr schön. Daher hatte ich mir das Zeichen dafür eingeprägt und immer positiv bewertet. Ansonsten ging ich schon fast nur meiner Intuition nach. ","0","1","0","null","","","<div class = 'row'><div class = 'column'><img src = 'category3/CS9.png' width = '70%;'></div><div class = 'column'><img src = 'uspos/1710.bmp' width = '100%;'></div></div>","null","pos","CS","CS","3","category3/CS9.png","","","","",""
"","html-keyboard-response","65","348513","0.0-6.0-4.0-0.17","qojb7hpk86","many_one","0","direct_first","1","la07ar09","1","27","1","1","3","1","Das Bild mit dem Mond und der Wüste ist sehr schön. Daher hatte ich mir das Zeichen dafür eingeprägt und immer positiv bewertet. Ansonsten ging ich schon fast nur meiner Intuition nach. ","0","1","0","null","","","<div class = 'row'><div class = 'column'><img src = 'category1/CS6.png' width = '70%;'></div><div class = 'column'><img src = 'usneg/6570.1.bmp' width = '100%;'></div></div>","null","neg","CS","CS","1","category1/CS6.png","","","","",""
"","html-keyboard-response","66","351022","0.0-6.0-4.0-0.18","qojb7hpk86","many_one","0","direct_first","1","la07ar09","1","27","1","1","3","1","Das Bild mit dem Mond und der Wüste ist sehr schön. Daher hatte ich mir das Zeichen dafür eingeprägt und immer positiv bewertet. Ansonsten ging ich schon fast nur meiner Intuition nach. ","0","1","0","null","","","<div class = 'row'><div class = 'column'><img src = 'uspos/5831.bmp' width = '100%;'></div><div class = 'column'><img src = 'category3/CS8.png' width = '70%;'></div></div>","null","pos","CS","CS","3","category3/CS8.png","","","","",""
"","html-keyboard-response","67","353552","0.0-6.0-4.0-0.19","qojb7hpk86","many_one","0","direct_first","1","la07ar09","1","27","1","1","3","1","Das Bild mit dem Mond und der Wüste ist sehr schön. Daher hatte ich mir das Zeichen dafür eingeprägt und immer positiv bewertet. Ansonsten ging ich schon fast nur meiner Intuition nach. ","0","1","0","null","","","<div class = 'row'><div class = 'column'><img src = 'category3/CS2.png' width = '70%;'></div><div class = 'column'><img src = 'uspos/8190.bmp' width = '100%;'></div></div>","null","pos","CS","CS","3","category3/CS2.png","","","","",""
"","survey-html-form","68","367634","0.0-6.0-5.0","qojb7hpk86","many_one","0","direct_first","1","la07ar09","1","27","1","1","3","1","Das Bild mit dem Mond und der Wüste ist sehr schön. Daher hatte ich mir das Zeichen dafür eingeprägt und immer positiv bewertet. Ansonsten ging ich schon fast nur meiner Intuition nach. ","0","1","0","13574","","{}","","","","","","","","","","","",""
"","html-keyboard-response","69","371654","0.0-6.0-6.0-0.0","qojb7hpk86","many_one","0","direct_first","1","la07ar09","1","27","1","1","3","1","Das Bild mit dem Mond und der Wüste ist sehr schön. Daher hatte ich mir das Zeichen dafür eingeprägt und immer positiv bewertet. Ansonsten ging ich schon fast nur meiner Intuition nach. ","0","1","0","null","","","<div class = 'row'><div class = 'column'><img src = 'uspos/1710.bmp' width = '100%;'></div><div class = 'column'><img src = 'category3/CS9.png' width = '70%;'></div></div>","null","pos","CS","CS","3","category3/CS9.png","","","","",""
"","html-keyboard-response","70","374175","0.0-6.0-6.0-0.1","qojb7hpk86","many_one","0","direct_first","1","la07ar09","1","27","1","1","3","1","Das Bild mit dem Mond und der Wüste ist sehr schön. Daher hatte ich mir das Zeichen dafür eingeprägt und immer positiv bewertet. Ansonsten ging ich schon fast nur meiner Intuition nach. ","0","1","0","null","","","<div class = 'row'><div class = 'column'><img src = 'usneg/2205.bmp' width = '100%;'></div><div class = 'column'><img src = 'category1/CS10.png' width = '70%;'></div></div>","null","neg","CS","CS","1","category1/CS10.png","","","","",""
"","html-keyboard-response","71","376693","0.0-6.0-6.0-0.2","qojb7hpk86","many_one","0","direct_first","1","la07ar09","1","27","1","1","3","1","Das Bild mit dem Mond und der Wüste ist sehr schön. Daher hatte ich mir das Zeichen dafür eingeprägt und immer positiv bewertet. Ansonsten ging ich schon fast nur meiner Intuition nach. ","0","1","0","null","","","<div class = 'row'><div class = 'column'><img src = 'category1/CS5.png' width = '70%;'></div><div class = 'column'><img src = 'usneg/3160.bmp' width = '100%;'></div></div>","null","neg","CS","CS","1","category1/CS5.png","","","","",""
"","html-keyboard-response","72","379213","0.0-6.0-6.0-0.3","qojb7hpk86","many_one","0","direct_first","1","la07ar09","1","27","1","1","3","1","Das Bild mit dem Mond und der Wüste ist sehr schön. Daher hatte ich mir das Zeichen dafür eingeprägt und immer positiv bewertet. Ansonsten ging ich schon fast nur meiner Intuition nach. ","0","1","0","null","","","<div class = 'row'><div class = 'column'><img src = 'usneg/6212.bmp' width = '100%;'></div><div class = 'column'><img src = 'category2/CS9.png' width = '70%;'></div></div>","null","neg","CS","CS","2","category2/CS9.png","","","","",""
"","html-keyboard-response","73","381733","0.0-6.0-6.0-0.4","qojb7hpk86","many_one","0","direct_first","1","la07ar09","1","27","1","1","3","1","Das Bild mit dem Mond und der Wüste ist sehr schön. Daher hatte ich mir das Zeichen dafür eingeprägt und immer positiv bewertet. Ansonsten ging ich schon fast nur meiner Intuition nach. ","0","1","0","null","","","<div class = 'row'><div class = 'column'><img src = 'category1/CS6.png' width = '70%;'></div><div class = 'column'><img src = 'usneg/6570.1.bmp' width = '100%;'></div></div>","null","neg","CS","CS","1","category1/CS6.png","","","","",""
"","html-keyboard-response","74","384246","0.0-6.0-6.0-0.5","qojb7hpk86","many_one","0","direct_first","1","la07ar09","1","27","1","1","3","1","Das Bild mit dem Mond und der Wüste ist sehr schön. Daher hatte ich mir das Zeichen dafür eingeprägt und immer positiv bewertet. Ansonsten ging ich schon fast nur meiner Intuition nach. ","0","1","0","null","","","<div class = 'row'><div class = 'column'><img src = 'category4/CS10.png' width = '70%;'></div><div class = 'column'><img src = 'uspos/5470.bmp' width = '100%;'></div></div>","null","pos","CS","CS","4","category4/CS10.png","","","","",""
"","html-keyboard-response","75","386771","0.0-6.0-6.0-0.6","qojb7hpk86","many_one","0","direct_first","1","la07ar09","1","27","1","1","3","1","Das Bild mit dem Mond und der Wüste ist sehr schön. Daher hatte ich mir das Zeichen dafür eingeprägt und immer positiv bewertet. Ansonsten ging ich schon fast nur meiner Intuition nach. ","0","1","0","null","","","<div class = 'row'><div class = 'column'><img src = 'category2/CS7.png' width = '70%;'></div><div class = 'column'><img src = 'usneg/6020.bmp' width = '100%;'></div></div>","null","neg","CS","CS","2","category2/CS7.png","","","","",""
"","html-keyboard-response","76","389300","0.0-6.0-6.0-0.7","qojb7hpk86","many_one","0","direct_first","1","la07ar09","1","27","1","1","3","1","Das Bild mit dem Mond und der Wüste ist sehr schön. Daher hatte ich mir das Zeichen dafür eingeprägt und immer positiv bewertet. Ansonsten ging ich schon fast nur meiner Intuition nach. ","0","1","0","null","","","<div class = 'row'><div class = 'column'><img src = 'uspos/8080.bmp' width = '100%;'></div><div class = 'column'><img src = 'category3/CS3.png' width = '70%;'></div></div>","null","pos","CS","CS","3","category3/CS3.png","","","","",""
"","html-keyboard-response","77","391830","0.0-6.0-6.0-0.8","qojb7hpk86","many_one","0","direct_first","1","la07ar09","1","27","1","1","3","1","Das Bild mit dem Mond und der Wüste ist sehr schön. Daher hatte ich mir das Zeichen dafür eingeprägt und immer positiv bewertet. Ansonsten ging ich schon fast nur meiner Intuition nach. ","0","1","0","null","","","<div class = 'row'><div class = 'column'><img src = 'category3/CS1.png' width = '70%;'></div><div class = 'column'><img src = 'uspos/5621.bmp' width = '100%;'></div></div>","null","pos","CS","CS","3","category3/CS1.png","","","","",""
"","html-keyboard-response","78","394339","0.0-6.0-6.0-0.9","qojb7hpk86","many_one","0","direct_first","1","la07ar09","1","27","1","1","3","1","Das Bild mit dem Mond und der Wüste ist sehr schön. Daher hatte ich mir das Zeichen dafür eingeprägt und immer positiv bewertet. Ansonsten ging ich schon fast nur meiner Intuition nach. ","0","1","0","null","","","<div class = 'row'><div class = 'column'><img src = 'uspos/8190.bmp' width = '100%;'></div><div class = 'column'><img src = 'category3/CS2.png' width = '70%;'></div></div>","null","pos","CS","CS","3","category3/CS2.png","","","","",""
"","html-keyboard-response","79","396855","0.0-6.0-6.0-0.10","qojb7hpk86","many_one","0","direct_first","1","la07ar09","1","27","1","1","3","1","Das Bild mit dem Mond und der Wüste ist sehr schön. Daher hatte ich mir das Zeichen dafür eingeprägt und immer positiv bewertet. Ansonsten ging ich schon fast nur meiner Intuition nach. ","0","1","0","null","","","<div class = 'row'><div class = 'column'><img src = 'uspos/7580.bmp' width = '100%;'></div><div class = 'column'><img src = 'category4/CS4.png' width = '70%;'></div></div>","null","pos","CS","CS","4","category4/CS4.png","","","","",""
"","html-keyboard-response","80","399366","0.0-6.0-6.0-0.11","qojb7hpk86","many_one","0","direct_first","1","la07ar09","1","27","1","1","3","1","Das Bild mit dem Mond und der Wüste ist sehr schön. Daher hatte ich mir das Zeichen dafür eingeprägt und immer positiv bewertet. Ansonsten ging ich schon fast nur meiner Intuition nach. ","0","1","0","null","","","<div class = 'row'><div class = 'column'><img src = 'category4/CS2.png' width = '70%;'></div><div class = 'column'><img src = 'uspos/1460.bmp' width = '100%;'></div></div>","null","pos","CS","CS","4","category4/CS2.png","","","","",""
"","html-keyboard-response","81","401892","0.0-6.0-6.0-0.12","qojb7hpk86","many_one","0","direct_first","1","la07ar09","1","27","1","1","3","1","Das Bild mit dem Mond und der Wüste ist sehr schön. Daher hatte ich mir das Zeichen dafür eingeprägt und immer positiv bewertet. Ansonsten ging ich schon fast nur meiner Intuition nach. ","0","1","0","null","","","<div class = 'row'><div class = 'column'><img src = 'category3/CS8.png' width = '70%;'></div><div class = 'column'><img src = 'uspos/5831.bmp' width = '100%;'></div></div>","null","pos","CS","CS","3","category3/CS8.png","","","","",""
"","html-keyboard-response","82","404407","0.0-6.0-6.0-0.13","qojb7hpk86","many_one","0","direct_first","1","la07ar09","1","27","1","1","3","1","Das Bild mit dem Mond und der Wüste ist sehr schön. Daher hatte ich mir das Zeichen dafür eingeprägt und immer positiv bewertet. Ansonsten ging ich schon fast nur meiner Intuition nach. ","0","1","0","null","","","<div class = 'row'><div class = 'column'><img src = 'category4/CS1.png' width = '70%;'></div><div class = 'column'><img src = 'uspos/2160.bmp' width = '100%;'></div></div>","null","pos","CS","CS","4","category4/CS1.png","","","","",""
"","html-keyboard-response","83","406926","0.0-6.0-6.0-0.14","qojb7hpk86","many_one","0","direct_first","1","la07ar09","1","27","1","1","3","1","Das Bild mit dem Mond und der Wüste ist sehr schön. Daher hatte ich mir das Zeichen dafür eingeprägt und immer positiv bewertet. Ansonsten ging ich schon fast nur meiner Intuition nach. ","0","1","0","null","","","<div class = 'row'><div class = 'column'><img src = 'category4/CS8.png' width = '70%;'></div><div class = 'column'><img src = 'uspos/2360.bmp' width = '100%;'></div></div>","null","pos","CS","CS","4","category4/CS8.png","","","","",""
"","html-keyboard-response","84","409455","0.0-6.0-6.0-0.15","qojb7hpk86","many_one","0","direct_first","1","la07ar09","1","27","1","1","3","1","Das Bild mit dem Mond und der Wüste ist sehr schön. Daher hatte ich mir das Zeichen dafür eingeprägt und immer positiv bewertet. Ansonsten ging ich schon fast nur meiner Intuition nach. ","0","1","0","null","","","<div class = 'row'><div class = 'column'><img src = 'category2/CS1.png' width = '70%;'></div><div class = 'column'><img src = 'usneg/9220.bmp' width = '100%;'></div></div>","null","neg","CS","CS","2","category2/CS1.png","","","","",""
"","html-keyboard-response","85","411965","0.0-6.0-6.0-0.16","qojb7hpk86","many_one","0","direct_first","1","la07ar09","1","27","1","1","3","1","Das Bild mit dem Mond und der Wüste ist sehr schön. Daher hatte ich mir das Zeichen dafür eingeprägt und immer positiv bewertet. Ansonsten ging ich schon fast nur meiner Intuition nach. ","0","1","0","null","","","<div class = 'row'><div class = 'column'><img src = 'category1/CS2.png' width = '70%;'></div><div class = 'column'><img src = 'usneg/2900.bmp' width = '100%;'></div></div>","null","neg","CS","CS","1","category1/CS2.png","","","","",""
"","html-keyboard-response","86","414484","0.0-6.0-6.0-0.17","qojb7hpk86","many_one","0","direct_first","1","la07ar09","1","27","1","1","3","1","Das Bild mit dem Mond und der Wüste ist sehr schön. Daher hatte ich mir das Zeichen dafür eingeprägt und immer positiv bewertet. Ansonsten ging ich schon fast nur meiner Intuition nach. ","0","1","0","null","","","<div class = 'row'><div class = 'column'><img src = 'category1/CS9.png' width = '70%;'></div><div class = 'column'><img src = 'usneg/9290.bmp' width = '100%;'></div></div>","null","neg","CS","CS","1","category1/CS9.png","","","","",""
"","html-keyboard-response","87","417003","0.0-6.0-6.0-0.18","qojb7hpk86","many_one","0","direct_first","1","la07ar09","1","27","1","1","3","1","Das Bild mit dem Mond und der Wüste ist sehr schön. Daher hatte ich mir das Zeichen dafür eingeprägt und immer positiv bewertet. Ansonsten ging ich schon fast nur meiner Intuition nach. ","0","1","0","null","","","<div class = 'row'><div class = 'column'><img src = 'category2/CS5.png' width = '70%;'></div><div class = 'column'><img src = 'usneg/9435.bmp' width = '100%;'></div></div>","null","neg","CS","CS","2","category2/CS5.png","","","","",""
"","html-keyboard-response","88","419512","0.0-6.0-6.0-0.19","qojb7hpk86","many_one","0","direct_first","1","la07ar09","1","27","1","1","3","1","Das Bild mit dem Mond und der Wüste ist sehr schön. Daher hatte ich mir das Zeichen dafür eingeprägt und immer positiv bewertet. Ansonsten ging ich schon fast nur meiner Intuition nach. ","0","1","0","null","","","<div class = 'row'><div class = 'column'><img src = 'category2/CS6.png' width = '70%;'></div><div class = 'column'><img src = 'usneg/9041.bmp' width = '100%;'></div></div>","null","neg","CS","CS","2","category2/CS6.png","","","","",""
"","survey-html-form","89","436906","0.0-7.0","qojb7hpk86","many_one","0","direct_first","1","la07ar09","1","27","1","1","3","1","Das Bild mit dem Mond und der Wüste ist sehr schön. Daher hatte ich mir das Zeichen dafür eingeprägt und immer positiv bewertet. Ansonsten ging ich schon fast nur meiner Intuition nach. ","0","1","0","16884","","{}","","","","","","","","","","","",""
"","image-slider-response","90","450578","0.0-8.0-0.0","qojb7hpk86","many_one","0","direct_first","1","la07ar09","1","27","1","1","3","1","Das Bild mit dem Mond und der Wüste ist sehr schön. Daher hatte ich mir das Zeichen dafür eingeprägt und immer positiv bewertet. Ansonsten ging ich schon fast nur meiner Intuition nach. ","0","1","0","11641","","","","","pos","CS","CS","3","category3/CS3.png","48","targets/2.png","direct","",""
"","image-slider-response","91","460585","0.0-8.0-0.1","qojb7hpk86","many_one","0","direct_first","1","la07ar09","1","27","1","1","3","1","Das Bild mit dem Mond und der Wüste ist sehr schön. Daher hatte ich mir das Zeichen dafür eingeprägt und immer positiv bewertet. Ansonsten ging ich schon fast nur meiner Intuition nach. ","0","1","0","10006","","","","","pos","GS","GSold","4","category4/CS5.png","-56","targets/44.png","direct","",""
"","image-slider-response","92","466010","0.0-8.0-0.2","qojb7hpk86","many_one","0","direct_first","1","la07ar09","1","27","1","1","3","1","Das Bild mit dem Mond und der Wüste ist sehr schön. Daher hatte ich mir das Zeichen dafür eingeprägt und immer positiv bewertet. Ansonsten ging ich schon fast nur meiner Intuition nach. ","0","1","0","5422","","","","","neg","GS","GSnew","2","category2/GS1.png","-37","targets/33.png","direct","",""
"","image-slider-response","93","469899","0.0-8.0-0.3","qojb7hpk86","many_one","0","direct_first","1","la07ar09","1","27","1","1","3","1","Das Bild mit dem Mond und der Wüste ist sehr schön. Daher hatte ich mir das Zeichen dafür eingeprägt und immer positiv bewertet. Ansonsten ging ich schon fast nur meiner Intuition nach. ","0","1","0","3885","","","","","pos","CS","CS","4","category4/CS2.png","-28","targets/38.png","direct","",""
"","image-slider-response","94","476842","0.0-8.0-0.4","qojb7hpk86","many_one","0","direct_first","1","la07ar09","1","27","1","1","3","1","Das Bild mit dem Mond und der Wüste ist sehr schön. Daher hatte ich mir das Zeichen dafür eingeprägt und immer positiv bewertet. Ansonsten ging ich schon fast nur meiner Intuition nach. ","0","1","0","6942","","","","","neg","GS","GSold","2","category2/CS3.png","-84","targets/27.png","direct","",""
"","image-slider-response","95","484370","0.0-8.0-0.5","qojb7hpk86","many_one","0","direct_first","1","la07ar09","1","27","1","1","3","1","Das Bild mit dem Mond und der Wüste ist sehr schön. Daher hatte ich mir das Zeichen dafür eingeprägt und immer positiv bewertet. Ansonsten ging ich schon fast nur meiner Intuition nach. ","0","1","0","7526","","","","","pos","GS","GSold","4","category4/CS9.png","45","targets/16.png","direct","",""
"","image-slider-response","96","492041","0.0-8.0-0.6","qojb7hpk86","many_one","0","direct_first","1","la07ar09","1","27","1","1","3","1","Das Bild mit dem Mond und der Wüste ist sehr schön. Daher hatte ich mir das Zeichen dafür eingeprägt und immer positiv bewertet. Ansonsten ging ich schon fast nur meiner Intuition nach. ","0","1","0","7670","","","","","neg","GS","GSold","1","category1/CS4.png","-80","targets/29.png","direct","",""
"","image-slider-response","97","495801","0.0-8.0-0.7","qojb7hpk86","many_one","0","direct_first","1","la07ar09","1","27","1","1","3","1","Das Bild mit dem Mond und der Wüste ist sehr schön. Daher hatte ich mir das Zeichen dafür eingeprägt und immer positiv bewertet. Ansonsten ging ich schon fast nur meiner Intuition nach. ","0","1","0","3757","","","","","neg","GS","GSold","2","category2/CS2.png","-44","targets/32.png","direct","",""
"","image-slider-response","98","501770","0.0-8.0-0.8","qojb7hpk86","many_one","0","direct_first","1","la07ar09","1","27","1","1","3","1","Das Bild mit dem Mond und der Wüste ist sehr schön. Daher hatte ich mir das Zeichen dafür eingeprägt und immer positiv bewertet. Ansonsten ging ich schon fast nur meiner Intuition nach. ","0","1","0","5966","","","","","pos","CS","CS","4","category4/CS8.png","51","targets/11.png","direct","",""
"","image-slider-response","99","509034","0.0-8.0-0.9","qojb7hpk86","many_one","0","direct_first","1","la07ar09","1","27","1","1","3","1","Das Bild mit dem Mond und der Wüste ist sehr schön. Daher hatte ich mir das Zeichen dafür eingeprägt und immer positiv bewertet. Ansonsten ging ich schon fast nur meiner Intuition nach. ","0","1","0","7260","","","","","neg","GS","GSnew","1","category1/GS1.png","53","targets/34.png","direct","",""
"","image-slider-response","100","514450","0.0-8.0-0.10","qojb7hpk86","many_one","0","direct_first","1","la07ar09","1","27","1","1","3","1","Das Bild mit dem Mond und der Wüste ist sehr schön. Daher hatte ich mir das Zeichen dafür eingeprägt und immer positiv bewertet. Ansonsten ging ich schon fast nur meiner Intuition nach. ","0","1","0","5413","","","","","pos","GS","abstract","4","category4/lin.png","28","targets/14.png","direct","",""
"","image-slider-response","101","520010","0.0-8.0-0.11","qojb7hpk86","many_one","0","direct_first","1","la07ar09","1","27","1","1","3","1","Das Bild mit dem Mond und der Wüste ist sehr schön. Daher hatte ich mir das Zeichen dafür eingeprägt und immer positiv bewertet. Ansonsten ging ich schon fast nur meiner Intuition nach. ","0","1","0","5558","","","","","neg","CS","CS","1","category1/CS6.png","-34","targets/21.png","direct","",""
"","image-slider-response","102","525322","0.0-8.0-0.12","qojb7hpk86","many_one","0","direct_first","1","la07ar09","1","27","1","1","3","1","Das Bild mit dem Mond und der Wüste ist sehr schön. Daher hatte ich mir das Zeichen dafür eingeprägt und immer positiv bewertet. Ansonsten ging ich schon fast nur meiner Intuition nach. ","0","1","0","5310","","","","","pos","GS","GSnew","3","category3/GS2.png","-35","targets/12.png","direct","",""
"","image-slider-response","103","532449","0.0-8.0-0.13","qojb7hpk86","many_one","0","direct_first","1","la07ar09","1","27","1","1","3","1","Das Bild mit dem Mond und der Wüste ist sehr schön. Daher hatte ich mir das Zeichen dafür eingeprägt und immer positiv bewertet. Ansonsten ging ich schon fast nur meiner Intuition nach. ","0","1","0","7126","","","","","neg","GS","GSold","1","category1/CS3.png","35","targets/13.png","direct","",""
"","image-slider-response","104","540450","0.0-8.0-0.14","qojb7hpk86","many_one","0","direct_first","1","la07ar09","1","27","1","1","3","1","Das Bild mit dem Mond und der Wüste ist sehr schön. Daher hatte ich mir das Zeichen dafür eingeprägt und immer positiv bewertet. Ansonsten ging ich schon fast nur meiner Intuition nach. ","0","1","0","7998","","","","","pos","GS","GSold","4","category4/CS7.png","63","targets/45.png","direct","",""
"","image-slider-response","105","545410","0.0-8.0-0.15","qojb7hpk86","many_one","0","direct_first","1","la07ar09","1","27","1","1","3","1","Das Bild mit dem Mond und der Wüste ist sehr schön. Daher hatte ich mir das Zeichen dafür eingeprägt und immer positiv bewertet. Ansonsten ging ich schon fast nur meiner Intuition nach. ","0","1","0","4958","","","","","pos","CS","CS","3","category3/CS9.png","100","targets/36.png","direct","",""
"","image-slider-response","106","558786","0.0-8.0-0.16","qojb7hpk86","many_one","0","direct_first","1","la07ar09","1","27","1","1","3","1","Das Bild mit dem Mond und der Wüste ist sehr schön. Daher hatte ich mir das Zeichen dafür eingeprägt und immer positiv bewertet. Ansonsten ging ich schon fast nur meiner Intuition nach. ","0","1","0","13374","","","","","neg","CS","CS","2","category2/CS6.png","-84","targets/48.png","direct","",""
"","image-slider-response","107","567810","0.0-8.0-0.17","qojb7hpk86","many_one","0","direct_first","1","la07ar09","1","27","1","1","3","1","Das Bild mit dem Mond und der Wüste ist sehr schön. Daher hatte ich mir das Zeichen dafür eingeprägt und immer positiv bewertet. Ansonsten ging ich schon fast nur meiner Intuition nach. ","0","1","0","9022","","","","","pos","GS","GSold","3","category3/CS6.png","-8","targets/1.png","direct","",""
"","image-slider-response","108","572090","0.0-8.0-0.18","qojb7hpk86","many_one","0","direct_first","1","la07ar09","1","27","1","1","3","1","Das Bild mit dem Mond und der Wüste ist sehr schön. Daher hatte ich mir das Zeichen dafür eingeprägt und immer positiv bewertet. Ansonsten ging ich schon fast nur meiner Intuition nach. ","0","1","0","4278","","","","","neg","CS","CS","2","category2/CS9.png","-29","targets/23.png","direct","",""
"","image-slider-response","109","575539","0.0-8.0-0.19","qojb7hpk86","many_one","0","direct_first","1","la07ar09","1","27","1","1","3","1","Das Bild mit dem Mond und der Wüste ist sehr schön. Daher hatte ich mir das Zeichen dafür eingeprägt und immer positiv bewertet. Ansonsten ging ich schon fast nur meiner Intuition nach. ","0","1","0","3448","","","","","pos","GS","GSold","3","category3/CS10.png","-34","targets/43.png","direct","",""
"","image-slider-response","110","585026","0.0-8.0-0.20","qojb7hpk86","many_one","0","direct_first","1","la07ar09","1","27","1","1","3","1","Das Bild mit dem Mond und der Wüste ist sehr schön. Daher hatte ich mir das Zeichen dafür eingeprägt und immer positiv bewertet. Ansonsten ging ich schon fast nur meiner Intuition nach. ","0","1","0","9483","","","","","neg","CS","CS","2","category2/CS7.png","-71","targets/35.png","direct","",""
"","image-slider-response","111","592090","0.0-8.0-0.21","qojb7hpk86","many_one","0","direct_first","1","la07ar09","1","27","1","1","3","1","Das Bild mit dem Mond und der Wüste ist sehr schön. Daher hatte ich mir das Zeichen dafür eingeprägt und immer positiv bewertet. Ansonsten ging ich schon fast nur meiner Intuition nach. ","0","1","0","7062","","","","","pos","GS","abstract","3","category3/wang.png","33","targets/31.png","direct","",""
"","image-slider-response","112","594801","0.0-8.0-0.22","qojb7hpk86","many_one","0","direct_first","1","la07ar09","1","27","1","1","3","1","Das Bild mit dem Mond und der Wüste ist sehr schön. Daher hatte ich mir das Zeichen dafür eingeprägt und immer positiv bewertet. Ansonsten ging ich schon fast nur meiner Intuition nach. ","0","1","0","2709","","","","","neg","GS","GSold","1","category1/CS1.png","-32","targets/42.png","direct","",""
"","image-slider-response","113","598146","0.0-8.0-0.23","qojb7hpk86","many_one","0","direct_first","1","la07ar09","1","27","1","1","3","1","Das Bild mit dem Mond und der Wüste ist sehr schön. Daher hatte ich mir das Zeichen dafür eingeprägt und immer positiv bewertet. Ansonsten ging ich schon fast nur meiner Intuition nach. ","0","1","0","3342","","","","","neg","CS","CS","1","category1/CS5.png","64","targets/19.png","direct","",""
"","image-slider-response","114","603385","0.0-8.0-0.24","qojb7hpk86","many_one","0","direct_first","1","la07ar09","1","27","1","1","3","1","Das Bild mit dem Mond und der Wüste ist sehr schön. Daher hatte ich mir das Zeichen dafür eingeprägt und immer positiv bewertet. Ansonsten ging ich schon fast nur meiner Intuition nach. ","0","1","0","5238","","","","","pos","GS","GSold","3","category3/CS7.png","-100","targets/47.png","direct","",""
"","image-slider-response","115","609234","0.0-8.0-0.25","qojb7hpk86","many_one","0","direct_first","1","la07ar09","1","27","1","1","3","1","Das Bild mit dem Mond und der Wüste ist sehr schön. Daher hatte ich mir das Zeichen dafür eingeprägt und immer positiv bewertet. Ansonsten ging ich schon fast nur meiner Intuition nach. ","0","1","0","5847","","","","","pos","CS","CS","3","category3/CS2.png","57","targets/28.png","direct","",""
"","image-slider-response","116","613770","0.0-8.0-0.26","qojb7hpk86","many_one","0","direct_first","1","la07ar09","1","27","1","1","3","1","Das Bild mit dem Mond und der Wüste ist sehr schön. Daher hatte ich mir das Zeichen dafür eingeprägt und immer positiv bewertet. Ansonsten ging ich schon fast nur meiner Intuition nach. ","0","1","0","4534","","","","","pos","CS","CS","4","category4/CS10.png","100","targets/40.png","direct","",""
"","image-slider-response","117","616258","0.0-8.0-0.27","qojb7hpk86","many_one","0","direct_first","1","la07ar09","1","27","1","1","3","1","Das Bild mit dem Mond und der Wüste ist sehr schön. Daher hatte ich mir das Zeichen dafür eingeprägt und immer positiv bewertet. Ansonsten ging ich schon fast nur meiner Intuition nach. ","0","1","0","2485","","","","","neg","CS","CS","2","category2/CS1.png","-49","targets/26.png","direct","",""
"","image-slider-response","118","621922","0.0-8.0-0.28","qojb7hpk86","many_one","0","direct_first","1","la07ar09","1","27","1","1","3","1","Das Bild mit dem Mond und der Wüste ist sehr schön. Daher hatte ich mir das Zeichen dafür eingeprägt und immer positiv bewertet. Ansonsten ging ich schon fast nur meiner Intuition nach. ","0","1","0","5663","","","","","pos","CS","CS","3","category3/CS8.png","100","targets/24.png","direct","",""
"","image-slider-response","119","628234","0.0-8.0-0.29","qojb7hpk86","many_one","0","direct_first","1","la07ar09","1","27","1","1","3","1","Das Bild mit dem Mond und der Wüste ist sehr schön. Daher hatte ich mir das Zeichen dafür eingeprägt und immer positiv bewertet. Ansonsten ging ich schon fast nur meiner Intuition nach. ","0","1","0","6311","","","","","pos","GS","GSnew","4","category4/GS2.png","-76","targets/37.png","direct","",""
"","image-slider-response","120","631074","0.0-8.0-0.30","qojb7hpk86","many_one","0","direct_first","1","la07ar09","1","27","1","1","3","1","Das Bild mit dem Mond und der Wüste ist sehr schön. Daher hatte ich mir das Zeichen dafür eingeprägt und immer positiv bewertet. Ansonsten ging ich schon fast nur meiner Intuition nach. ","0","1","0","2838","","","","","pos","CS","CS","4","category4/CS4.png","100","targets/8.png","direct","",""
"","image-slider-response","121","633490","0.0-8.0-0.31","qojb7hpk86","many_one","0","direct_first","1","la07ar09","1","27","1","1","3","1","Das Bild mit dem Mond und der Wüste ist sehr schön. Daher hatte ich mir das Zeichen dafür eingeprägt und immer positiv bewertet. Ansonsten ging ich schon fast nur meiner Intuition nach. ","0","1","0","2414","","","","","pos","GS","GSnew","3","category3/GS3.png","21","targets/30.png","direct","",""
"","image-slider-response","122","637490","0.0-8.0-0.32","qojb7hpk86","many_one","0","direct_first","1","la07ar09","1","27","1","1","3","1","Das Bild mit dem Mond und der Wüste ist sehr schön. Daher hatte ich mir das Zeichen dafür eingeprägt und immer positiv bewertet. Ansonsten ging ich schon fast nur meiner Intuition nach. ","0","1","0","3997","","","","","neg","CS","CS","1","category1/CS9.png","-100","targets/22.png","direct","",""
"","image-slider-response","123","640490","0.0-8.0-0.33","qojb7hpk86","many_one","0","direct_first","1","la07ar09","1","27","1","1","3","1","Das Bild mit dem Mond und der Wüste ist sehr schön. Daher hatte ich mir das Zeichen dafür eingeprägt und immer positiv bewertet. Ansonsten ging ich schon fast nur meiner Intuition nach. ","0","1","0","2998","","","","","neg","GS","GSold","2","category2/CS8.png","-45","targets/25.png","direct","",""
"","image-slider-response","124","643529","0.0-8.0-0.34","qojb7hpk86","many_one","0","direct_first","1","la07ar09","1","27","1","1","3","1","Das Bild mit dem Mond und der Wüste ist sehr schön. Daher hatte ich mir das Zeichen dafür eingeprägt und immer positiv bewertet. Ansonsten ging ich schon fast nur meiner Intuition nach. ","0","1","0","3037","","","","","neg","CS","CS","2","category2/CS5.png","39","targets/7.png","direct","",""
"","image-slider-response","125","647681","0.0-8.0-0.35","qojb7hpk86","many_one","0","direct_first","1","la07ar09","1","27","1","1","3","1","Das Bild mit dem Mond und der Wüste ist sehr schön. Daher hatte ich mir das Zeichen dafür eingeprägt und immer positiv bewertet. Ansonsten ging ich schon fast nur meiner Intuition nach. ","0","1","0","4150","","","","","pos","GS","GSnew","4","category4/GS3.png","100","targets/41.png","direct","",""
"","image-slider-response","126","651146","0.0-8.0-0.36","qojb7hpk86","many_one","0","direct_first","1","la07ar09","1","27","1","1","3","1","Das Bild mit dem Mond und der Wüste ist sehr schön. Daher hatte ich mir das Zeichen dafür eingeprägt und immer positiv bewertet. Ansonsten ging ich schon fast nur meiner Intuition nach. ","0","1","0","3464","","","","","neg","GS","GSnew","1","category1/GS2.png","-58","targets/15.png","direct","",""
"","image-slider-response","127","653674","0.0-8.0-0.37","qojb7hpk86","many_one","0","direct_first","1","la07ar09","1","27","1","1","3","1","Das Bild mit dem Mond und der Wüste ist sehr schön. Daher hatte ich mir das Zeichen dafür eingeprägt und immer positiv bewertet. Ansonsten ging ich schon fast nur meiner Intuition nach. ","0","1","0","2526","","","","","pos","GS","GSnew","3","category3/GS1.png","-36","targets/9.png","direct","",""
"","image-slider-response","128","657018","0.0-8.0-0.38","qojb7hpk86","many_one","0","direct_first","1","la07ar09","1","27","1","1","3","1","Das Bild mit dem Mond und der Wüste ist sehr schön. Daher hatte ich mir das Zeichen dafür eingeprägt und immer positiv bewertet. Ansonsten ging ich schon fast nur meiner Intuition nach. ","0","1","0","3341","","","","","neg","GS","GSnew","2","category2/GS2.png","27","targets/20.png","direct","",""
"","image-slider-response","129","663842","0.0-8.0-0.39","qojb7hpk86","many_one","0","direct_first","1","la07ar09","1","27","1","1","3","1","Das Bild mit dem Mond und der Wüste ist sehr schön. Daher hatte ich mir das Zeichen dafür eingeprägt und immer positiv bewertet. Ansonsten ging ich schon fast nur meiner Intuition nach. ","0","1","0","6822","","","","","neg","CS","CS","1","category1/CS10.png","54","targets/5.png","direct","",""
"","image-slider-response","130","670858","0.0-8.0-0.40","qojb7hpk86","many_one","0","direct_first","1","la07ar09","1","27","1","1","3","1","Das Bild mit dem Mond und der Wüste ist sehr schön. Daher hatte ich mir das Zeichen dafür eingeprägt und immer positiv bewertet. Ansonsten ging ich schon fast nur meiner Intuition nach. ","0","1","0","7014","","","","","neg","CS","CS","1","category1/CS2.png","24","targets/10.png","direct","",""
"","image-slider-response","131","673762","0.0-8.0-0.41","qojb7hpk86","many_one","0","direct_first","1","la07ar09","1","27","1","1","3","1","Das Bild mit dem Mond und der Wüste ist sehr schön. Daher hatte ich mir das Zeichen dafür eingeprägt und immer positiv bewertet. Ansonsten ging ich schon fast nur meiner Intuition nach. ","0","1","0","2901","","","","","pos","CS","CS","4","category4/CS1.png","100","targets/17.png","direct","",""
"","image-slider-response","132","676257","0.0-8.0-0.42","qojb7hpk86","many_one","0","direct_first","1","la07ar09","1","27","1","1","3","1","Das Bild mit dem Mond und der Wüste ist sehr schön. Daher hatte ich mir das Zeichen dafür eingeprägt und immer positiv bewertet. Ansonsten ging ich schon fast nur meiner Intuition nach. ","0","1","0","2493","","","","","neg","GS","GSnew","2","category2/GS3.png","49","targets/39.png","direct","",""
"","image-slider-response","133","681346","0.0-8.0-0.43","qojb7hpk86","many_one","0","direct_first","1","la07ar09","1","27","1","1","3","1","Das Bild mit dem Mond und der Wüste ist sehr schön. Daher hatte ich mir das Zeichen dafür eingeprägt und immer positiv bewertet. Ansonsten ging ich schon fast nur meiner Intuition nach. ","0","1","0","5086","","","","","pos","GS","GSnew","4","category4/GS1.png","44","targets/4.png","direct","",""
"","image-slider-response","134","685393","0.0-8.0-0.44","qojb7hpk86","many_one","0","direct_first","1","la07ar09","1","27","1","1","3","1","Das Bild mit dem Mond und der Wüste ist sehr schön. Daher hatte ich mir das Zeichen dafür eingeprägt und immer positiv bewertet. Ansonsten ging ich schon fast nur meiner Intuition nach. ","0","1","0","4046","","","","","neg","GS","abstract","2","category2/men.png","-16","targets/46.png","direct","",""
"","image-slider-response","135","688754","0.0-8.0-0.45","qojb7hpk86","many_one","0","direct_first","1","la07ar09","1","27","1","1","3","1","Das Bild mit dem Mond und der Wüste ist sehr schön. Daher hatte ich mir das Zeichen dafür eingeprägt und immer positiv bewertet. Ansonsten ging ich schon fast nur meiner Intuition nach. ","0","1","0","3358","","","","","pos","CS","CS","3","category3/CS1.png","-66","targets/18.png","direct","",""
"","image-slider-response","136","691098","0.0-8.0-0.46","qojb7hpk86","many_one","0","direct_first","1","la07ar09","1","27","1","1","3","1","Das Bild mit dem Mond und der Wüste ist sehr schön. Daher hatte ich mir das Zeichen dafür eingeprägt und immer positiv bewertet. Ansonsten ging ich schon fast nur meiner Intuition nach. ","0","1","0","2342","","","","","neg","GS","GSnew","1","category1/GS3.png","-32","targets/3.png","direct","",""
"","image-slider-response","137","694121","0.0-8.0-0.47","qojb7hpk86","many_one","0","direct_first","1","la07ar09","1","27","1","1","3","1","Das Bild mit dem Mond und der Wüste ist sehr schön. Daher hatte ich mir das Zeichen dafür eingeprägt und immer positiv bewertet. Ansonsten ging ich schon fast nur meiner Intuition nach. ","0","1","0","3021","","","","","neg","GS","abstract","1","category1/ma.png","-20","targets/6.png","direct","",""
"","html-keyboard-response","138","745473","0.0-9.0","qojb7hpk86","many_one","0","direct_first","1","la07ar09","1","27","1","1","3","1","Das Bild mit dem Mond und der Wüste ist sehr schön. Daher hatte ich mir das Zeichen dafür eingeprägt und immer positiv bewertet. Ansonsten ging ich schon fast nur meiner Intuition nach. ","0","1","0","51349","","","<p>Sie sehen nun die chinesischen Zeichen nur ganz kurz. Danach sehen Sie die jeweilige Aussprache der Zeichen als Silbe auf dem Bildschrim. Ihre Aufgabe ist es, für jede Silbe anzugeben, ob diese etwas angenehmes, oder unangenehmes bedeuten könnte. Verlassen Sie sich hier vor allem auf Ihre Intuition.<br><br>Die Zeichen werden nur zur Orientierung dargestellt, beachten Sie sie deshalb nicht. Konzentrieren Sie sich vor allem auf die Silben. <br>Reagieren Sie mit folgenden zwei Tasten: <br><br><b>'D' </b> wenn die Silbe etwas <b>unangenehmes</b> bedeuten könnte. <br><b>'K'</b> wenn die Silbe etwas <b>angenehmes</b> bedeuten könnte. <br><br>Bitte legen Sie nun den Zeigefinger der linken Hand auf die Taste 'D' und den Zeigefinger der rechten Hand auf die Taste 'K'. <br>Reagieren Sie auf jede Silbe so schnell wie möglich. Uns interessiert Ihre spontane Reaktion. <br> <br> <br>Drücken Sie 'D' oder 'K', um die nächste Aufgabe zu starten. </p>","75","","","","","","","","","",""
"","html-keyboard-response","139","748483","0.0-10.0-0.0","qojb7hpk86","many_one","0","direct_first","1","la07ar09","1","27","1","1","3","1","Das Bild mit dem Mond und der Wüste ist sehr schön. Daher hatte ich mir das Zeichen dafür eingeprägt und immer positiv bewertet. Ansonsten ging ich schon fast nur meiner Intuition nach. ","0","1","0","null","","","<div style=""font-size:60px;"">+</div>","null","","","","","","","","","",""
"","html-keyboard-response","140","748584","0.0-10.0-1.0","qojb7hpk86","many_one","0","direct_first","1","la07ar09","1","27","1","1","3","1","Das Bild mit dem Mond und der Wüste ist sehr schön. Daher hatte ich mir das Zeichen dafür eingeprägt und immer positiv bewertet. Ansonsten ging ich schon fast nur meiner Intuition nach. ","0","1","0","null","","","<img src = 'category1/CS10.png' width = '100%;'>","null","","","","","","","","","",""
"","html-keyboard-response","141","748869","0.0-10.0-2.0","qojb7hpk86","many_one","0","direct_first","1","la07ar09","1","27","1","1","3","1","Das Bild mit dem Mond und der Wüste ist sehr schön. Daher hatte ich mir das Zeichen dafür eingeprägt und immer positiv bewertet. Ansonsten ging ich schon fast nur meiner Intuition nach. ","0","1","0","null","","","<img src = 'targets/5.png' width = '100%;'>","null","","","","","","","","","",""
"","html-keyboard-response","142","754623","0.0-10.0-3.0","qojb7hpk86","many_one","0","direct_first","1","la07ar09","1","27","1","1","3","1","Das Bild mit dem Mond und der Wüste ist sehr schön. Daher hatte ich mir das Zeichen dafür eingeprägt und immer positiv bewertet. Ansonsten ging ich schon fast nur meiner Intuition nach. ","0","1","0","5750","","","<img src = 'targets/mask.png' width = '100%;'>","75","neg","CS","CS","1","category1/CS10.png","","targets/5.png","indirect","1","0"
"","html-keyboard-response","143","756143","0.0-10.0-0.1","qojb7hpk86","many_one","0","direct_first","1","la07ar09","1","27","1","1","3","1","Das Bild mit dem Mond und der Wüste ist sehr schön. Daher hatte ich mir das Zeichen dafür eingeprägt und immer positiv bewertet. Ansonsten ging ich schon fast nur meiner Intuition nach. ","0","1","0","null","","","<div style=""font-size:60px;"">+</div>","null","","","","","","","","","",""
"","html-keyboard-response","144","756244","0.0-10.0-1.1","qojb7hpk86","many_one","0","direct_first","1","la07ar09","1","27","1","1","3","1","Das Bild mit dem Mond und der Wüste ist sehr schön. Daher hatte ich mir das Zeichen dafür eingeprägt und immer positiv bewertet. Ansonsten ging ich schon fast nur meiner Intuition nach. ","0","1","0","null","","","<img src = 'category4/CS8.png' width = '100%;'>","null","","","","","","","","","",""
"","html-keyboard-response","145","756529","0.0-10.0-2.1","qojb7hpk86","many_one","0","direct_first","1","la07ar09","1","27","1","1","3","1","Das Bild mit dem Mond und der Wüste ist sehr schön. Daher hatte ich mir das Zeichen dafür eingeprägt und immer positiv bewertet. Ansonsten ging ich schon fast nur meiner Intuition nach. ","0","1","0","null","","","<img src = 'targets/11.png' width = '100%;'>","null","","","","","","","","","",""
"","html-keyboard-response","146","758532","0.0-10.0-3.1","qojb7hpk86","many_one","0","direct_first","1","la07ar09","1","27","1","1","3","1","Das Bild mit dem Mond und der Wüste ist sehr schön. Daher hatte ich mir das Zeichen dafür eingeprägt und immer positiv bewertet. Ansonsten ging ich schon fast nur meiner Intuition nach. ","0","1","0","2001","","","<img src = 'targets/mask.png' width = '100%;'>","75","pos","CS","CS","4","category4/CS8.png","","targets/11.png","indirect","1","1"
"","html-keyboard-response","147","760053","0.0-10.0-0.2","qojb7hpk86","many_one","0","direct_first","1","la07ar09","1","27","1","1","3","1","Das Bild mit dem Mond und der Wüste ist sehr schön. Daher hatte ich mir das Zeichen dafür eingeprägt und immer positiv bewertet. Ansonsten ging ich schon fast nur meiner Intuition nach. ","0","1","0","null","","","<div style=""font-size:60px;"">+</div>","null","","","","","","","","","",""
"","html-keyboard-response","148","760155","0.0-10.0-1.2","qojb7hpk86","many_one","0","direct_first","1","la07ar09","1","27","1","1","3","1","Das Bild mit dem Mond und der Wüste ist sehr schön. Daher hatte ich mir das Zeichen dafür eingeprägt und immer positiv bewertet. Ansonsten ging ich schon fast nur meiner Intuition nach. ","0","1","0","null","","","<img src = 'category3/CS3.png' width = '100%;'>","null","","","","","","","","","",""
"","html-keyboard-response","149","760439","0.0-10.0-2.2","qojb7hpk86","many_one","0","direct_first","1","la07ar09","1","27","1","1","3","1","Das Bild mit dem Mond und der Wüste ist sehr schön. Daher hatte ich mir das Zeichen dafür eingeprägt und immer positiv bewertet. Ansonsten ging ich schon fast nur meiner Intuition nach. ","0","1","0","null","","","<img src = 'targets/2.png' width = '100%;'>","null","","","","","","","","","",""
"","html-keyboard-response","150","762596","0.0-10.0-3.2","qojb7hpk86","many_one","0","direct_first","1","la07ar09","1","27","1","1","3","1","Das Bild mit dem Mond und der Wüste ist sehr schön. Daher hatte ich mir das Zeichen dafür eingeprägt und immer positiv bewertet. Ansonsten ging ich schon fast nur meiner Intuition nach. ","0","1","0","2154","","","<img src = 'targets/mask.png' width = '100%;'>","68","pos","CS","CS","3","category3/CS3.png","","targets/2.png","indirect","0","2"
"","html-keyboard-response","151","764107","0.0-10.0-0.3","qojb7hpk86","many_one","0","direct_first","1","la07ar09","1","27","1","1","3","1","Das Bild mit dem Mond und der Wüste ist sehr schön. Daher hatte ich mir das Zeichen dafür eingeprägt und immer positiv bewertet. Ansonsten ging ich schon fast nur meiner Intuition nach. ","0","1","0","null","","","<div style=""font-size:60px;"">+</div>","null","","","","","","","","","",""
"","html-keyboard-response","152","764209","0.0-10.0-1.3","qojb7hpk86","many_one","0","direct_first","1","la07ar09","1","27","1","1","3","1","Das Bild mit dem Mond und der Wüste ist sehr schön. Daher hatte ich mir das Zeichen dafür eingeprägt und immer positiv bewertet. Ansonsten ging ich schon fast nur meiner Intuition nach. ","0","1","0","null","","","<img src = 'category2/CS9.png' width = '100%;'>","null","","","","","","","","","",""
"","html-keyboard-response","153","764492","0.0-10.0-2.3","qojb7hpk86","many_one","0","direct_first","1","la07ar09","1","27","1","1","3","1","Das Bild mit dem Mond und der Wüste ist sehr schön. Daher hatte ich mir das Zeichen dafür eingeprägt und immer positiv bewertet. Ansonsten ging ich schon fast nur meiner Intuition nach. ","0","1","0","null","","","<img src = 'targets/23.png' width = '100%;'>","null","","","","","","","","","",""
"","html-keyboard-response","154","768744","0.0-10.0-3.3","qojb7hpk86","many_one","0","direct_first","1","la07ar09","1","27","1","1","3","1","Das Bild mit dem Mond und der Wüste ist sehr schön. Daher hatte ich mir das Zeichen dafür eingeprägt und immer positiv bewertet. Ansonsten ging ich schon fast nur meiner Intuition nach. ","0","1","0","4251","","","<img src = 'targets/mask.png' width = '100%;'>","68","neg","CS","CS","2","category2/CS9.png","","targets/23.png","indirect","0","3"
"","html-keyboard-response","155","770253","0.0-10.0-0.4","qojb7hpk86","many_one","0","direct_first","1","la07ar09","1","27","1","1","3","1","Das Bild mit dem Mond und der Wüste ist sehr schön. Daher hatte ich mir das Zeichen dafür eingeprägt und immer positiv bewertet. Ansonsten ging ich schon fast nur meiner Intuition nach. ","0","1","0","null","","","<div style=""font-size:60px;"">+</div>","null","","","","","","","","","",""
"","html-keyboard-response","156","770354","0.0-10.0-1.4","qojb7hpk86","many_one","0","direct_first","1","la07ar09","1","27","1","1","3","1","Das Bild mit dem Mond und der Wüste ist sehr schön. Daher hatte ich mir das Zeichen dafür eingeprägt und immer positiv bewertet. Ansonsten ging ich schon fast nur meiner Intuition nach. ","0","1","0","null","","","<img src = 'category1/CS2.png' width = '100%;'>","null","","","","","","","","","",""
"","html-keyboard-response","157","770629","0.0-10.0-2.4","qojb7hpk86","many_one","0","direct_first","1","la07ar09","1","27","1","1","3","1","Das Bild mit dem Mond und der Wüste ist sehr schön. Daher hatte ich mir das Zeichen dafür eingeprägt und immer positiv bewertet. Ansonsten ging ich schon fast nur meiner Intuition nach. ","0","1","0","null","","","<img src = 'targets/10.png' width = '100%;'>","null","","","","","","","","","",""
"","html-keyboard-response","158","774214","0.0-10.0-3.4","qojb7hpk86","many_one","0","direct_first","1","la07ar09","1","27","1","1","3","1","Das Bild mit dem Mond und der Wüste ist sehr schön. Daher hatte ich mir das Zeichen dafür eingeprägt und immer positiv bewertet. Ansonsten ging ich schon fast nur meiner Intuition nach. ","0","1","0","3583","","","<img src = 'targets/mask.png' width = '100%;'>","68","neg","CS","CS","1","category1/CS2.png","","targets/10.png","indirect","0","4"
"","html-keyboard-response","159","775739","0.0-10.0-0.5","qojb7hpk86","many_one","0","direct_first","1","la07ar09","1","27","1","1","3","1","Das Bild mit dem Mond und der Wüste ist sehr schön. Daher hatte ich mir das Zeichen dafür eingeprägt und immer positiv bewertet. Ansonsten ging ich schon fast nur meiner Intuition nach. ","0","1","0","null","","","<div style=""font-size:60px;"">+</div>","null","","","","","","","","","",""
"","html-keyboard-response","160","775850","0.0-10.0-1.5","qojb7hpk86","many_one","0","direct_first","1","la07ar09","1","27","1","1","3","1","Das Bild mit dem Mond und der Wüste ist sehr schön. Daher hatte ich mir das Zeichen dafür eingeprägt und immer positiv bewertet. Ansonsten ging ich schon fast nur meiner Intuition nach. ","0","1","0","null","","","<img src = 'category2/CS5.png' width = '100%;'>","null","","","","","","","","","",""
"","html-keyboard-response","161","776135","0.0-10.0-2.5","qojb7hpk86","many_one","0","direct_first","1","la07ar09","1","27","1","1","3","1","Das Bild mit dem Mond und der Wüste ist sehr schön. Daher hatte ich mir das Zeichen dafür eingeprägt und immer positiv bewertet. Ansonsten ging ich schon fast nur meiner Intuition nach. ","0","1","0","null","","","<img src = 'targets/7.png' width = '100%;'>","null","","","","","","","","","",""
"","html-keyboard-response","162","778721","0.0-10.0-3.5","qojb7hpk86","many_one","0","direct_first","1","la07ar09","1","27","1","1","3","1","Das Bild mit dem Mond und der Wüste ist sehr schön. Daher hatte ich mir das Zeichen dafür eingeprägt und immer positiv bewertet. Ansonsten ging ich schon fast nur meiner Intuition nach. ","0","1","0","2583","","","<img src = 'targets/mask.png' width = '100%;'>","75","neg","CS","CS","2","category2/CS5.png","","targets/7.png","indirect","1","5"
"","html-keyboard-response","163","780239","0.0-10.0-0.6","qojb7hpk86","many_one","0","direct_first","1","la07ar09","1","27","1","1","3","1","Das Bild mit dem Mond und der Wüste ist sehr schön. Daher hatte ich mir das Zeichen dafür eingeprägt und immer positiv bewertet. Ansonsten ging ich schon fast nur meiner Intuition nach. ","0","1","0","null","","","<div style=""font-size:60px;"">+</div>","null","","","","","","","","","",""
"","html-keyboard-response","164","780340","0.0-10.0-1.6","qojb7hpk86","many_one","0","direct_first","1","la07ar09","1","27","1","1","3","1","Das Bild mit dem Mond und der Wüste ist sehr schön. Daher hatte ich mir das Zeichen dafür eingeprägt und immer positiv bewertet. Ansonsten ging ich schon fast nur meiner Intuition nach. ","0","1","0","null","","","<img src = 'category3/CS9.png' width = '100%;'>","null","","","","","","","","","",""
"","html-keyboard-response","165","780625","0.0-10.0-2.6","qojb7hpk86","many_one","0","direct_first","1","la07ar09","1","27","1","1","3","1","Das Bild mit dem Mond und der Wüste ist sehr schön. Daher hatte ich mir das Zeichen dafür eingeprägt und immer positiv bewertet. Ansonsten ging ich schon fast nur meiner Intuition nach. ","0","1","0","null","","","<img src = 'targets/36.png' width = '100%;'>","null","","","","","","","","","",""
"","html-keyboard-response","166","783179","0.0-10.0-3.6","qojb7hpk86","many_one","0","direct_first","1","la07ar09","1","27","1","1","3","1","Das Bild mit dem Mond und der Wüste ist sehr schön. Daher hatte ich mir das Zeichen dafür eingeprägt und immer positiv bewertet. Ansonsten ging ich schon fast nur meiner Intuition nach. ","0","1","0","2554","","","<img src = 'targets/mask.png' width = '100%;'>","75","pos","CS","CS","3","category3/CS9.png","","targets/36.png","indirect","1","6"
"","html-keyboard-response","167","784699","0.0-10.0-0.7","qojb7hpk86","many_one","0","direct_first","1","la07ar09","1","27","1","1","3","1","Das Bild mit dem Mond und der Wüste ist sehr schön. Daher hatte ich mir das Zeichen dafür eingeprägt und immer positiv bewertet. Ansonsten ging ich schon fast nur meiner Intuition nach. ","0","1","0","null","","","<div style=""font-size:60px;"">+</div>","null","","","","","","","","","",""
"","html-keyboard-response","168","784791","0.0-10.0-1.7","qojb7hpk86","many_one","0","direct_first","1","la07ar09","1","27","1","1","3","1","Das Bild mit dem Mond und der Wüste ist sehr schön. Daher hatte ich mir das Zeichen dafür eingeprägt und immer positiv bewertet. Ansonsten ging ich schon fast nur meiner Intuition nach. ","0","1","0","null","","","<img src = 'category2/CS3.png' width = '100%;'>","null","","","","","","","","","",""
"","html-keyboard-response","169","785065","0.0-10.0-2.7","qojb7hpk86","many_one","0","direct_first","1","la07ar09","1","27","1","1","3","1","Das Bild mit dem Mond und der Wüste ist sehr schön. Daher hatte ich mir das Zeichen dafür eingeprägt und immer positiv bewertet. Ansonsten ging ich schon fast nur meiner Intuition nach. ","0","1","0","null","","","<img src = 'targets/27.png' width = '100%;'>","null","","","","","","","","","",""
"","html-keyboard-response","170","787088","0.0-10.0-3.7","qojb7hpk86","many_one","0","direct_first","1","la07ar09","1","27","1","1","3","1","Das Bild mit dem Mond und der Wüste ist sehr schön. Daher hatte ich mir das Zeichen dafür eingeprägt und immer positiv bewertet. Ansonsten ging ich schon fast nur meiner Intuition nach. ","0","1","0","2023","","","<img src = 'targets/mask.png' width = '100%;'>","68","neg","GS","GSold","2","category2/CS3.png","","targets/27.png","indirect","0","7"
"","html-keyboard-response","171","788617","0.0-10.0-0.8","qojb7hpk86","many_one","0","direct_first","1","la07ar09","1","27","1","1","3","1","Das Bild mit dem Mond und der Wüste ist sehr schön. Daher hatte ich mir das Zeichen dafür eingeprägt und immer positiv bewertet. Ansonsten ging ich schon fast nur meiner Intuition nach. ","0","1","0","null","","","<div style=""font-size:60px;"">+</div>","null","","","","","","","","","",""
"","html-keyboard-response","172","788716","0.0-10.0-1.8","qojb7hpk86","many_one","0","direct_first","1","la07ar09","1","27","1","1","3","1","Das Bild mit dem Mond und der Wüste ist sehr schön. Daher hatte ich mir das Zeichen dafür eingeprägt und immer positiv bewertet. Ansonsten ging ich schon fast nur meiner Intuition nach. ","0","1","0","null","","","<img src = 'category2/CS1.png' width = '100%;'>","null","","","","","","","","","",""
"","html-keyboard-response","173","788995","0.0-10.0-2.8","qojb7hpk86","many_one","0","direct_first","1","la07ar09","1","27","1","1","3","1","Das Bild mit dem Mond und der Wüste ist sehr schön. Daher hatte ich mir das Zeichen dafür eingeprägt und immer positiv bewertet. Ansonsten ging ich schon fast nur meiner Intuition nach. ","0","1","0","null","","","<img src = 'targets/26.png' width = '100%;'>","null","","","","","","","","","",""
"","html-keyboard-response","174","793898","0.0-10.0-3.8","qojb7hpk86","many_one","0","direct_first","1","la07ar09","1","27","1","1","3","1","Das Bild mit dem Mond und der Wüste ist sehr schön. Daher hatte ich mir das Zeichen dafür eingeprägt und immer positiv bewertet. Ansonsten ging ich schon fast nur meiner Intuition nach. ","0","1","0","4901","","","<img src = 'targets/mask.png' width = '100%;'>","68","neg","CS","CS","2","category2/CS1.png","","targets/26.png","indirect","0","8"
"","html-keyboard-response","175","795416","0.0-10.0-0.9","qojb7hpk86","many_one","0","direct_first","1","la07ar09","1","27","1","1","3","1","Das Bild mit dem Mond und der Wüste ist sehr schön. Daher hatte ich mir das Zeichen dafür eingeprägt und immer positiv bewertet. Ansonsten ging ich schon fast nur meiner Intuition nach. ","0","1","0","null","","","<div style=""font-size:60px;"">+</div>","null","","","","","","","","","",""
"","html-keyboard-response","176","795518","0.0-10.0-1.9","qojb7hpk86","many_one","0","direct_first","1","la07ar09","1","27","1","1","3","1","Das Bild mit dem Mond und der Wüste ist sehr schön. Daher hatte ich mir das Zeichen dafür eingeprägt und immer positiv bewertet. Ansonsten ging ich schon fast nur meiner Intuition nach. ","0","1","0","null","","","<img src = 'category1/CS9.png' width = '100%;'>","null","","","","","","","","","",""
"","html-keyboard-response","177","795803","0.0-10.0-2.9","qojb7hpk86","many_one","0","direct_first","1","la07ar09","1","27","1","1","3","1","Das Bild mit dem Mond und der Wüste ist sehr schön. Daher hatte ich mir das Zeichen dafür eingeprägt und immer positiv bewertet. Ansonsten ging ich schon fast nur meiner Intuition nach. ","0","1","0","null","","","<img src = 'targets/22.png' width = '100%;'>","null","","","","","","","","","",""
"","html-keyboard-response","178","798479","0.0-10.0-3.9","qojb7hpk86","many_one","0","direct_first","1","la07ar09","1","27","1","1","3","1","Das Bild mit dem Mond und der Wüste ist sehr schön. Daher hatte ich mir das Zeichen dafür eingeprägt und immer positiv bewertet. Ansonsten ging ich schon fast nur meiner Intuition nach. ","0","1","0","2675","","","<img src = 'targets/mask.png' width = '100%;'>","68","neg","CS","CS","1","category1/CS9.png","","targets/22.png","indirect","0","9"
"","html-keyboard-response","179","799998","0.0-10.0-0.10","qojb7hpk86","many_one","0","direct_first","1","la07ar09","1","27","1","1","3","1","Das Bild mit dem Mond und der Wüste ist sehr schön. Daher hatte ich mir das Zeichen dafür eingeprägt und immer positiv bewertet. Ansonsten ging ich schon fast nur meiner Intuition nach. ","0","1","0","null","","","<div style=""font-size:60px;"">+</div>","null","","","","","","","","","",""
"","html-keyboard-response","180","800099","0.0-10.0-1.10","qojb7hpk86","many_one","0","direct_first","1","la07ar09","1","27","1","1","3","1","Das Bild mit dem Mond und der Wüste ist sehr schön. Daher hatte ich mir das Zeichen dafür eingeprägt und immer positiv bewertet. Ansonsten ging ich schon fast nur meiner Intuition nach. ","0","1","0","null","","","<img src = 'category4/CS10.png' width = '100%;'>","null","","","","","","","","","",""
"","html-keyboard-response","181","800374","0.0-10.0-2.10","qojb7hpk86","many_one","0","direct_first","1","la07ar09","1","27","1","1","3","1","Das Bild mit dem Mond und der Wüste ist sehr schön. Daher hatte ich mir das Zeichen dafür eingeprägt und immer positiv bewertet. Ansonsten ging ich schon fast nur meiner Intuition nach. ","0","1","0","null","","","<img src = 'targets/40.png' width = '100%;'>","null","","","","","","","","","",""
"","html-keyboard-response","182","802591","0.0-10.0-3.10","qojb7hpk86","many_one","0","direct_first","1","la07ar09","1","27","1","1","3","1","Das Bild mit dem Mond und der Wüste ist sehr schön. Daher hatte ich mir das Zeichen dafür eingeprägt und immer positiv bewertet. Ansonsten ging ich schon fast nur meiner Intuition nach. ","0","1","0","2216","","","<img src = 'targets/mask.png' width = '100%;'>","75","pos","CS","CS","4","category4/CS10.png","","targets/40.png","indirect","1","10"
"","html-keyboard-response","183","804113","0.0-10.0-0.11","qojb7hpk86","many_one","0","direct_first","1","la07ar09","1","27","1","1","3","1","Das Bild mit dem Mond und der Wüste ist sehr schön. Daher hatte ich mir das Zeichen dafür eingeprägt und immer positiv bewertet. Ansonsten ging ich schon fast nur meiner Intuition nach. ","0","1","0","null","","","<div style=""font-size:60px;"">+</div>","null","","","","","","","","","",""
"","html-keyboard-response","184","804213","0.0-10.0-1.11","qojb7hpk86","many_one","0","direct_first","1","la07ar09","1","27","1","1","3","1","Das Bild mit dem Mond und der Wüste ist sehr schön. Daher hatte ich mir das Zeichen dafür eingeprägt und immer positiv bewertet. Ansonsten ging ich schon fast nur meiner Intuition nach. ","0","1","0","null","","","<img src = 'category1/CS6.png' width = '100%;'>","null","","","","","","","","","",""
"","html-keyboard-response","185","804495","0.0-10.0-2.11","qojb7hpk86","many_one","0","direct_first","1","la07ar09","1","27","1","1","3","1","Das Bild mit dem Mond und der Wüste ist sehr schön. Daher hatte ich mir das Zeichen dafür eingeprägt und immer positiv bewertet. Ansonsten ging ich schon fast nur meiner Intuition nach. ","0","1","0","null","","","<img src = 'targets/21.png' width = '100%;'>","null","","","","","","","","","",""
"","html-keyboard-response","186","806086","0.0-10.0-3.11","qojb7hpk86","many_one","0","direct_first","1","la07ar09","1","27","1","1","3","1","Das Bild mit dem Mond und der Wüste ist sehr schön. Daher hatte ich mir das Zeichen dafür eingeprägt und immer positiv bewertet. Ansonsten ging ich schon fast nur meiner Intuition nach. ","0","1","0","1591","","","<img src = 'targets/mask.png' width = '100%;'>","75","neg","CS","CS","1","category1/CS6.png","","targets/21.png","indirect","1","11"
"","html-keyboard-response","187","807617","0.0-10.0-0.12","qojb7hpk86","many_one","0","direct_first","1","la07ar09","1","27","1","1","3","1","Das Bild mit dem Mond und der Wüste ist sehr schön. Daher hatte ich mir das Zeichen dafür eingeprägt und immer positiv bewertet. Ansonsten ging ich schon fast nur meiner Intuition nach. ","0","1","0","null","","","<div style=""font-size:60px;"">+</div>","null","","","","","","","","","",""
"","html-keyboard-response","188","807718","0.0-10.0-1.12","qojb7hpk86","many_one","0","direct_first","1","la07ar09","1","27","1","1","3","1","Das Bild mit dem Mond und der Wüste ist sehr schön. Daher hatte ich mir das Zeichen dafür eingeprägt und immer positiv bewertet. Ansonsten ging ich schon fast nur meiner Intuition nach. ","0","1","0","null","","","<img src = 'category3/CS1.png' width = '100%;'>","null","","","","","","","","","",""
"","html-keyboard-response","189","808003","0.0-10.0-2.12","qojb7hpk86","many_one","0","direct_first","1","la07ar09","1","27","1","1","3","1","Das Bild mit dem Mond und der Wüste ist sehr schön. Daher hatte ich mir das Zeichen dafür eingeprägt und immer positiv bewertet. Ansonsten ging ich schon fast nur meiner Intuition nach. ","0","1","0","null","","","<img src = 'targets/18.png' width = '100%;'>","null","","","","","","","","","",""
"","html-keyboard-response","190","809321","0.0-10.0-3.12","qojb7hpk86","many_one","0","direct_first","1","la07ar09","1","27","1","1","3","1","Das Bild mit dem Mond und der Wüste ist sehr schön. Daher hatte ich mir das Zeichen dafür eingeprägt und immer positiv bewertet. Ansonsten ging ich schon fast nur meiner Intuition nach. ","0","1","0","1316","","","<img src = 'targets/mask.png' width = '100%;'>","75","pos","CS","CS","3","category3/CS1.png","","targets/18.png","indirect","1","12"
"","html-keyboard-response","191","810858","0.0-10.0-0.13","qojb7hpk86","many_one","0","direct_first","1","la07ar09","1","27","1","1","3","1","Das Bild mit dem Mond und der Wüste ist sehr schön. Daher hatte ich mir das Zeichen dafür eingeprägt und immer positiv bewertet. Ansonsten ging ich schon fast nur meiner Intuition nach. ","0","1","0","null","","","<div style=""font-size:60px;"">+</div>","null","","","","","","","","","",""
"","html-keyboard-response","192","810959","0.0-10.0-1.13","qojb7hpk86","many_one","0","direct_first","1","la07ar09","1","27","1","1","3","1","Das Bild mit dem Mond und der Wüste ist sehr schön. Daher hatte ich mir das Zeichen dafür eingeprägt und immer positiv bewertet. Ansonsten ging ich schon fast nur meiner Intuition nach. ","0","1","0","null","","","<img src = 'category3/CS8.png' width = '100%;'>","null","","","","","","","","","",""
"","html-keyboard-response","193","811243","0.0-10.0-2.13","qojb7hpk86","many_one","0","direct_first","1","la07ar09","1","27","1","1","3","1","Das Bild mit dem Mond und der Wüste ist sehr schön. Daher hatte ich mir das Zeichen dafür eingeprägt und immer positiv bewertet. Ansonsten ging ich schon fast nur meiner Intuition nach. ","0","1","0","null","","","<img src = 'targets/24.png' width = '100%;'>","null","","","","","","","","","",""
"","html-keyboard-response","194","812221","0.0-10.0-3.13","qojb7hpk86","many_one","0","direct_first","1","la07ar09","1","27","1","1","3","1","Das Bild mit dem Mond und der Wüste ist sehr schön. Daher hatte ich mir das Zeichen dafür eingeprägt und immer positiv bewertet. Ansonsten ging ich schon fast nur meiner Intuition nach. ","0","1","0","978","","","<img src = 'targets/mask.png' width = '100%;'>","75","pos","CS","CS","3","category3/CS8.png","","targets/24.png","indirect","1","13"
"","html-keyboard-response","195","813752","0.0-10.0-0.14","qojb7hpk86","many_one","0","direct_first","1","la07ar09","1","27","1","1","3","1","Das Bild mit dem Mond und der Wüste ist sehr schön. Daher hatte ich mir das Zeichen dafür eingeprägt und immer positiv bewertet. Ansonsten ging ich schon fast nur meiner Intuition nach. ","0","1","0","null","","","<div style=""font-size:60px;"">+</div>","null","","","","","","","","","",""
