"success","trial_type","trial_index","time_elapsed","internal_node_id","subject","condition","condition_code","measure","measure_code","codeword","gender","age","education","chinese","fach","handedness","comment","hinschauen","ablenkung","gewissenhaft","rt","url","responses","stimulus","key_press","val","type","type_specific","category","cs_selected","target","indirect","task","nr_pres","response"
"true","fullscreen","0","4797","0.0-0.0","zduy660dv5","one_one","1","indirect_first","0","na07ut02","0","27","1","1","3","2","Die Teilnahme war sehr interessant. Ein paar Mal kamen mir die Symbole bekannt vor, doch viele waren bei den letzteren Aufgaben neu. Danke für die Studie!","0","1","0","","","","","","","","","","","","","","",""
"","external-html","1","14358","0.0-1.0","zduy660dv5","one_one","1","indirect_first","0","na07ut02","0","27","1","1","3","2","Die Teilnahme war sehr interessant. Ein paar Mal kamen mir die Symbole bekannt vor, doch viele waren bei den letzteren Aufgaben neu. Danke für die Studie!","0","1","0","9038","text/information.html","","","","","","","","","","","","",""
"","external-html","2","30810","0.0-2.0","zduy660dv5","one_one","1","indirect_first","0","na07ut02","0","27","1","1","3","2","Die Teilnahme war sehr interessant. Ein paar Mal kamen mir die Symbole bekannt vor, doch viele waren bei den letzteren Aufgaben neu. Danke für die Studie!","0","1","0","16138","text/consent.html","","","","","","","","","","","","",""
"","survey-html-form","3","475213","0.0-3.0","zduy660dv5","one_one","1","indirect_first","0","na07ut02","0","27","1","1","3","2","Die Teilnahme war sehr interessant. Ein paar Mal kamen mir die Symbole bekannt vor, doch viele waren bei den letzteren Aufgaben neu. Danke für die Studie!","0","1","0","444395","","{""codeword_enter"":""na07ut02""}","","","","","","","","","","","",""
"","survey-html-form","4","508628","0.0-4.0","zduy660dv5","one_one","1","indirect_first","0","na07ut02","0","27","1","1","3","2","Die Teilnahme war sehr interessant. Ein paar Mal kamen mir die Symbole bekannt vor, doch viele waren bei den letzteren Aufgaben neu. Danke für die Studie!","0","1","0","33408","","{""age"":""27"",""education"":""1"",""subject"":""3"",""gender"":""0"",""handedness"":""2"",""chinese"":""1""}","","","","","","","","","","","",""
"","survey-html-form","5","511505","0.0-5.0","zduy660dv5","one_one","1","indirect_first","0","na07ut02","0","27","1","1","3","2","Die Teilnahme war sehr interessant. Ein paar Mal kamen mir die Symbole bekannt vor, doch viele waren bei den letzteren Aufgaben neu. Danke für die Studie!","0","1","0","2875","","{}","","","","","","","","","","","",""
"","html-keyboard-response","6","515511","0.0-6.0-0.0-0.0","zduy660dv5","one_one","1","indirect_first","0","na07ut02","0","27","1","1","3","2","Die Teilnahme war sehr interessant. Ein paar Mal kamen mir die Symbole bekannt vor, doch viele waren bei den letzteren Aufgaben neu. Danke für die Studie!","0","1","0","null","","","<div class = 'row'><div class = 'column'><img src = 'category3/CS9.png' width = '70%;'></div><div class = 'column'><img src = 'usneg/9330.bmp' width = '100%;'></div></div>","null","neg","CS","CS","3","category3/CS9.png","","","","",""
"","html-keyboard-response","7","518014","0.0-6.0-0.0-0.1","zduy660dv5","one_one","1","indirect_first","0","na07ut02","0","27","1","1","3","2","Die Teilnahme war sehr interessant. Ein paar Mal kamen mir die Symbole bekannt vor, doch viele waren bei den letzteren Aufgaben neu. Danke für die Studie!","0","1","0","null","","","<div class = 'row'><div class = 'column'><img src = 'uspos/5760.bmp' width = '100%;'></div><div class = 'column'><img src = 'category2/CS1.png' width = '70%;'></div></div>","null","pos","CS","CS","2","category2/CS1.png","","","","",""
"","html-keyboard-response","8","520518","0.0-6.0-0.0-0.2","zduy660dv5","one_one","1","indirect_first","0","na07ut02","0","27","1","1","3","2","Die Teilnahme war sehr interessant. Ein paar Mal kamen mir die Symbole bekannt vor, doch viele waren bei den letzteren Aufgaben neu. Danke für die Studie!","0","1","0","null","","","<div class = 'row'><div class = 'column'><img src = 'category4/CS6.png' width = '70%;'></div><div class = 'column'><img src = 'usneg/9435.bmp' width = '100%;'></div></div>","null","neg","CS","CS","4","category4/CS6.png","","","","",""
"","html-keyboard-response","9","523020","0.0-6.0-0.0-0.3","zduy660dv5","one_one","1","indirect_first","0","na07ut02","0","27","1","1","3","2","Die Teilnahme war sehr interessant. Ein paar Mal kamen mir die Symbole bekannt vor, doch viele waren bei den letzteren Aufgaben neu. Danke für die Studie!","0","1","0","null","","","<div class = 'row'><div class = 'column'><img src = 'category3/CS9.png' width = '70%;'></div><div class = 'column'><img src = 'usneg/9330.bmp' width = '100%;'></div></div>","null","neg","CS","CS","3","category3/CS9.png","","","","",""
"","html-keyboard-response","10","525522","0.0-6.0-0.0-0.4","zduy660dv5","one_one","1","indirect_first","0","na07ut02","0","27","1","1","3","2","Die Teilnahme war sehr interessant. Ein paar Mal kamen mir die Symbole bekannt vor, doch viele waren bei den letzteren Aufgaben neu. Danke für die Studie!","0","1","0","null","","","<div class = 'row'><div class = 'column'><img src = 'uspos/5629.bmp' width = '100%;'></div><div class = 'column'><img src = 'category1/CS10.png' width = '70%;'></div></div>","null","pos","CS","CS","1","category1/CS10.png","","","","",""
"","html-keyboard-response","11","528054","0.0-6.0-0.0-0.5","zduy660dv5","one_one","1","indirect_first","0","na07ut02","0","27","1","1","3","2","Die Teilnahme war sehr interessant. Ein paar Mal kamen mir die Symbole bekannt vor, doch viele waren bei den letzteren Aufgaben neu. Danke für die Studie!","0","1","0","null","","","<div class = 'row'><div class = 'column'><img src = 'usneg/9435.bmp' width = '100%;'></div><div class = 'column'><img src = 'category4/CS6.png' width = '70%;'></div></div>","null","neg","CS","CS","4","category4/CS6.png","","","","",""
"","html-keyboard-response","12","530559","0.0-6.0-0.0-0.6","zduy660dv5","one_one","1","indirect_first","0","na07ut02","0","27","1","1","3","2","Die Teilnahme war sehr interessant. Ein paar Mal kamen mir die Symbole bekannt vor, doch viele waren bei den letzteren Aufgaben neu. Danke für die Studie!","0","1","0","null","","","<div class = 'row'><div class = 'column'><img src = 'uspos/5629.bmp' width = '100%;'></div><div class = 'column'><img src = 'category1/CS10.png' width = '70%;'></div></div>","null","pos","CS","CS","1","category1/CS10.png","","","","",""
"","html-keyboard-response","13","533064","0.0-6.0-0.0-0.7","zduy660dv5","one_one","1","indirect_first","0","na07ut02","0","27","1","1","3","2","Die Teilnahme war sehr interessant. Ein paar Mal kamen mir die Symbole bekannt vor, doch viele waren bei den letzteren Aufgaben neu. Danke für die Studie!","0","1","0","null","","","<div class = 'row'><div class = 'column'><img src = 'category3/CS9.png' width = '70%;'></div><div class = 'column'><img src = 'usneg/9330.bmp' width = '100%;'></div></div>","null","neg","CS","CS","3","category3/CS9.png","","","","",""
"","html-keyboard-response","14","535566","0.0-6.0-0.0-0.8","zduy660dv5","one_one","1","indirect_first","0","na07ut02","0","27","1","1","3","2","Die Teilnahme war sehr interessant. Ein paar Mal kamen mir die Symbole bekannt vor, doch viele waren bei den letzteren Aufgaben neu. Danke für die Studie!","0","1","0","null","","","<div class = 'row'><div class = 'column'><img src = 'category2/CS1.png' width = '70%;'></div><div class = 'column'><img src = 'uspos/5760.bmp' width = '100%;'></div></div>","null","pos","CS","CS","2","category2/CS1.png","","","","",""
"","html-keyboard-response","15","538069","0.0-6.0-0.0-0.9","zduy660dv5","one_one","1","indirect_first","0","na07ut02","0","27","1","1","3","2","Die Teilnahme war sehr interessant. Ein paar Mal kamen mir die Symbole bekannt vor, doch viele waren bei den letzteren Aufgaben neu. Danke für die Studie!","0","1","0","null","","","<div class = 'row'><div class = 'column'><img src = 'category1/CS10.png' width = '70%;'></div><div class = 'column'><img src = 'uspos/5629.bmp' width = '100%;'></div></div>","null","pos","CS","CS","1","category1/CS10.png","","","","",""
"","html-keyboard-response","16","540571","0.0-6.0-0.0-0.10","zduy660dv5","one_one","1","indirect_first","0","na07ut02","0","27","1","1","3","2","Die Teilnahme war sehr interessant. Ein paar Mal kamen mir die Symbole bekannt vor, doch viele waren bei den letzteren Aufgaben neu. Danke für die Studie!","0","1","0","null","","","<div class = 'row'><div class = 'column'><img src = 'category2/CS1.png' width = '70%;'></div><div class = 'column'><img src = 'uspos/5760.bmp' width = '100%;'></div></div>","null","pos","CS","CS","2","category2/CS1.png","","","","",""
"","html-keyboard-response","17","543074","0.0-6.0-0.0-0.11","zduy660dv5","one_one","1","indirect_first","0","na07ut02","0","27","1","1","3","2","Die Teilnahme war sehr interessant. Ein paar Mal kamen mir die Symbole bekannt vor, doch viele waren bei den letzteren Aufgaben neu. Danke für die Studie!","0","1","0","null","","","<div class = 'row'><div class = 'column'><img src = 'category4/CS6.png' width = '70%;'></div><div class = 'column'><img src = 'usneg/9435.bmp' width = '100%;'></div></div>","null","neg","CS","CS","4","category4/CS6.png","","","","",""
"","html-keyboard-response","18","545577","0.0-6.0-0.0-0.12","zduy660dv5","one_one","1","indirect_first","0","na07ut02","0","27","1","1","3","2","Die Teilnahme war sehr interessant. Ein paar Mal kamen mir die Symbole bekannt vor, doch viele waren bei den letzteren Aufgaben neu. Danke für die Studie!","0","1","0","null","","","<div class = 'row'><div class = 'column'><img src = 'category2/CS1.png' width = '70%;'></div><div class = 'column'><img src = 'uspos/5760.bmp' width = '100%;'></div></div>","null","pos","CS","CS","2","category2/CS1.png","","","","",""
"","html-keyboard-response","19","548080","0.0-6.0-0.0-0.13","zduy660dv5","one_one","1","indirect_first","0","na07ut02","0","27","1","1","3","2","Die Teilnahme war sehr interessant. Ein paar Mal kamen mir die Symbole bekannt vor, doch viele waren bei den letzteren Aufgaben neu. Danke für die Studie!","0","1","0","null","","","<div class = 'row'><div class = 'column'><img src = 'category3/CS9.png' width = '70%;'></div><div class = 'column'><img src = 'usneg/9330.bmp' width = '100%;'></div></div>","null","neg","CS","CS","3","category3/CS9.png","","","","",""
"","html-keyboard-response","20","550583","0.0-6.0-0.0-0.14","zduy660dv5","one_one","1","indirect_first","0","na07ut02","0","27","1","1","3","2","Die Teilnahme war sehr interessant. Ein paar Mal kamen mir die Symbole bekannt vor, doch viele waren bei den letzteren Aufgaben neu. Danke für die Studie!","0","1","0","null","","","<div class = 'row'><div class = 'column'><img src = 'uspos/5629.bmp' width = '100%;'></div><div class = 'column'><img src = 'category1/CS10.png' width = '70%;'></div></div>","null","pos","CS","CS","1","category1/CS10.png","","","","",""
"","html-keyboard-response","21","553087","0.0-6.0-0.0-0.15","zduy660dv5","one_one","1","indirect_first","0","na07ut02","0","27","1","1","3","2","Die Teilnahme war sehr interessant. Ein paar Mal kamen mir die Symbole bekannt vor, doch viele waren bei den letzteren Aufgaben neu. Danke für die Studie!","0","1","0","null","","","<div class = 'row'><div class = 'column'><img src = 'category3/CS9.png' width = '70%;'></div><div class = 'column'><img src = 'usneg/9330.bmp' width = '100%;'></div></div>","null","neg","CS","CS","3","category3/CS9.png","","","","",""
"","html-keyboard-response","22","555591","0.0-6.0-0.0-0.16","zduy660dv5","one_one","1","indirect_first","0","na07ut02","0","27","1","1","3","2","Die Teilnahme war sehr interessant. Ein paar Mal kamen mir die Symbole bekannt vor, doch viele waren bei den letzteren Aufgaben neu. Danke für die Studie!","0","1","0","null","","","<div class = 'row'><div class = 'column'><img src = 'usneg/9435.bmp' width = '100%;'></div><div class = 'column'><img src = 'category4/CS6.png' width = '70%;'></div></div>","null","neg","CS","CS","4","category4/CS6.png","","","","",""
"","html-keyboard-response","23","558094","0.0-6.0-0.0-0.17","zduy660dv5","one_one","1","indirect_first","0","na07ut02","0","27","1","1","3","2","Die Teilnahme war sehr interessant. Ein paar Mal kamen mir die Symbole bekannt vor, doch viele waren bei den letzteren Aufgaben neu. Danke für die Studie!","0","1","0","null","","","<div class = 'row'><div class = 'column'><img src = 'uspos/5629.bmp' width = '100%;'></div><div class = 'column'><img src = 'category1/CS10.png' width = '70%;'></div></div>","null","pos","CS","CS","1","category1/CS10.png","","","","",""
"","html-keyboard-response","24","560596","0.0-6.0-0.0-0.18","zduy660dv5","one_one","1","indirect_first","0","na07ut02","0","27","1","1","3","2","Die Teilnahme war sehr interessant. Ein paar Mal kamen mir die Symbole bekannt vor, doch viele waren bei den letzteren Aufgaben neu. Danke für die Studie!","0","1","0","null","","","<div class = 'row'><div class = 'column'><img src = 'usneg/9435.bmp' width = '100%;'></div><div class = 'column'><img src = 'category4/CS6.png' width = '70%;'></div></div>","null","neg","CS","CS","4","category4/CS6.png","","","","",""
"","html-keyboard-response","25","563097","0.0-6.0-0.0-0.19","zduy660dv5","one_one","1","indirect_first","0","na07ut02","0","27","1","1","3","2","Die Teilnahme war sehr interessant. Ein paar Mal kamen mir die Symbole bekannt vor, doch viele waren bei den letzteren Aufgaben neu. Danke für die Studie!","0","1","0","null","","","<div class = 'row'><div class = 'column'><img src = 'uspos/5760.bmp' width = '100%;'></div><div class = 'column'><img src = 'category2/CS1.png' width = '70%;'></div></div>","null","pos","CS","CS","2","category2/CS1.png","","","","",""
"","survey-html-form","26","566571","0.0-6.0-1.0","zduy660dv5","one_one","1","indirect_first","0","na07ut02","0","27","1","1","3","2","Die Teilnahme war sehr interessant. Ein paar Mal kamen mir die Symbole bekannt vor, doch viele waren bei den letzteren Aufgaben neu. Danke für die Studie!","0","1","0","2971","","{}","","","","","","","","","","","",""
"","html-keyboard-response","27","570573","0.0-6.0-2.0-0.0","zduy660dv5","one_one","1","indirect_first","0","na07ut02","0","27","1","1","3","2","Die Teilnahme war sehr interessant. Ein paar Mal kamen mir die Symbole bekannt vor, doch viele waren bei den letzteren Aufgaben neu. Danke für die Studie!","0","1","0","null","","","<div class = 'row'><div class = 'column'><img src = 'uspos/5629.bmp' width = '100%;'></div><div class = 'column'><img src = 'category1/CS10.png' width = '70%;'></div></div>","null","pos","CS","CS","1","category1/CS10.png","","","","",""
"","html-keyboard-response","28","573076","0.0-6.0-2.0-0.1","zduy660dv5","one_one","1","indirect_first","0","na07ut02","0","27","1","1","3","2","Die Teilnahme war sehr interessant. Ein paar Mal kamen mir die Symbole bekannt vor, doch viele waren bei den letzteren Aufgaben neu. Danke für die Studie!","0","1","0","null","","","<div class = 'row'><div class = 'column'><img src = 'usneg/9435.bmp' width = '100%;'></div><div class = 'column'><img src = 'category4/CS6.png' width = '70%;'></div></div>","null","neg","CS","CS","4","category4/CS6.png","","","","",""
"","html-keyboard-response","29","575579","0.0-6.0-2.0-0.2","zduy660dv5","one_one","1","indirect_first","0","na07ut02","0","27","1","1","3","2","Die Teilnahme war sehr interessant. Ein paar Mal kamen mir die Symbole bekannt vor, doch viele waren bei den letzteren Aufgaben neu. Danke für die Studie!","0","1","0","null","","","<div class = 'row'><div class = 'column'><img src = 'category2/CS1.png' width = '70%;'></div><div class = 'column'><img src = 'uspos/5760.bmp' width = '100%;'></div></div>","null","pos","CS","CS","2","category2/CS1.png","","","","",""
"","html-keyboard-response","30","578108","0.0-6.0-2.0-0.3","zduy660dv5","one_one","1","indirect_first","0","na07ut02","0","27","1","1","3","2","Die Teilnahme war sehr interessant. Ein paar Mal kamen mir die Symbole bekannt vor, doch viele waren bei den letzteren Aufgaben neu. Danke für die Studie!","0","1","0","null","","","<div class = 'row'><div class = 'column'><img src = 'uspos/5629.bmp' width = '100%;'></div><div class = 'column'><img src = 'category1/CS10.png' width = '70%;'></div></div>","null","pos","CS","CS","1","category1/CS10.png","","","","",""
"","html-keyboard-response","31","580617","0.0-6.0-2.0-0.4","zduy660dv5","one_one","1","indirect_first","0","na07ut02","0","27","1","1","3","2","Die Teilnahme war sehr interessant. Ein paar Mal kamen mir die Symbole bekannt vor, doch viele waren bei den letzteren Aufgaben neu. Danke für die Studie!","0","1","0","null","","","<div class = 'row'><div class = 'column'><img src = 'usneg/9330.bmp' width = '100%;'></div><div class = 'column'><img src = 'category3/CS9.png' width = '70%;'></div></div>","null","neg","CS","CS","3","category3/CS9.png","","","","",""
"","html-keyboard-response","32","583138","0.0-6.0-2.0-0.5","zduy660dv5","one_one","1","indirect_first","0","na07ut02","0","27","1","1","3","2","Die Teilnahme war sehr interessant. Ein paar Mal kamen mir die Symbole bekannt vor, doch viele waren bei den letzteren Aufgaben neu. Danke für die Studie!","0","1","0","null","","","<div class = 'row'><div class = 'column'><img src = 'usneg/9435.bmp' width = '100%;'></div><div class = 'column'><img src = 'category4/CS6.png' width = '70%;'></div></div>","null","neg","CS","CS","4","category4/CS6.png","","","","",""
"","html-keyboard-response","33","585659","0.0-6.0-2.0-0.6","zduy660dv5","one_one","1","indirect_first","0","na07ut02","0","27","1","1","3","2","Die Teilnahme war sehr interessant. Ein paar Mal kamen mir die Symbole bekannt vor, doch viele waren bei den letzteren Aufgaben neu. Danke für die Studie!","0","1","0","null","","","<div class = 'row'><div class = 'column'><img src = 'category3/CS9.png' width = '70%;'></div><div class = 'column'><img src = 'usneg/9330.bmp' width = '100%;'></div></div>","null","neg","CS","CS","3","category3/CS9.png","","","","",""
"","html-keyboard-response","34","588162","0.0-6.0-2.0-0.7","zduy660dv5","one_one","1","indirect_first","0","na07ut02","0","27","1","1","3","2","Die Teilnahme war sehr interessant. Ein paar Mal kamen mir die Symbole bekannt vor, doch viele waren bei den letzteren Aufgaben neu. Danke für die Studie!","0","1","0","null","","","<div class = 'row'><div class = 'column'><img src = 'category2/CS1.png' width = '70%;'></div><div class = 'column'><img src = 'uspos/5760.bmp' width = '100%;'></div></div>","null","pos","CS","CS","2","category2/CS1.png","","","","",""
"","html-keyboard-response","35","590666","0.0-6.0-2.0-0.8","zduy660dv5","one_one","1","indirect_first","0","na07ut02","0","27","1","1","3","2","Die Teilnahme war sehr interessant. Ein paar Mal kamen mir die Symbole bekannt vor, doch viele waren bei den letzteren Aufgaben neu. Danke für die Studie!","0","1","0","null","","","<div class = 'row'><div class = 'column'><img src = 'category1/CS10.png' width = '70%;'></div><div class = 'column'><img src = 'uspos/5629.bmp' width = '100%;'></div></div>","null","pos","CS","CS","1","category1/CS10.png","","","","",""
"","html-keyboard-response","36","593169","0.0-6.0-2.0-0.9","zduy660dv5","one_one","1","indirect_first","0","na07ut02","0","27","1","1","3","2","Die Teilnahme war sehr interessant. Ein paar Mal kamen mir die Symbole bekannt vor, doch viele waren bei den letzteren Aufgaben neu. Danke für die Studie!","0","1","0","null","","","<div class = 'row'><div class = 'column'><img src = 'usneg/9330.bmp' width = '100%;'></div><div class = 'column'><img src = 'category3/CS9.png' width = '70%;'></div></div>","null","neg","CS","CS","3","category3/CS9.png","","","","",""
"","html-keyboard-response","37","595674","0.0-6.0-2.0-0.10","zduy660dv5","one_one","1","indirect_first","0","na07ut02","0","27","1","1","3","2","Die Teilnahme war sehr interessant. Ein paar Mal kamen mir die Symbole bekannt vor, doch viele waren bei den letzteren Aufgaben neu. Danke für die Studie!","0","1","0","null","","","<div class = 'row'><div class = 'column'><img src = 'uspos/5629.bmp' width = '100%;'></div><div class = 'column'><img src = 'category1/CS10.png' width = '70%;'></div></div>","null","pos","CS","CS","1","category1/CS10.png","","","","",""
"","html-keyboard-response","38","598177","0.0-6.0-2.0-0.11","zduy660dv5","one_one","1","indirect_first","0","na07ut02","0","27","1","1","3","2","Die Teilnahme war sehr interessant. Ein paar Mal kamen mir die Symbole bekannt vor, doch viele waren bei den letzteren Aufgaben neu. Danke für die Studie!","0","1","0","null","","","<div class = 'row'><div class = 'column'><img src = 'uspos/5760.bmp' width = '100%;'></div><div class = 'column'><img src = 'category2/CS1.png' width = '70%;'></div></div>","null","pos","CS","CS","2","category2/CS1.png","","","","",""
"","html-keyboard-response","39","600679","0.0-6.0-2.0-0.12","zduy660dv5","one_one","1","indirect_first","0","na07ut02","0","27","1","1","3","2","Die Teilnahme war sehr interessant. Ein paar Mal kamen mir die Symbole bekannt vor, doch viele waren bei den letzteren Aufgaben neu. Danke für die Studie!","0","1","0","null","","","<div class = 'row'><div class = 'column'><img src = 'category4/CS6.png' width = '70%;'></div><div class = 'column'><img src = 'usneg/9435.bmp' width = '100%;'></div></div>","null","neg","CS","CS","4","category4/CS6.png","","","","",""
"","html-keyboard-response","40","603197","0.0-6.0-2.0-0.13","zduy660dv5","one_one","1","indirect_first","0","na07ut02","0","27","1","1","3","2","Die Teilnahme war sehr interessant. Ein paar Mal kamen mir die Symbole bekannt vor, doch viele waren bei den letzteren Aufgaben neu. Danke für die Studie!","0","1","0","null","","","<div class = 'row'><div class = 'column'><img src = 'category3/CS9.png' width = '70%;'></div><div class = 'column'><img src = 'usneg/9330.bmp' width = '100%;'></div></div>","null","neg","CS","CS","3","category3/CS9.png","","","","",""
"","html-keyboard-response","41","605746","0.0-6.0-2.0-0.14","zduy660dv5","one_one","1","indirect_first","0","na07ut02","0","27","1","1","3","2","Die Teilnahme war sehr interessant. Ein paar Mal kamen mir die Symbole bekannt vor, doch viele waren bei den letzteren Aufgaben neu. Danke für die Studie!","0","1","0","null","","","<div class = 'row'><div class = 'column'><img src = 'uspos/5760.bmp' width = '100%;'></div><div class = 'column'><img src = 'category2/CS1.png' width = '70%;'></div></div>","null","pos","CS","CS","2","category2/CS1.png","","","","",""
"","html-keyboard-response","42","608277","0.0-6.0-2.0-0.15","zduy660dv5","one_one","1","indirect_first","0","na07ut02","0","27","1","1","3","2","Die Teilnahme war sehr interessant. Ein paar Mal kamen mir die Symbole bekannt vor, doch viele waren bei den letzteren Aufgaben neu. Danke für die Studie!","0","1","0","null","","","<div class = 'row'><div class = 'column'><img src = 'usneg/9435.bmp' width = '100%;'></div><div class = 'column'><img src = 'category4/CS6.png' width = '70%;'></div></div>","null","neg","CS","CS","4","category4/CS6.png","","","","",""
"","html-keyboard-response","43","610782","0.0-6.0-2.0-0.16","zduy660dv5","one_one","1","indirect_first","0","na07ut02","0","27","1","1","3","2","Die Teilnahme war sehr interessant. Ein paar Mal kamen mir die Symbole bekannt vor, doch viele waren bei den letzteren Aufgaben neu. Danke für die Studie!","0","1","0","null","","","<div class = 'row'><div class = 'column'><img src = 'category3/CS9.png' width = '70%;'></div><div class = 'column'><img src = 'usneg/9330.bmp' width = '100%;'></div></div>","null","neg","CS","CS","3","category3/CS9.png","","","","",""
"","html-keyboard-response","44","613284","0.0-6.0-2.0-0.17","zduy660dv5","one_one","1","indirect_first","0","na07ut02","0","27","1","1","3","2","Die Teilnahme war sehr interessant. Ein paar Mal kamen mir die Symbole bekannt vor, doch viele waren bei den letzteren Aufgaben neu. Danke für die Studie!","0","1","0","null","","","<div class = 'row'><div class = 'column'><img src = 'category4/CS6.png' width = '70%;'></div><div class = 'column'><img src = 'usneg/9435.bmp' width = '100%;'></div></div>","null","neg","CS","CS","4","category4/CS6.png","","","","",""
"","html-keyboard-response","45","615787","0.0-6.0-2.0-0.18","zduy660dv5","one_one","1","indirect_first","0","na07ut02","0","27","1","1","3","2","Die Teilnahme war sehr interessant. Ein paar Mal kamen mir die Symbole bekannt vor, doch viele waren bei den letzteren Aufgaben neu. Danke für die Studie!","0","1","0","null","","","<div class = 'row'><div class = 'column'><img src = 'category1/CS10.png' width = '70%;'></div><div class = 'column'><img src = 'uspos/5629.bmp' width = '100%;'></div></div>","null","pos","CS","CS","1","category1/CS10.png","","","","",""
"","html-keyboard-response","46","618289","0.0-6.0-2.0-0.19","zduy660dv5","one_one","1","indirect_first","0","na07ut02","0","27","1","1","3","2","Die Teilnahme war sehr interessant. Ein paar Mal kamen mir die Symbole bekannt vor, doch viele waren bei den letzteren Aufgaben neu. Danke für die Studie!","0","1","0","null","","","<div class = 'row'><div class = 'column'><img src = 'category2/CS1.png' width = '70%;'></div><div class = 'column'><img src = 'uspos/5760.bmp' width = '100%;'></div></div>","null","pos","CS","CS","2","category2/CS1.png","","","","",""
"","survey-html-form","47","623646","0.0-6.0-3.0","zduy660dv5","one_one","1","indirect_first","0","na07ut02","0","27","1","1","3","2","Die Teilnahme war sehr interessant. Ein paar Mal kamen mir die Symbole bekannt vor, doch viele waren bei den letzteren Aufgaben neu. Danke für die Studie!","0","1","0","4854","","{}","","","","","","","","","","","",""
"","html-keyboard-response","48","627652","0.0-6.0-4.0-0.0","zduy660dv5","one_one","1","indirect_first","0","na07ut02","0","27","1","1","3","2","Die Teilnahme war sehr interessant. Ein paar Mal kamen mir die Symbole bekannt vor, doch viele waren bei den letzteren Aufgaben neu. Danke für die Studie!","0","1","0","null","","","<div class = 'row'><div class = 'column'><img src = 'category4/CS6.png' width = '70%;'></div><div class = 'column'><img src = 'usneg/9435.bmp' width = '100%;'></div></div>","null","neg","CS","CS","4","category4/CS6.png","","","","",""
"","html-keyboard-response","49","630156","0.0-6.0-4.0-0.1","zduy660dv5","one_one","1","indirect_first","0","na07ut02","0","27","1","1","3","2","Die Teilnahme war sehr interessant. Ein paar Mal kamen mir die Symbole bekannt vor, doch viele waren bei den letzteren Aufgaben neu. Danke für die Studie!","0","1","0","null","","","<div class = 'row'><div class = 'column'><img src = 'category1/CS10.png' width = '70%;'></div><div class = 'column'><img src = 'uspos/5629.bmp' width = '100%;'></div></div>","null","pos","CS","CS","1","category1/CS10.png","","","","",""
"","html-keyboard-response","50","632659","0.0-6.0-4.0-0.2","zduy660dv5","one_one","1","indirect_first","0","na07ut02","0","27","1","1","3","2","Die Teilnahme war sehr interessant. Ein paar Mal kamen mir die Symbole bekannt vor, doch viele waren bei den letzteren Aufgaben neu. Danke für die Studie!","0","1","0","null","","","<div class = 'row'><div class = 'column'><img src = 'uspos/5760.bmp' width = '100%;'></div><div class = 'column'><img src = 'category2/CS1.png' width = '70%;'></div></div>","null","pos","CS","CS","2","category2/CS1.png","","","","",""
"","html-keyboard-response","51","635163","0.0-6.0-4.0-0.3","zduy660dv5","one_one","1","indirect_first","0","na07ut02","0","27","1","1","3","2","Die Teilnahme war sehr interessant. Ein paar Mal kamen mir die Symbole bekannt vor, doch viele waren bei den letzteren Aufgaben neu. Danke für die Studie!","0","1","0","null","","","<div class = 'row'><div class = 'column'><img src = 'usneg/9330.bmp' width = '100%;'></div><div class = 'column'><img src = 'category3/CS9.png' width = '70%;'></div></div>","null","neg","CS","CS","3","category3/CS9.png","","","","",""
"","html-keyboard-response","52","637667","0.0-6.0-4.0-0.4","zduy660dv5","one_one","1","indirect_first","0","na07ut02","0","27","1","1","3","2","Die Teilnahme war sehr interessant. Ein paar Mal kamen mir die Symbole bekannt vor, doch viele waren bei den letzteren Aufgaben neu. Danke für die Studie!","0","1","0","null","","","<div class = 'row'><div class = 'column'><img src = 'category4/CS6.png' width = '70%;'></div><div class = 'column'><img src = 'usneg/9435.bmp' width = '100%;'></div></div>","null","neg","CS","CS","4","category4/CS6.png","","","","",""
"","html-keyboard-response","53","640169","0.0-6.0-4.0-0.5","zduy660dv5","one_one","1","indirect_first","0","na07ut02","0","27","1","1","3","2","Die Teilnahme war sehr interessant. Ein paar Mal kamen mir die Symbole bekannt vor, doch viele waren bei den letzteren Aufgaben neu. Danke für die Studie!","0","1","0","null","","","<div class = 'row'><div class = 'column'><img src = 'uspos/5629.bmp' width = '100%;'></div><div class = 'column'><img src = 'category1/CS10.png' width = '70%;'></div></div>","null","pos","CS","CS","1","category1/CS10.png","","","","",""
"","html-keyboard-response","54","642685","0.0-6.0-4.0-0.6","zduy660dv5","one_one","1","indirect_first","0","na07ut02","0","27","1","1","3","2","Die Teilnahme war sehr interessant. Ein paar Mal kamen mir die Symbole bekannt vor, doch viele waren bei den letzteren Aufgaben neu. Danke für die Studie!","0","1","0","null","","","<div class = 'row'><div class = 'column'><img src = 'category3/CS9.png' width = '70%;'></div><div class = 'column'><img src = 'usneg/9330.bmp' width = '100%;'></div></div>","null","neg","CS","CS","3","category3/CS9.png","","","","",""
"","html-keyboard-response","55","645188","0.0-6.0-4.0-0.7","zduy660dv5","one_one","1","indirect_first","0","na07ut02","0","27","1","1","3","2","Die Teilnahme war sehr interessant. Ein paar Mal kamen mir die Symbole bekannt vor, doch viele waren bei den letzteren Aufgaben neu. Danke für die Studie!","0","1","0","null","","","<div class = 'row'><div class = 'column'><img src = 'uspos/5760.bmp' width = '100%;'></div><div class = 'column'><img src = 'category2/CS1.png' width = '70%;'></div></div>","null","pos","CS","CS","2","category2/CS1.png","","","","",""
"","html-keyboard-response","56","647691","0.0-6.0-4.0-0.8","zduy660dv5","one_one","1","indirect_first","0","na07ut02","0","27","1","1","3","2","Die Teilnahme war sehr interessant. Ein paar Mal kamen mir die Symbole bekannt vor, doch viele waren bei den letzteren Aufgaben neu. Danke für die Studie!","0","1","0","null","","","<div class = 'row'><div class = 'column'><img src = 'uspos/5629.bmp' width = '100%;'></div><div class = 'column'><img src = 'category1/CS10.png' width = '70%;'></div></div>","null","pos","CS","CS","1","category1/CS10.png","","","","",""
"","html-keyboard-response","57","650195","0.0-6.0-4.0-0.9","zduy660dv5","one_one","1","indirect_first","0","na07ut02","0","27","1","1","3","2","Die Teilnahme war sehr interessant. Ein paar Mal kamen mir die Symbole bekannt vor, doch viele waren bei den letzteren Aufgaben neu. Danke für die Studie!","0","1","0","null","","","<div class = 'row'><div class = 'column'><img src = 'category4/CS6.png' width = '70%;'></div><div class = 'column'><img src = 'usneg/9435.bmp' width = '100%;'></div></div>","null","neg","CS","CS","4","category4/CS6.png","","","","",""
"","html-keyboard-response","58","652698","0.0-6.0-4.0-0.10","zduy660dv5","one_one","1","indirect_first","0","na07ut02","0","27","1","1","3","2","Die Teilnahme war sehr interessant. Ein paar Mal kamen mir die Symbole bekannt vor, doch viele waren bei den letzteren Aufgaben neu. Danke für die Studie!","0","1","0","null","","","<div class = 'row'><div class = 'column'><img src = 'category1/CS10.png' width = '70%;'></div><div class = 'column'><img src = 'uspos/5629.bmp' width = '100%;'></div></div>","null","pos","CS","CS","1","category1/CS10.png","","","","",""
"","html-keyboard-response","59","655202","0.0-6.0-4.0-0.11","zduy660dv5","one_one","1","indirect_first","0","na07ut02","0","27","1","1","3","2","Die Teilnahme war sehr interessant. Ein paar Mal kamen mir die Symbole bekannt vor, doch viele waren bei den letzteren Aufgaben neu. Danke für die Studie!","0","1","0","null","","","<div class = 'row'><div class = 'column'><img src = 'usneg/9435.bmp' width = '100%;'></div><div class = 'column'><img src = 'category4/CS6.png' width = '70%;'></div></div>","null","neg","CS","CS","4","category4/CS6.png","","","","",""
"","html-keyboard-response","60","657705","0.0-6.0-4.0-0.12","zduy660dv5","one_one","1","indirect_first","0","na07ut02","0","27","1","1","3","2","Die Teilnahme war sehr interessant. Ein paar Mal kamen mir die Symbole bekannt vor, doch viele waren bei den letzteren Aufgaben neu. Danke für die Studie!","0","1","0","null","","","<div class = 'row'><div class = 'column'><img src = 'category2/CS1.png' width = '70%;'></div><div class = 'column'><img src = 'uspos/5760.bmp' width = '100%;'></div></div>","null","pos","CS","CS","2","category2/CS1.png","","","","",""
"","html-keyboard-response","61","660207","0.0-6.0-4.0-0.13","zduy660dv5","one_one","1","indirect_first","0","na07ut02","0","27","1","1","3","2","Die Teilnahme war sehr interessant. Ein paar Mal kamen mir die Symbole bekannt vor, doch viele waren bei den letzteren Aufgaben neu. Danke für die Studie!","0","1","0","null","","","<div class = 'row'><div class = 'column'><img src = 'usneg/9435.bmp' width = '100%;'></div><div class = 'column'><img src = 'category4/CS6.png' width = '70%;'></div></div>","null","neg","CS","CS","4","category4/CS6.png","","","","",""
"","html-keyboard-response","62","662710","0.0-6.0-4.0-0.14","zduy660dv5","one_one","1","indirect_first","0","na07ut02","0","27","1","1","3","2","Die Teilnahme war sehr interessant. Ein paar Mal kamen mir die Symbole bekannt vor, doch viele waren bei den letzteren Aufgaben neu. Danke für die Studie!","0","1","0","null","","","<div class = 'row'><div class = 'column'><img src = 'category3/CS9.png' width = '70%;'></div><div class = 'column'><img src = 'usneg/9330.bmp' width = '100%;'></div></div>","null","neg","CS","CS","3","category3/CS9.png","","","","",""
"","html-keyboard-response","63","665212","0.0-6.0-4.0-0.15","zduy660dv5","one_one","1","indirect_first","0","na07ut02","0","27","1","1","3","2","Die Teilnahme war sehr interessant. Ein paar Mal kamen mir die Symbole bekannt vor, doch viele waren bei den letzteren Aufgaben neu. Danke für die Studie!","0","1","0","null","","","<div class = 'row'><div class = 'column'><img src = 'category2/CS1.png' width = '70%;'></div><div class = 'column'><img src = 'uspos/5760.bmp' width = '100%;'></div></div>","null","pos","CS","CS","2","category2/CS1.png","","","","",""
"","html-keyboard-response","64","667714","0.0-6.0-4.0-0.16","zduy660dv5","one_one","1","indirect_first","0","na07ut02","0","27","1","1","3","2","Die Teilnahme war sehr interessant. Ein paar Mal kamen mir die Symbole bekannt vor, doch viele waren bei den letzteren Aufgaben neu. Danke für die Studie!","0","1","0","null","","","<div class = 'row'><div class = 'column'><img src = 'category1/CS10.png' width = '70%;'></div><div class = 'column'><img src = 'uspos/5629.bmp' width = '100%;'></div></div>","null","pos","CS","CS","1","category1/CS10.png","","","","",""
"","html-keyboard-response","65","670215","0.0-6.0-4.0-0.17","zduy660dv5","one_one","1","indirect_first","0","na07ut02","0","27","1","1","3","2","Die Teilnahme war sehr interessant. Ein paar Mal kamen mir die Symbole bekannt vor, doch viele waren bei den letzteren Aufgaben neu. Danke für die Studie!","0","1","0","null","","","<div class = 'row'><div class = 'column'><img src = 'category3/CS9.png' width = '70%;'></div><div class = 'column'><img src = 'usneg/9330.bmp' width = '100%;'></div></div>","null","neg","CS","CS","3","category3/CS9.png","","","","",""
"","html-keyboard-response","66","672719","0.0-6.0-4.0-0.18","zduy660dv5","one_one","1","indirect_first","0","na07ut02","0","27","1","1","3","2","Die Teilnahme war sehr interessant. Ein paar Mal kamen mir die Symbole bekannt vor, doch viele waren bei den letzteren Aufgaben neu. Danke für die Studie!","0","1","0","null","","","<div class = 'row'><div class = 'column'><img src = 'category2/CS1.png' width = '70%;'></div><div class = 'column'><img src = 'uspos/5760.bmp' width = '100%;'></div></div>","null","pos","CS","CS","2","category2/CS1.png","","","","",""
"","html-keyboard-response","67","675221","0.0-6.0-4.0-0.19","zduy660dv5","one_one","1","indirect_first","0","na07ut02","0","27","1","1","3","2","Die Teilnahme war sehr interessant. Ein paar Mal kamen mir die Symbole bekannt vor, doch viele waren bei den letzteren Aufgaben neu. Danke für die Studie!","0","1","0","null","","","<div class = 'row'><div class = 'column'><img src = 'category3/CS9.png' width = '70%;'></div><div class = 'column'><img src = 'usneg/9330.bmp' width = '100%;'></div></div>","null","neg","CS","CS","3","category3/CS9.png","","","","",""
"","survey-html-form","68","687283","0.0-6.0-5.0","zduy660dv5","one_one","1","indirect_first","0","na07ut02","0","27","1","1","3","2","Die Teilnahme war sehr interessant. Ein paar Mal kamen mir die Symbole bekannt vor, doch viele waren bei den letzteren Aufgaben neu. Danke für die Studie!","0","1","0","11559","","{}","","","","","","","","","","","",""
"","html-keyboard-response","69","691287","0.0-6.0-6.0-0.0","zduy660dv5","one_one","1","indirect_first","0","na07ut02","0","27","1","1","3","2","Die Teilnahme war sehr interessant. Ein paar Mal kamen mir die Symbole bekannt vor, doch viele waren bei den letzteren Aufgaben neu. Danke für die Studie!","0","1","0","null","","","<div class = 'row'><div class = 'column'><img src = 'uspos/5629.bmp' width = '100%;'></div><div class = 'column'><img src = 'category1/CS10.png' width = '70%;'></div></div>","null","pos","CS","CS","1","category1/CS10.png","","","","",""
"","html-keyboard-response","70","693791","0.0-6.0-6.0-0.1","zduy660dv5","one_one","1","indirect_first","0","na07ut02","0","27","1","1","3","2","Die Teilnahme war sehr interessant. Ein paar Mal kamen mir die Symbole bekannt vor, doch viele waren bei den letzteren Aufgaben neu. Danke für die Studie!","0","1","0","null","","","<div class = 'row'><div class = 'column'><img src = 'category4/CS6.png' width = '70%;'></div><div class = 'column'><img src = 'usneg/9435.bmp' width = '100%;'></div></div>","null","neg","CS","CS","4","category4/CS6.png","","","","",""
"","html-keyboard-response","71","696294","0.0-6.0-6.0-0.2","zduy660dv5","one_one","1","indirect_first","0","na07ut02","0","27","1","1","3","2","Die Teilnahme war sehr interessant. Ein paar Mal kamen mir die Symbole bekannt vor, doch viele waren bei den letzteren Aufgaben neu. Danke für die Studie!","0","1","0","null","","","<div class = 'row'><div class = 'column'><img src = 'usneg/9330.bmp' width = '100%;'></div><div class = 'column'><img src = 'category3/CS9.png' width = '70%;'></div></div>","null","neg","CS","CS","3","category3/CS9.png","","","","",""
"","html-keyboard-response","72","698797","0.0-6.0-6.0-0.3","zduy660dv5","one_one","1","indirect_first","0","na07ut02","0","27","1","1","3","2","Die Teilnahme war sehr interessant. Ein paar Mal kamen mir die Symbole bekannt vor, doch viele waren bei den letzteren Aufgaben neu. Danke für die Studie!","0","1","0","null","","","<div class = 'row'><div class = 'column'><img src = 'category1/CS10.png' width = '70%;'></div><div class = 'column'><img src = 'uspos/5629.bmp' width = '100%;'></div></div>","null","pos","CS","CS","1","category1/CS10.png","","","","",""
"","html-keyboard-response","73","701299","0.0-6.0-6.0-0.4","zduy660dv5","one_one","1","indirect_first","0","na07ut02","0","27","1","1","3","2","Die Teilnahme war sehr interessant. Ein paar Mal kamen mir die Symbole bekannt vor, doch viele waren bei den letzteren Aufgaben neu. Danke für die Studie!","0","1","0","null","","","<div class = 'row'><div class = 'column'><img src = 'uspos/5760.bmp' width = '100%;'></div><div class = 'column'><img src = 'category2/CS1.png' width = '70%;'></div></div>","null","pos","CS","CS","2","category2/CS1.png","","","","",""
"","html-keyboard-response","74","703802","0.0-6.0-6.0-0.5","zduy660dv5","one_one","1","indirect_first","0","na07ut02","0","27","1","1","3","2","Die Teilnahme war sehr interessant. Ein paar Mal kamen mir die Symbole bekannt vor, doch viele waren bei den letzteren Aufgaben neu. Danke für die Studie!","0","1","0","null","","","<div class = 'row'><div class = 'column'><img src = 'uspos/5629.bmp' width = '100%;'></div><div class = 'column'><img src = 'category1/CS10.png' width = '70%;'></div></div>","null","pos","CS","CS","1","category1/CS10.png","","","","",""
"","html-keyboard-response","75","706304","0.0-6.0-6.0-0.6","zduy660dv5","one_one","1","indirect_first","0","na07ut02","0","27","1","1","3","2","Die Teilnahme war sehr interessant. Ein paar Mal kamen mir die Symbole bekannt vor, doch viele waren bei den letzteren Aufgaben neu. Danke für die Studie!","0","1","0","null","","","<div class = 'row'><div class = 'column'><img src = 'usneg/9435.bmp' width = '100%;'></div><div class = 'column'><img src = 'category4/CS6.png' width = '70%;'></div></div>","null","neg","CS","CS","4","category4/CS6.png","","","","",""
"","html-keyboard-response","76","708807","0.0-6.0-6.0-0.7","zduy660dv5","one_one","1","indirect_first","0","na07ut02","0","27","1","1","3","2","Die Teilnahme war sehr interessant. Ein paar Mal kamen mir die Symbole bekannt vor, doch viele waren bei den letzteren Aufgaben neu. Danke für die Studie!","0","1","0","null","","","<div class = 'row'><div class = 'column'><img src = 'category3/CS9.png' width = '70%;'></div><div class = 'column'><img src = 'usneg/9330.bmp' width = '100%;'></div></div>","null","neg","CS","CS","3","category3/CS9.png","","","","",""
"","html-keyboard-response","77","711310","0.0-6.0-6.0-0.8","zduy660dv5","one_one","1","indirect_first","0","na07ut02","0","27","1","1","3","2","Die Teilnahme war sehr interessant. Ein paar Mal kamen mir die Symbole bekannt vor, doch viele waren bei den letzteren Aufgaben neu. Danke für die Studie!","0","1","0","null","","","<div class = 'row'><div class = 'column'><img src = 'usneg/9435.bmp' width = '100%;'></div><div class = 'column'><img src = 'category4/CS6.png' width = '70%;'></div></div>","null","neg","CS","CS","4","category4/CS6.png","","","","",""
"","html-keyboard-response","78","713814","0.0-6.0-6.0-0.9","zduy660dv5","one_one","1","indirect_first","0","na07ut02","0","27","1","1","3","2","Die Teilnahme war sehr interessant. Ein paar Mal kamen mir die Symbole bekannt vor, doch viele waren bei den letzteren Aufgaben neu. Danke für die Studie!","0","1","0","null","","","<div class = 'row'><div class = 'column'><img src = 'usneg/9330.bmp' width = '100%;'></div><div class = 'column'><img src = 'category3/CS9.png' width = '70%;'></div></div>","null","neg","CS","CS","3","category3/CS9.png","","","","",""
"","html-keyboard-response","79","716315","0.0-6.0-6.0-0.10","zduy660dv5","one_one","1","indirect_first","0","na07ut02","0","27","1","1","3","2","Die Teilnahme war sehr interessant. Ein paar Mal kamen mir die Symbole bekannt vor, doch viele waren bei den letzteren Aufgaben neu. Danke für die Studie!","0","1","0","null","","","<div class = 'row'><div class = 'column'><img src = 'uspos/5760.bmp' width = '100%;'></div><div class = 'column'><img src = 'category2/CS1.png' width = '70%;'></div></div>","null","pos","CS","CS","2","category2/CS1.png","","","","",""
"","html-keyboard-response","80","718819","0.0-6.0-6.0-0.11","zduy660dv5","one_one","1","indirect_first","0","na07ut02","0","27","1","1","3","2","Die Teilnahme war sehr interessant. Ein paar Mal kamen mir die Symbole bekannt vor, doch viele waren bei den letzteren Aufgaben neu. Danke für die Studie!","0","1","0","null","","","<div class = 'row'><div class = 'column'><img src = 'category1/CS10.png' width = '70%;'></div><div class = 'column'><img src = 'uspos/5629.bmp' width = '100%;'></div></div>","null","pos","CS","CS","1","category1/CS10.png","","","","",""
"","html-keyboard-response","81","721323","0.0-6.0-6.0-0.12","zduy660dv5","one_one","1","indirect_first","0","na07ut02","0","27","1","1","3","2","Die Teilnahme war sehr interessant. Ein paar Mal kamen mir die Symbole bekannt vor, doch viele waren bei den letzteren Aufgaben neu. Danke für die Studie!","0","1","0","null","","","<div class = 'row'><div class = 'column'><img src = 'uspos/5760.bmp' width = '100%;'></div><div class = 'column'><img src = 'category2/CS1.png' width = '70%;'></div></div>","null","pos","CS","CS","2","category2/CS1.png","","","","",""
"","html-keyboard-response","82","723823","0.0-6.0-6.0-0.13","zduy660dv5","one_one","1","indirect_first","0","na07ut02","0","27","1","1","3","2","Die Teilnahme war sehr interessant. Ein paar Mal kamen mir die Symbole bekannt vor, doch viele waren bei den letzteren Aufgaben neu. Danke für die Studie!","0","1","0","null","","","<div class = 'row'><div class = 'column'><img src = 'category4/CS6.png' width = '70%;'></div><div class = 'column'><img src = 'usneg/9435.bmp' width = '100%;'></div></div>","null","neg","CS","CS","4","category4/CS6.png","","","","",""
"","html-keyboard-response","83","726326","0.0-6.0-6.0-0.14","zduy660dv5","one_one","1","indirect_first","0","na07ut02","0","27","1","1","3","2","Die Teilnahme war sehr interessant. Ein paar Mal kamen mir die Symbole bekannt vor, doch viele waren bei den letzteren Aufgaben neu. Danke für die Studie!","0","1","0","null","","","<div class = 'row'><div class = 'column'><img src = 'category2/CS1.png' width = '70%;'></div><div class = 'column'><img src = 'uspos/5760.bmp' width = '100%;'></div></div>","null","pos","CS","CS","2","category2/CS1.png","","","","",""
"","html-keyboard-response","84","728829","0.0-6.0-6.0-0.15","zduy660dv5","one_one","1","indirect_first","0","na07ut02","0","27","1","1","3","2","Die Teilnahme war sehr interessant. Ein paar Mal kamen mir die Symbole bekannt vor, doch viele waren bei den letzteren Aufgaben neu. Danke für die Studie!","0","1","0","null","","","<div class = 'row'><div class = 'column'><img src = 'category3/CS9.png' width = '70%;'></div><div class = 'column'><img src = 'usneg/9330.bmp' width = '100%;'></div></div>","null","neg","CS","CS","3","category3/CS9.png","","","","",""
"","html-keyboard-response","85","731333","0.0-6.0-6.0-0.16","zduy660dv5","one_one","1","indirect_first","0","na07ut02","0","27","1","1","3","2","Die Teilnahme war sehr interessant. Ein paar Mal kamen mir die Symbole bekannt vor, doch viele waren bei den letzteren Aufgaben neu. Danke für die Studie!","0","1","0","null","","","<div class = 'row'><div class = 'column'><img src = 'usneg/9435.bmp' width = '100%;'></div><div class = 'column'><img src = 'category4/CS6.png' width = '70%;'></div></div>","null","neg","CS","CS","4","category4/CS6.png","","","","",""
"","html-keyboard-response","86","733834","0.0-6.0-6.0-0.17","zduy660dv5","one_one","1","indirect_first","0","na07ut02","0","27","1","1","3","2","Die Teilnahme war sehr interessant. Ein paar Mal kamen mir die Symbole bekannt vor, doch viele waren bei den letzteren Aufgaben neu. Danke für die Studie!","0","1","0","null","","","<div class = 'row'><div class = 'column'><img src = 'uspos/5629.bmp' width = '100%;'></div><div class = 'column'><img src = 'category1/CS10.png' width = '70%;'></div></div>","null","pos","CS","CS","1","category1/CS10.png","","","","",""
"","html-keyboard-response","87","736337","0.0-6.0-6.0-0.18","zduy660dv5","one_one","1","indirect_first","0","na07ut02","0","27","1","1","3","2","Die Teilnahme war sehr interessant. Ein paar Mal kamen mir die Symbole bekannt vor, doch viele waren bei den letzteren Aufgaben neu. Danke für die Studie!","0","1","0","null","","","<div class = 'row'><div class = 'column'><img src = 'uspos/5760.bmp' width = '100%;'></div><div class = 'column'><img src = 'category2/CS1.png' width = '70%;'></div></div>","null","pos","CS","CS","2","category2/CS1.png","","","","",""
"","html-keyboard-response","88","738838","0.0-6.0-6.0-0.19","zduy660dv5","one_one","1","indirect_first","0","na07ut02","0","27","1","1","3","2","Die Teilnahme war sehr interessant. Ein paar Mal kamen mir die Symbole bekannt vor, doch viele waren bei den letzteren Aufgaben neu. Danke für die Studie!","0","1","0","null","","","<div class = 'row'><div class = 'column'><img src = 'usneg/9330.bmp' width = '100%;'></div><div class = 'column'><img src = 'category3/CS9.png' width = '70%;'></div></div>","null","neg","CS","CS","3","category3/CS9.png","","","","",""
"","html-keyboard-response","89","766924","0.0-7.0","zduy660dv5","one_one","1","indirect_first","0","na07ut02","0","27","1","1","3","2","Die Teilnahme war sehr interessant. Ein paar Mal kamen mir die Symbole bekannt vor, doch viele waren bei den letzteren Aufgaben neu. Danke für die Studie!","0","1","0","27584","","","<p>Sie sehen nun die chinesischen Zeichen nur ganz kurz. Danach sehen Sie die jeweilige Aussprache der Zeichen als Silbe auf dem Bildschrim. Ihre Aufgabe ist es, für jede Silbe anzugeben, ob diese etwas angenehmes, oder unangenehmes bedeuten könnte. Verlassen Sie sich hier vor allem auf Ihre Intuition.<br><br>Die Zeichen werden nur zur Orientierung dargestellt, beachten Sie sie deshalb nicht. Konzentrieren Sie sich vor allem auf die Silben. <br>Reagieren Sie mit folgenden zwei Tasten: <br><br><b>'D' </b> wenn die Silbe etwas <b>unangenehmes</b> bedeuten könnte. <br><b>'K'</b> wenn die Silbe etwas <b>angenehmes</b> bedeuten könnte. <br><br>Bitte legen Sie nun den Zeigefinger der linken Hand auf die Taste 'D' und den Zeigefinger der rechten Hand auf die Taste 'K'. <br>Reagieren Sie auf jede Silbe so schnell wie möglich. Uns interessiert Ihre spontane Reaktion. <br> <br> <br>Drücken Sie 'D' oder 'K', um die nächste Aufgabe zu starten. </p>","68","","","","","","","","","",""
"","html-keyboard-response","90","769928","0.0-8.0-0.0","zduy660dv5","one_one","1","indirect_first","0","na07ut02","0","27","1","1","3","2","Die Teilnahme war sehr interessant. Ein paar Mal kamen mir die Symbole bekannt vor, doch viele waren bei den letzteren Aufgaben neu. Danke für die Studie!","0","1","0","null","","","<div style=""font-size:60px;"">+</div>","null","","","","","","","","","",""
"","html-keyboard-response","91","770019","0.0-8.0-1.0","zduy660dv5","one_one","1","indirect_first","0","na07ut02","0","27","1","1","3","2","Die Teilnahme war sehr interessant. Ein paar Mal kamen mir die Symbole bekannt vor, doch viele waren bei den letzteren Aufgaben neu. Danke für die Studie!","0","1","0","null","","","<img src = 'category1/CS4.png' width = '100%;'>","null","","","","","","","","","",""
"","html-keyboard-response","92","770273","0.0-8.0-2.0","zduy660dv5","one_one","1","indirect_first","0","na07ut02","0","27","1","1","3","2","Die Teilnahme war sehr interessant. Ein paar Mal kamen mir die Symbole bekannt vor, doch viele waren bei den letzteren Aufgaben neu. Danke für die Studie!","0","1","0","null","","","<img src = 'targets/42.png' width = '100%;'>","null","","","","","","","","","",""
"","html-keyboard-response","93","776492","0.0-8.0-3.0","zduy660dv5","one_one","1","indirect_first","0","na07ut02","0","27","1","1","3","2","Die Teilnahme war sehr interessant. Ein paar Mal kamen mir die Symbole bekannt vor, doch viele waren bei den letzteren Aufgaben neu. Danke für die Studie!","0","1","0","6218","","","<img src = 'targets/mask.png' width = '100%;'>","68","pos","GS","GSold","1","category1/CS4.png","targets/42.png","0","indirect","0",""
"","html-keyboard-response","94","777996","0.0-8.0-0.1","zduy660dv5","one_one","1","indirect_first","0","na07ut02","0","27","1","1","3","2","Die Teilnahme war sehr interessant. Ein paar Mal kamen mir die Symbole bekannt vor, doch viele waren bei den letzteren Aufgaben neu. Danke für die Studie!","0","1","0","null","","","<div style=""font-size:60px;"">+</div>","null","","","","","","","","","",""
"","html-keyboard-response","95","778087","0.0-8.0-1.1","zduy660dv5","one_one","1","indirect_first","0","na07ut02","0","27","1","1","3","2","Die Teilnahme war sehr interessant. Ein paar Mal kamen mir die Symbole bekannt vor, doch viele waren bei den letzteren Aufgaben neu. Danke für die Studie!","0","1","0","null","","","<img src = 'category4/CS6.png' width = '100%;'>","null","","","","","","","","","",""
"","html-keyboard-response","96","778339","0.0-8.0-2.1","zduy660dv5","one_one","1","indirect_first","0","na07ut02","0","27","1","1","3","2","Die Teilnahme war sehr interessant. Ein paar Mal kamen mir die Symbole bekannt vor, doch viele waren bei den letzteren Aufgaben neu. Danke für die Studie!","0","1","0","null","","","<img src = 'targets/41.png' width = '100%;'>","null","","","","","","","","","",""
"","html-keyboard-response","97","782675","0.0-8.0-3.1","zduy660dv5","one_one","1","indirect_first","0","na07ut02","0","27","1","1","3","2","Die Teilnahme war sehr interessant. Ein paar Mal kamen mir die Symbole bekannt vor, doch viele waren bei den letzteren Aufgaben neu. Danke für die Studie!","0","1","0","4335","","","<img src = 'targets/mask.png' width = '100%;'>","75","neg","CS","CS","4","category4/CS6.png","targets/41.png","1","indirect","1",""
"","html-keyboard-response","98","784176","0.0-8.0-0.2","zduy660dv5","one_one","1","indirect_first","0","na07ut02","0","27","1","1","3","2","Die Teilnahme war sehr interessant. Ein paar Mal kamen mir die Symbole bekannt vor, doch viele waren bei den letzteren Aufgaben neu. Danke für die Studie!","0","1","0","null","","","<div style=""font-size:60px;"">+</div>","null","","","","","","","","","",""
"","html-keyboard-response","99","784267","0.0-8.0-1.2","zduy660dv5","one_one","1","indirect_first","0","na07ut02","0","27","1","1","3","2","Die Teilnahme war sehr interessant. Ein paar Mal kamen mir die Symbole bekannt vor, doch viele waren bei den letzteren Aufgaben neu. Danke für die Studie!","0","1","0","null","","","<img src = 'category1/CS6.png' width = '100%;'>","null","","","","","","","","","",""
"","html-keyboard-response","100","784522","0.0-8.0-2.2","zduy660dv5","one_one","1","indirect_first","0","na07ut02","0","27","1","1","3","2","Die Teilnahme war sehr interessant. Ein paar Mal kamen mir die Symbole bekannt vor, doch viele waren bei den letzteren Aufgaben neu. Danke für die Studie!","0","1","0","null","","","<img src = 'targets/43.png' width = '100%;'>","null","","","","","","","","","",""
"","html-keyboard-response","101","788037","0.0-8.0-3.2","zduy660dv5","one_one","1","indirect_first","0","na07ut02","0","27","1","1","3","2","Die Teilnahme war sehr interessant. Ein paar Mal kamen mir die Symbole bekannt vor, doch viele waren bei den letzteren Aufgaben neu. Danke für die Studie!","0","1","0","3514","","","<img src = 'targets/mask.png' width = '100%;'>","68","pos","GS","GSold","1","category1/CS6.png","targets/43.png","0","indirect","2",""
"","html-keyboard-response","102","789538","0.0-8.0-0.3","zduy660dv5","one_one","1","indirect_first","0","na07ut02","0","27","1","1","3","2","Die Teilnahme war sehr interessant. Ein paar Mal kamen mir die Symbole bekannt vor, doch viele waren bei den letzteren Aufgaben neu. Danke für die Studie!","0","1","0","null","","","<div style=""font-size:60px;"">+</div>","null","","","","","","","","","",""
"","html-keyboard-response","103","789630","0.0-8.0-1.3","zduy660dv5","one_one","1","indirect_first","0","na07ut02","0","27","1","1","3","2","Die Teilnahme war sehr interessant. Ein paar Mal kamen mir die Symbole bekannt vor, doch viele waren bei den letzteren Aufgaben neu. Danke für die Studie!","0","1","0","null","","","<img src = 'category4/CS2.png' width = '100%;'>","null","","","","","","","","","",""
"","html-keyboard-response","104","789882","0.0-8.0-2.3","zduy660dv5","one_one","1","indirect_first","0","na07ut02","0","27","1","1","3","2","Die Teilnahme war sehr interessant. Ein paar Mal kamen mir die Symbole bekannt vor, doch viele waren bei den letzteren Aufgaben neu. Danke für die Studie!","0","1","0","null","","","<img src = 'targets/18.png' width = '100%;'>","null","","","","","","","","","",""
"","html-keyboard-response","105","792636","0.0-8.0-3.3","zduy660dv5","one_one","1","indirect_first","0","na07ut02","0","27","1","1","3","2","Die Teilnahme war sehr interessant. Ein paar Mal kamen mir die Symbole bekannt vor, doch viele waren bei den letzteren Aufgaben neu. Danke für die Studie!","0","1","0","2754","","","<img src = 'targets/mask.png' width = '100%;'>","75","neg","GS","GSold","4","category4/CS2.png","targets/18.png","1","indirect","3",""
"","html-keyboard-response","106","794137","0.0-8.0-0.4","zduy660dv5","one_one","1","indirect_first","0","na07ut02","0","27","1","1","3","2","Die Teilnahme war sehr interessant. Ein paar Mal kamen mir die Symbole bekannt vor, doch viele waren bei den letzteren Aufgaben neu. Danke für die Studie!","0","1","0","null","","","<div style=""font-size:60px;"">+</div>","null","","","","","","","","","",""
"","html-keyboard-response","107","794228","0.0-8.0-1.4","zduy660dv5","one_one","1","indirect_first","0","na07ut02","0","27","1","1","3","2","Die Teilnahme war sehr interessant. Ein paar Mal kamen mir die Symbole bekannt vor, doch viele waren bei den letzteren Aufgaben neu. Danke für die Studie!","0","1","0","null","","","<img src = 'category4/CS9.png' width = '100%;'>","null","","","","","","","","","",""
"","html-keyboard-response","108","794480","0.0-8.0-2.4","zduy660dv5","one_one","1","indirect_first","0","na07ut02","0","27","1","1","3","2","Die Teilnahme war sehr interessant. Ein paar Mal kamen mir die Symbole bekannt vor, doch viele waren bei den letzteren Aufgaben neu. Danke für die Studie!","0","1","0","null","","","<img src = 'targets/22.png' width = '100%;'>","null","","","","","","","","","",""
"","html-keyboard-response","109","798727","0.0-8.0-3.4","zduy660dv5","one_one","1","indirect_first","0","na07ut02","0","27","1","1","3","2","Die Teilnahme war sehr interessant. Ein paar Mal kamen mir die Symbole bekannt vor, doch viele waren bei den letzteren Aufgaben neu. Danke für die Studie!","0","1","0","4245","","","<img src = 'targets/mask.png' width = '100%;'>","75","neg","GS","GSold","4","category4/CS9.png","targets/22.png","1","indirect","4",""
"","html-keyboard-response","110","800229","0.0-8.0-0.5","zduy660dv5","one_one","1","indirect_first","0","na07ut02","0","27","1","1","3","2","Die Teilnahme war sehr interessant. Ein paar Mal kamen mir die Symbole bekannt vor, doch viele waren bei den letzteren Aufgaben neu. Danke für die Studie!","0","1","0","null","","","<div style=""font-size:60px;"">+</div>","null","","","","","","","","","",""
"","html-keyboard-response","111","800320","0.0-8.0-1.5","zduy660dv5","one_one","1","indirect_first","0","na07ut02","0","27","1","1","3","2","Die Teilnahme war sehr interessant. Ein paar Mal kamen mir die Symbole bekannt vor, doch viele waren bei den letzteren Aufgaben neu. Danke für die Studie!","0","1","0","null","","","<img src = 'category2/CS1.png' width = '100%;'>","null","","","","","","","","","",""
"","html-keyboard-response","112","800573","0.0-8.0-2.5","zduy660dv5","one_one","1","indirect_first","0","na07ut02","0","27","1","1","3","2","Die Teilnahme war sehr interessant. Ein paar Mal kamen mir die Symbole bekannt vor, doch viele waren bei den letzteren Aufgaben neu. Danke für die Studie!","0","1","0","null","","","<img src = 'targets/25.png' width = '100%;'>","null","","","","","","","","","",""
"","html-keyboard-response","113","802387","0.0-8.0-3.5","zduy660dv5","one_one","1","indirect_first","0","na07ut02","0","27","1","1","3","2","Die Teilnahme war sehr interessant. Ein paar Mal kamen mir die Symbole bekannt vor, doch viele waren bei den letzteren Aufgaben neu. Danke für die Studie!","0","1","0","1813","","","<img src = 'targets/mask.png' width = '100%;'>","75","pos","CS","CS","2","category2/CS1.png","targets/25.png","1","indirect","5",""
"","html-keyboard-response","114","803890","0.0-8.0-0.6","zduy660dv5","one_one","1","indirect_first","0","na07ut02","0","27","1","1","3","2","Die Teilnahme war sehr interessant. Ein paar Mal kamen mir die Symbole bekannt vor, doch viele waren bei den letzteren Aufgaben neu. Danke für die Studie!","0","1","0","null","","","<div style=""font-size:60px;"">+</div>","null","","","","","","","","","",""
"","html-keyboard-response","115","803981","0.0-8.0-1.6","zduy660dv5","one_one","1","indirect_first","0","na07ut02","0","27","1","1","3","2","Die Teilnahme war sehr interessant. Ein paar Mal kamen mir die Symbole bekannt vor, doch viele waren bei den letzteren Aufgaben neu. Danke für die Studie!","0","1","0","null","","","<img src = 'category4/CS5.png' width = '100%;'>","null","","","","","","","","","",""
"","html-keyboard-response","116","804232","0.0-8.0-2.6","zduy660dv5","one_one","1","indirect_first","0","na07ut02","0","27","1","1","3","2","Die Teilnahme war sehr interessant. Ein paar Mal kamen mir die Symbole bekannt vor, doch viele waren bei den letzteren Aufgaben neu. Danke für die Studie!","0","1","0","null","","","<img src = 'targets/2.png' width = '100%;'>","null","","","","","","","","","",""
"","html-keyboard-response","117","809593","0.0-8.0-3.6","zduy660dv5","one_one","1","indirect_first","0","na07ut02","0","27","1","1","3","2","Die Teilnahme war sehr interessant. Ein paar Mal kamen mir die Symbole bekannt vor, doch viele waren bei den letzteren Aufgaben neu. Danke für die Studie!","0","1","0","5359","","","<img src = 'targets/mask.png' width = '100%;'>","75","neg","GS","GSold","4","category4/CS5.png","targets/2.png","1","indirect","6",""
"","html-keyboard-response","118","811095","0.0-8.0-0.7","zduy660dv5","one_one","1","indirect_first","0","na07ut02","0","27","1","1","3","2","Die Teilnahme war sehr interessant. Ein paar Mal kamen mir die Symbole bekannt vor, doch viele waren bei den letzteren Aufgaben neu. Danke für die Studie!","0","1","0","null","","","<div style=""font-size:60px;"">+</div>","null","","","","","","","","","",""
"","html-keyboard-response","119","811187","0.0-8.0-1.7","zduy660dv5","one_one","1","indirect_first","0","na07ut02","0","27","1","1","3","2","Die Teilnahme war sehr interessant. Ein paar Mal kamen mir die Symbole bekannt vor, doch viele waren bei den letzteren Aufgaben neu. Danke für die Studie!","0","1","0","null","","","<img src = 'category3/CS9.png' width = '100%;'>","null","","","","","","","","","",""
"","html-keyboard-response","120","811440","0.0-8.0-2.7","zduy660dv5","one_one","1","indirect_first","0","na07ut02","0","27","1","1","3","2","Die Teilnahme war sehr interessant. Ein paar Mal kamen mir die Symbole bekannt vor, doch viele waren bei den letzteren Aufgaben neu. Danke für die Studie!","0","1","0","null","","","<img src = 'targets/17.png' width = '100%;'>","null","","","","","","","","","",""
"","html-keyboard-response","121","813946","0.0-8.0-3.7","zduy660dv5","one_one","1","indirect_first","0","na07ut02","0","27","1","1","3","2","Die Teilnahme war sehr interessant. Ein paar Mal kamen mir die Symbole bekannt vor, doch viele waren bei den letzteren Aufgaben neu. Danke für die Studie!","0","1","0","2505","","","<img src = 'targets/mask.png' width = '100%;'>","75","neg","CS","CS","3","category3/CS9.png","targets/17.png","1","indirect","7",""
"","html-keyboard-response","122","815448","0.0-8.0-0.8","zduy660dv5","one_one","1","indirect_first","0","na07ut02","0","27","1","1","3","2","Die Teilnahme war sehr interessant. Ein paar Mal kamen mir die Symbole bekannt vor, doch viele waren bei den letzteren Aufgaben neu. Danke für die Studie!","0","1","0","null","","","<div style=""font-size:60px;"">+</div>","null","","","","","","","","","",""
"","html-keyboard-response","123","815539","0.0-8.0-1.8","zduy660dv5","one_one","1","indirect_first","0","na07ut02","0","27","1","1","3","2","Die Teilnahme war sehr interessant. Ein paar Mal kamen mir die Symbole bekannt vor, doch viele waren bei den letzteren Aufgaben neu. Danke für die Studie!","0","1","0","null","","","<img src = 'category1/CS2.png' width = '100%;'>","null","","","","","","","","","",""
"","html-keyboard-response","124","815791","0.0-8.0-2.8","zduy660dv5","one_one","1","indirect_first","0","na07ut02","0","27","1","1","3","2","Die Teilnahme war sehr interessant. Ein paar Mal kamen mir die Symbole bekannt vor, doch viele waren bei den letzteren Aufgaben neu. Danke für die Studie!","0","1","0","null","","","<img src = 'targets/3.png' width = '100%;'>","null","","","","","","","","","",""
"","html-keyboard-response","125","817259","0.0-8.0-3.8","zduy660dv5","one_one","1","indirect_first","0","na07ut02","0","27","1","1","3","2","Die Teilnahme war sehr interessant. Ein paar Mal kamen mir die Symbole bekannt vor, doch viele waren bei den letzteren Aufgaben neu. Danke für die Studie!","0","1","0","1467","","","<img src = 'targets/mask.png' width = '100%;'>","75","pos","GS","GSold","1","category1/CS2.png","targets/3.png","1","indirect","8",""
"","html-keyboard-response","126","818760","0.0-8.0-0.9","zduy660dv5","one_one","1","indirect_first","0","na07ut02","0","27","1","1","3","2","Die Teilnahme war sehr interessant. Ein paar Mal kamen mir die Symbole bekannt vor, doch viele waren bei den letzteren Aufgaben neu. Danke für die Studie!","0","1","0","null","","","<div style=""font-size:60px;"">+</div>","null","","","","","","","","","",""
"","html-keyboard-response","127","818852","0.0-8.0-1.9","zduy660dv5","one_one","1","indirect_first","0","na07ut02","0","27","1","1","3","2","Die Teilnahme war sehr interessant. Ein paar Mal kamen mir die Symbole bekannt vor, doch viele waren bei den letzteren Aufgaben neu. Danke für die Studie!","0","1","0","null","","","<img src = 'category2/CS10.png' width = '100%;'>","null","","","","","","","","","",""
"","html-keyboard-response","128","819104","0.0-8.0-2.9","zduy660dv5","one_one","1","indirect_first","0","na07ut02","0","27","1","1","3","2","Die Teilnahme war sehr interessant. Ein paar Mal kamen mir die Symbole bekannt vor, doch viele waren bei den letzteren Aufgaben neu. Danke für die Studie!","0","1","0","null","","","<img src = 'targets/31.png' width = '100%;'>","null","","","","","","","","","",""
"","html-keyboard-response","129","820585","0.0-8.0-3.9","zduy660dv5","one_one","1","indirect_first","0","na07ut02","0","27","1","1","3","2","Die Teilnahme war sehr interessant. Ein paar Mal kamen mir die Symbole bekannt vor, doch viele waren bei den letzteren Aufgaben neu. Danke für die Studie!","0","1","0","1480","","","<img src = 'targets/mask.png' width = '100%;'>","68","pos","GS","GSold","2","category2/CS10.png","targets/31.png","0","indirect","9",""
"","html-keyboard-response","130","822087","0.0-8.0-0.10","zduy660dv5","one_one","1","indirect_first","0","na07ut02","0","27","1","1","3","2","Die Teilnahme war sehr interessant. Ein paar Mal kamen mir die Symbole bekannt vor, doch viele waren bei den letzteren Aufgaben neu. Danke für die Studie!","0","1","0","null","","","<div style=""font-size:60px;"">+</div>","null","","","","","","","","","",""
"","html-keyboard-response","131","822179","0.0-8.0-1.10","zduy660dv5","one_one","1","indirect_first","0","na07ut02","0","27","1","1","3","2","Die Teilnahme war sehr interessant. Ein paar Mal kamen mir die Symbole bekannt vor, doch viele waren bei den letzteren Aufgaben neu. Danke für die Studie!","0","1","0","null","","","<img src = 'category3/CS8.png' width = '100%;'>","null","","","","","","","","","",""
"","html-keyboard-response","132","822430","0.0-8.0-2.10","zduy660dv5","one_one","1","indirect_first","0","na07ut02","0","27","1","1","3","2","Die Teilnahme war sehr interessant. Ein paar Mal kamen mir die Symbole bekannt vor, doch viele waren bei den letzteren Aufgaben neu. Danke für die Studie!","0","1","0","null","","","<img src = 'targets/47.png' width = '100%;'>","null","","","","","","","","","",""
"","html-keyboard-response","133","824059","0.0-8.0-3.10","zduy660dv5","one_one","1","indirect_first","0","na07ut02","0","27","1","1","3","2","Die Teilnahme war sehr interessant. Ein paar Mal kamen mir die Symbole bekannt vor, doch viele waren bei den letzteren Aufgaben neu. Danke für die Studie!","0","1","0","1629","","","<img src = 'targets/mask.png' width = '100%;'>","75","neg","GS","GSold","3","category3/CS8.png","targets/47.png","1","indirect","10",""
"","html-keyboard-response","134","825561","0.0-8.0-0.11","zduy660dv5","one_one","1","indirect_first","0","na07ut02","0","27","1","1","3","2","Die Teilnahme war sehr interessant. Ein paar Mal kamen mir die Symbole bekannt vor, doch viele waren bei den letzteren Aufgaben neu. Danke für die Studie!","0","1","0","null","","","<div style=""font-size:60px;"">+</div>","null","","","","","","","","","",""
"","html-keyboard-response","135","825651","0.0-8.0-1.11","zduy660dv5","one_one","1","indirect_first","0","na07ut02","0","27","1","1","3","2","Die Teilnahme war sehr interessant. Ein paar Mal kamen mir die Symbole bekannt vor, doch viele waren bei den letzteren Aufgaben neu. Danke für die Studie!","0","1","0","null","","","<img src = 'category3/CS10.png' width = '100%;'>","null","","","","","","","","","",""
"","html-keyboard-response","136","825904","0.0-8.0-2.11","zduy660dv5","one_one","1","indirect_first","0","na07ut02","0","27","1","1","3","2","Die Teilnahme war sehr interessant. Ein paar Mal kamen mir die Symbole bekannt vor, doch viele waren bei den letzteren Aufgaben neu. Danke für die Studie!","0","1","0","null","","","<img src = 'targets/44.png' width = '100%;'>","null","","","","","","","","","",""
"","html-keyboard-response","137","827867","0.0-8.0-3.11","zduy660dv5","one_one","1","indirect_first","0","na07ut02","0","27","1","1","3","2","Die Teilnahme war sehr interessant. Ein paar Mal kamen mir die Symbole bekannt vor, doch viele waren bei den letzteren Aufgaben neu. Danke für die Studie!","0","1","0","1961","","","<img src = 'targets/mask.png' width = '100%;'>","75","neg","GS","GSold","3","category3/CS10.png","targets/44.png","1","indirect","11",""
"","html-keyboard-response","138","829369","0.0-8.0-0.12","zduy660dv5","one_one","1","indirect_first","0","na07ut02","0","27","1","1","3","2","Die Teilnahme war sehr interessant. Ein paar Mal kamen mir die Symbole bekannt vor, doch viele waren bei den letzteren Aufgaben neu. Danke für die Studie!","0","1","0","null","","","<div style=""font-size:60px;"">+</div>","null","","","","","","","","","",""
"","html-keyboard-response","139","829460","0.0-8.0-1.12","zduy660dv5","one_one","1","indirect_first","0","na07ut02","0","27","1","1","3","2","Die Teilnahme war sehr interessant. Ein paar Mal kamen mir die Symbole bekannt vor, doch viele waren bei den letzteren Aufgaben neu. Danke für die Studie!","0","1","0","null","","","<img src = 'category2/CS6.png' width = '100%;'>","null","","","","","","","","","",""
"","html-keyboard-response","140","829711","0.0-8.0-2.12","zduy660dv5","one_one","1","indirect_first","0","na07ut02","0","27","1","1","3","2","Die Teilnahme war sehr interessant. Ein paar Mal kamen mir die Symbole bekannt vor, doch viele waren bei den letzteren Aufgaben neu. Danke für die Studie!","0","1","0","null","","","<img src = 'targets/39.png' width = '100%;'>","null","","","","","","","","","",""
"","html-keyboard-response","141","831197","0.0-8.0-3.12","zduy660dv5","one_one","1","indirect_first","0","na07ut02","0","27","1","1","3","2","Die Teilnahme war sehr interessant. Ein paar Mal kamen mir die Symbole bekannt vor, doch viele waren bei den letzteren Aufgaben neu. Danke für die Studie!","0","1","0","1485","","","<img src = 'targets/mask.png' width = '100%;'>","68","pos","GS","GSold","2","category2/CS6.png","targets/39.png","0","indirect","12",""
"","html-keyboard-response","142","832698","0.0-8.0-0.13","zduy660dv5","one_one","1","indirect_first","0","na07ut02","0","27","1","1","3","2","Die Teilnahme war sehr interessant. Ein paar Mal kamen mir die Symbole bekannt vor, doch viele waren bei den letzteren Aufgaben neu. Danke für die Studie!","0","1","0","null","","","<div style=""font-size:60px;"">+</div>","null","","","","","","","","","",""
"","html-keyboard-response","143","832790","0.0-8.0-1.13","zduy660dv5","one_one","1","indirect_first","0","na07ut02","0","27","1","1","3","2","Die Teilnahme war sehr interessant. Ein paar Mal kamen mir die Symbole bekannt vor, doch viele waren bei den letzteren Aufgaben neu. Danke für die Studie!","0","1","0","null","","","<img src = 'category3/CS7.png' width = '100%;'>","null","","","","","","","","","",""
"","html-keyboard-response","144","833042","0.0-8.0-2.13","zduy660dv5","one_one","1","indirect_first","0","na07ut02","0","27","1","1","3","2","Die Teilnahme war sehr interessant. Ein paar Mal kamen mir die Symbole bekannt vor, doch viele waren bei den letzteren Aufgaben neu. Danke für die Studie!","0","1","0","null","","","<img src = 'targets/46.png' width = '100%;'>","null","","","","","","","","","",""
"","html-keyboard-response","145","834558","0.0-8.0-3.13","zduy660dv5","one_one","1","indirect_first","0","na07ut02","0","27","1","1","3","2","Die Teilnahme war sehr interessant. Ein paar Mal kamen mir die Symbole bekannt vor, doch viele waren bei den letzteren Aufgaben neu. Danke für die Studie!","0","1","0","1514","","","<img src = 'targets/mask.png' width = '100%;'>","75","neg","GS","GSold","3","category3/CS7.png","targets/46.png","1","indirect","13",""
"","html-keyboard-response","146","836061","0.0-8.0-0.14","zduy660dv5","one_one","1","indirect_first","0","na07ut02","0","27","1","1","3","2","Die Teilnahme war sehr interessant. Ein paar Mal kamen mir die Symbole bekannt vor, doch viele waren bei den letzteren Aufgaben neu. Danke für die Studie!","0","1","0","null","","","<div style=""font-size:60px;"">+</div>","null","","","","","","","","","",""
"","html-keyboard-response","147","836153","0.0-8.0-1.14","zduy660dv5","one_one","1","indirect_first","0","na07ut02","0","27","1","1","3","2","Die Teilnahme war sehr interessant. Ein paar Mal kamen mir die Symbole bekannt vor, doch viele waren bei den letzteren Aufgaben neu. Danke für die Studie!","0","1","0","null","","","<img src = 'category2/CS3.png' width = '100%;'>","null","","","","","","","","","",""
"","html-keyboard-response","148","836406","0.0-8.0-2.14","zduy660dv5","one_one","1","indirect_first","0","na07ut02","0","27","1","1","3","2","Die Teilnahme war sehr interessant. Ein paar Mal kamen mir die Symbole bekannt vor, doch viele waren bei den letzteren Aufgaben neu. Danke für die Studie!","0","1","0","null","","","<img src = 'targets/36.png' width = '100%;'>","null","","","","","","","","","",""
"","html-keyboard-response","149","837064","0.0-8.0-3.14","zduy660dv5","one_one","1","indirect_first","0","na07ut02","0","27","1","1","3","2","Die Teilnahme war sehr interessant. Ein paar Mal kamen mir die Symbole bekannt vor, doch viele waren bei den letzteren Aufgaben neu. Danke für die Studie!","0","1","0","659","","","<img src = 'targets/mask.png' width = '100%;'>","75","pos","GS","GSold","2","category2/CS3.png","targets/36.png","1","indirect","14",""
"","html-keyboard-response","150","838566","0.0-8.0-0.15","zduy660dv5","one_one","1","indirect_first","0","na07ut02","0","27","1","1","3","2","Die Teilnahme war sehr interessant. Ein paar Mal kamen mir die Symbole bekannt vor, doch viele waren bei den letzteren Aufgaben neu. Danke für die Studie!","0","1","0","null","","","<div style=""font-size:60px;"">+</div>","null","","","","","","","","","",""
"","html-keyboard-response","151","838656","0.0-8.0-1.15","zduy660dv5","one_one","1","indirect_first","0","na07ut02","0","27","1","1","3","2","Die Teilnahme war sehr interessant. Ein paar Mal kamen mir die Symbole bekannt vor, doch viele waren bei den letzteren Aufgaben neu. Danke für die Studie!","0","1","0","null","","","<img src = 'category1/CS10.png' width = '100%;'>","null","","","","","","","","","",""
"","html-keyboard-response","152","838909","0.0-8.0-2.15","zduy660dv5","one_one","1","indirect_first","0","na07ut02","0","27","1","1","3","2","Die Teilnahme war sehr interessant. Ein paar Mal kamen mir die Symbole bekannt vor, doch viele waren bei den letzteren Aufgaben neu. Danke für die Studie!","0","1","0","null","","","<img src = 'targets/15.png' width = '100%;'>","null","","","","","","","","","",""
"","html-keyboard-response","153","840003","0.0-8.0-3.15","zduy660dv5","one_one","1","indirect_first","0","na07ut02","0","27","1","1","3","2","Die Teilnahme war sehr interessant. Ein paar Mal kamen mir die Symbole bekannt vor, doch viele waren bei den letzteren Aufgaben neu. Danke für die Studie!","0","1","0","1093","","","<img src = 'targets/mask.png' width = '100%;'>","75","pos","CS","CS","1","category1/CS10.png","targets/15.png","1","indirect","15",""
"","survey-html-form","154","842692","0.0-9.0","zduy660dv5","one_one","1","indirect_first","0","na07ut02","0","27","1","1","3","2","Die Teilnahme war sehr interessant. Ein paar Mal kamen mir die Symbole bekannt vor, doch viele waren bei den letzteren Aufgaben neu. Danke für die Studie!","0","1","0","2188","","{}","","","","","","","","","","","",""
"","html-keyboard-response","155","845695","0.0-10.0-0.0","zduy660dv5","one_one","1","indirect_first","0","na07ut02","0","27","1","1","3","2","Die Teilnahme war sehr interessant. Ein paar Mal kamen mir die Symbole bekannt vor, doch viele waren bei den letzteren Aufgaben neu. Danke für die Studie!","0","1","0","null","","","<div style=""font-size:60px;"">+</div>","null","","","","","","","","","",""
"","html-keyboard-response","156","845787","0.0-10.0-1.0","zduy660dv5","one_one","1","indirect_first","0","na07ut02","0","27","1","1","3","2","Die Teilnahme war sehr interessant. Ein paar Mal kamen mir die Symbole bekannt vor, doch viele waren bei den letzteren Aufgaben neu. Danke für die Studie!","0","1","0","null","","","<img src = 'category1/GS2.png' width = '100%;'>","null","","","","","","","","","",""
"","html-keyboard-response","157","846039","0.0-10.0-2.0","zduy660dv5","one_one","1","indirect_first","0","na07ut02","0","27","1","1","3","2","Die Teilnahme war sehr interessant. Ein paar Mal kamen mir die Symbole bekannt vor, doch viele waren bei den letzteren Aufgaben neu. Danke für die Studie!","0","1","0","null","","","<img src = 'targets/9.png' width = '100%;'>","null","","","","","","","","","",""
"","html-keyboard-response","158","847054","0.0-10.0-3.0","zduy660dv5","one_one","1","indirect_first","0","na07ut02","0","27","1","1","3","2","Die Teilnahme war sehr interessant. Ein paar Mal kamen mir die Symbole bekannt vor, doch viele waren bei den letzteren Aufgaben neu. Danke für die Studie!","0","1","0","1012","","","<img src = 'targets/mask.png' width = '100%;'>","75","pos","GS","GSnew","1","category1/GS2.png","targets/9.png","1","indirect","16",""
"","html-keyboard-response","159","848556","0.0-10.0-0.1","zduy660dv5","one_one","1","indirect_first","0","na07ut02","0","27","1","1","3","2","Die Teilnahme war sehr interessant. Ein paar Mal kamen mir die Symbole bekannt vor, doch viele waren bei den letzteren Aufgaben neu. Danke für die Studie!","0","1","0","null","","","<div style=""font-size:60px;"">+</div>","null","","","","","","","","","",""
"","html-keyboard-response","160","848647","0.0-10.0-1.1","zduy660dv5","one_one","1","indirect_first","0","na07ut02","0","27","1","1","3","2","Die Teilnahme war sehr interessant. Ein paar Mal kamen mir die Symbole bekannt vor, doch viele waren bei den letzteren Aufgaben neu. Danke für die Studie!","0","1","0","null","","","<img src = 'category2/GS1.png' width = '100%;'>","null","","","","","","","","","",""
"","html-keyboard-response","161","848899","0.0-10.0-2.1","zduy660dv5","one_one","1","indirect_first","0","na07ut02","0","27","1","1","3","2","Die Teilnahme war sehr interessant. Ein paar Mal kamen mir die Symbole bekannt vor, doch viele waren bei den letzteren Aufgaben neu. Danke für die Studie!","0","1","0","null","","","<img src = 'targets/6.png' width = '100%;'>","null","","","","","","","","","",""
"","html-keyboard-response","162","850158","0.0-10.0-3.1","zduy660dv5","one_one","1","indirect_first","0","na07ut02","0","27","1","1","3","2","Die Teilnahme war sehr interessant. Ein paar Mal kamen mir die Symbole bekannt vor, doch viele waren bei den letzteren Aufgaben neu. Danke für die Studie!","0","1","0","1258","","","<img src = 'targets/mask.png' width = '100%;'>","68","pos","GS","GSnew","2","category2/GS1.png","targets/6.png","0","indirect","17",""
"","html-keyboard-response","163","851660","0.0-10.0-0.2","zduy660dv5","one_one","1","indirect_first","0","na07ut02","0","27","1","1","3","2","Die Teilnahme war sehr interessant. Ein paar Mal kamen mir die Symbole bekannt vor, doch viele waren bei den letzteren Aufgaben neu. Danke für die Studie!","0","1","0","null","","","<div style=""font-size:60px;"">+</div>","null","","","","","","","","","",""
"","html-keyboard-response","164","851751","0.0-10.0-1.2","zduy660dv5","one_one","1","indirect_first","0","na07ut02","0","27","1","1","3","2","Die Teilnahme war sehr interessant. Ein paar Mal kamen mir die Symbole bekannt vor, doch viele waren bei den letzteren Aufgaben neu. Danke für die Studie!","0","1","0","null","","","<img src = 'category1/GS3.png' width = '100%;'>","null","","","","","","","","","",""
"","html-keyboard-response","165","852003","0.0-10.0-2.2","zduy660dv5","one_one","1","indirect_first","0","na07ut02","0","27","1","1","3","2","Die Teilnahme war sehr interessant. Ein paar Mal kamen mir die Symbole bekannt vor, doch viele waren bei den letzteren Aufgaben neu. Danke für die Studie!","0","1","0","null","","","<img src = 'targets/27.png' width = '100%;'>","null","","","","","","","","","",""
"","html-keyboard-response","166","853516","0.0-10.0-3.2","zduy660dv5","one_one","1","indirect_first","0","na07ut02","0","27","1","1","3","2","Die Teilnahme war sehr interessant. Ein paar Mal kamen mir die Symbole bekannt vor, doch viele waren bei den letzteren Aufgaben neu. Danke für die Studie!","0","1","0","1512","","","<img src = 'targets/mask.png' width = '100%;'>","68","pos","GS","GSnew","1","category1/GS3.png","targets/27.png","0","indirect","18",""
"","html-keyboard-response","167","855019","0.0-10.0-0.3","zduy660dv5","one_one","1","indirect_first","0","na07ut02","0","27","1","1","3","2","Die Teilnahme war sehr interessant. Ein paar Mal kamen mir die Symbole bekannt vor, doch viele waren bei den letzteren Aufgaben neu. Danke für die Studie!","0","1","0","null","","","<div style=""font-size:60px;"">+</div>","null","","","","","","","","","",""
"","html-keyboard-response","168","855110","0.0-10.0-1.3","zduy660dv5","one_one","1","indirect_first","0","na07ut02","0","27","1","1","3","2","Die Teilnahme war sehr interessant. Ein paar Mal kamen mir die Symbole bekannt vor, doch viele waren bei den letzteren Aufgaben neu. Danke für die Studie!","0","1","0","null","","","<img src = 'category2/men.png' width = '100%;'>","null","","","","","","","","","",""
"","html-keyboard-response","169","855363","0.0-10.0-2.3","zduy660dv5","one_one","1","indirect_first","0","na07ut02","0","27","1","1","3","2","Die Teilnahme war sehr interessant. Ein paar Mal kamen mir die Symbole bekannt vor, doch viele waren bei den letzteren Aufgaben neu. Danke für die Studie!","0","1","0","null","","","<img src = 'targets/23.png' width = '100%;'>","null","","","","","","","","","",""
"","html-keyboard-response","170","857198","0.0-10.0-3.3","zduy660dv5","one_one","1","indirect_first","0","na07ut02","0","27","1","1","3","2","Die Teilnahme war sehr interessant. Ein paar Mal kamen mir die Symbole bekannt vor, doch viele waren bei den letzteren Aufgaben neu. Danke für die Studie!","0","1","0","1834","","","<img src = 'targets/mask.png' width = '100%;'>","75","pos","GS","abstract","2","category2/men.png","targets/23.png","1","indirect","19",""
"","html-keyboard-response","171","858702","0.0-10.0-0.4","zduy660dv5","one_one","1","indirect_first","0","na07ut02","0","27","1","1","3","2","Die Teilnahme war sehr interessant. Ein paar Mal kamen mir die Symbole bekannt vor, doch viele waren bei den letzteren Aufgaben neu. Danke für die Studie!","0","1","0","null","","","<div style=""font-size:60px;"">+</div>","null","","","","","","","","","",""
"","html-keyboard-response","172","858794","0.0-10.0-1.4","zduy660dv5","one_one","1","indirect_first","0","na07ut02","0","27","1","1","3","2","Die Teilnahme war sehr interessant. Ein paar Mal kamen mir die Symbole bekannt vor, doch viele waren bei den letzteren Aufgaben neu. Danke für die Studie!","0","1","0","null","","","<img src = 'category3/GS2.png' width = '100%;'>","null","","","","","","","","","",""
"","html-keyboard-response","173","859045","0.0-10.0-2.4","zduy660dv5","one_one","1","indirect_first","0","na07ut02","0","27","1","1","3","2","Die Teilnahme war sehr interessant. Ein paar Mal kamen mir die Symbole bekannt vor, doch viele waren bei den letzteren Aufgaben neu. Danke für die Studie!","0","1","0","null","","","<img src = 'targets/37.png' width = '100%;'>","null","","","","","","","","","",""
"","html-keyboard-response","174","860509","0.0-10.0-3.4","zduy660dv5","one_one","1","indirect_first","0","na07ut02","0","27","1","1","3","2","Die Teilnahme war sehr interessant. Ein paar Mal kamen mir die Symbole bekannt vor, doch viele waren bei den letzteren Aufgaben neu. Danke für die Studie!","0","1","0","1464","","","<img src = 'targets/mask.png' width = '100%;'>","68","neg","GS","GSnew","3","category3/GS2.png","targets/37.png","0","indirect","20",""
"","html-keyboard-response","175","862011","0.0-10.0-0.5","zduy660dv5","one_one","1","indirect_first","0","na07ut02","0","27","1","1","3","2","Die Teilnahme war sehr interessant. Ein paar Mal kamen mir die Symbole bekannt vor, doch viele waren bei den letzteren Aufgaben neu. Danke für die Studie!","0","1","0","null","","","<div style=""font-size:60px;"">+</div>","null","","","","","","","","","",""
"","html-keyboard-response","176","862103","0.0-10.0-1.5","zduy660dv5","one_one","1","indirect_first","0","na07ut02","0","27","1","1","3","2","Die Teilnahme war sehr interessant. Ein paar Mal kamen mir die Symbole bekannt vor, doch viele waren bei den letzteren Aufgaben neu. Danke für die Studie!","0","1","0","null","","","<img src = 'category1/GS1.png' width = '100%;'>","null","","","","","","","","","",""
"","html-keyboard-response","177","862355","0.0-10.0-2.5","zduy660dv5","one_one","1","indirect_first","0","na07ut02","0","27","1","1","3","2","Die Teilnahme war sehr interessant. Ein paar Mal kamen mir die Symbole bekannt vor, doch viele waren bei den letzteren Aufgaben neu. Danke für die Studie!","0","1","0","null","","","<img src = 'targets/40.png' width = '100%;'>","null","","","","","","","","","",""
"","html-keyboard-response","178","862749","0.0-10.0-3.5","zduy660dv5","one_one","1","indirect_first","0","na07ut02","0","27","1","1","3","2","Die Teilnahme war sehr interessant. Ein paar Mal kamen mir die Symbole bekannt vor, doch viele waren bei den letzteren Aufgaben neu. Danke für die Studie!","0","1","0","393","","","<img src = 'targets/mask.png' width = '100%;'>","75","pos","GS","GSnew","1","category1/GS1.png","targets/40.png","1","indirect","21",""
"","html-keyboard-response","179","864250","0.0-10.0-0.6","zduy660dv5","one_one","1","indirect_first","0","na07ut02","0","27","1","1","3","2","Die Teilnahme war sehr interessant. Ein paar Mal kamen mir die Symbole bekannt vor, doch viele waren bei den letzteren Aufgaben neu. Danke für die Studie!","0","1","0","null","","","<div style=""font-size:60px;"">+</div>","null","","","","","","","","","",""
"","html-keyboard-response","180","864343","0.0-10.0-1.6","zduy660dv5","one_one","1","indirect_first","0","na07ut02","0","27","1","1","3","2","Die Teilnahme war sehr interessant. Ein paar Mal kamen mir die Symbole bekannt vor, doch viele waren bei den letzteren Aufgaben neu. Danke für die Studie!","0","1","0","null","","","<img src = 'category1/ma.png' width = '100%;'>","null","","","","","","","","","",""
"","html-keyboard-response","181","864595","0.0-10.0-2.6","zduy660dv5","one_one","1","indirect_first","0","na07ut02","0","27","1","1","3","2","Die Teilnahme war sehr interessant. Ein paar Mal kamen mir die Symbole bekannt vor, doch viele waren bei den letzteren Aufgaben neu. Danke für die Studie!","0","1","0","null","","","<img src = 'targets/29.png' width = '100%;'>","null","","","","","","","","","",""
"","html-keyboard-response","182","865226","0.0-10.0-3.6","zduy660dv5","one_one","1","indirect_first","0","na07ut02","0","27","1","1","3","2","Die Teilnahme war sehr interessant. Ein paar Mal kamen mir die Symbole bekannt vor, doch viele waren bei den letzteren Aufgaben neu. Danke für die Studie!","0","1","0","631","","","<img src = 'targets/mask.png' width = '100%;'>","68","pos","GS","abstract","1","category1/ma.png","targets/29.png","0","indirect","22",""
"","html-keyboard-response","183","866727","0.0-10.0-0.7","zduy660dv5","one_one","1","indirect_first","0","na07ut02","0","27","1","1","3","2","Die Teilnahme war sehr interessant. Ein paar Mal kamen mir die Symbole bekannt vor, doch viele waren bei den letzteren Aufgaben neu. Danke für die Studie!","0","1","0","null","","","<div style=""font-size:60px;"">+</div>","null","","","","","","","","","",""
"","html-keyboard-response","184","866818","0.0-10.0-1.7","zduy660dv5","one_one","1","indirect_first","0","na07ut02","0","27","1","1","3","2","Die Teilnahme war sehr interessant. Ein paar Mal kamen mir die Symbole bekannt vor, doch viele waren bei den letzteren Aufgaben neu. Danke für die Studie!","0","1","0","null","","","<img src = 'category3/wang.png' width = '100%;'>","null","","","","","","","","","",""
"","html-keyboard-response","185","867069","0.0-10.0-2.7","zduy660dv5","one_one","1","indirect_first","0","na07ut02","0","27","1","1","3","2","Die Teilnahme war sehr interessant. Ein paar Mal kamen mir die Symbole bekannt vor, doch viele waren bei den letzteren Aufgaben neu. Danke für die Studie!","0","1","0","null","","","<img src = 'targets/19.png' width = '100%;'>","null","","","","","","","","","",""
"","html-keyboard-response","186","868712","0.0-10.0-3.7","zduy660dv5","one_one","1","indirect_first","0","na07ut02","0","27","1","1","3","2","Die Teilnahme war sehr interessant. Ein paar Mal kamen mir die Symbole bekannt vor, doch viele waren bei den letzteren Aufgaben neu. Danke für die Studie!","0","1","0","1641","","","<img src = 'targets/mask.png' width = '100%;'>","75","neg","GS","abstract","3","category3/wang.png","targets/19.png","1","indirect","23",""
"","html-keyboard-response","187","870214","0.0-10.0-0.8","zduy660dv5","one_one","1","indirect_first","0","na07ut02","0","27","1","1","3","2","Die Teilnahme war sehr interessant. Ein paar Mal kamen mir die Symbole bekannt vor, doch viele waren bei den letzteren Aufgaben neu. Danke für die Studie!","0","1","0","null","","","<div style=""font-size:60px;"">+</div>","null","","","","","","","","","",""
"","html-keyboard-response","188","870306","0.0-10.0-1.8","zduy660dv5","one_one","1","indirect_first","0","na07ut02","0","27","1","1","3","2","Die Teilnahme war sehr interessant. Ein paar Mal kamen mir die Symbole bekannt vor, doch viele waren bei den letzteren Aufgaben neu. Danke für die Studie!","0","1","0","null","","","<img src = 'category4/lin.png' width = '100%;'>","null","","","","","","","","","",""
"","html-keyboard-response","189","870557","0.0-10.0-2.8","zduy660dv5","one_one","1","indirect_first","0","na07ut02","0","27","1","1","3","2","Die Teilnahme war sehr interessant. Ein paar Mal kamen mir die Symbole bekannt vor, doch viele waren bei den letzteren Aufgaben neu. Danke für die Studie!","0","1","0","null","","","<img src = 'targets/11.png' width = '100%;'>","null","","","","","","","","","",""
"","html-keyboard-response","190","871901","0.0-10.0-3.8","zduy660dv5","one_one","1","indirect_first","0","na07ut02","0","27","1","1","3","2","Die Teilnahme war sehr interessant. Ein paar Mal kamen mir die Symbole bekannt vor, doch viele waren bei den letzteren Aufgaben neu. Danke für die Studie!","0","1","0","1341","","","<img src = 'targets/mask.png' width = '100%;'>","75","neg","GS","abstract","4","category4/lin.png","targets/11.png","1","indirect","24",""
"","html-keyboard-response","191","873403","0.0-10.0-0.9","zduy660dv5","one_one","1","indirect_first","0","na07ut02","0","27","1","1","3","2","Die Teilnahme war sehr interessant. Ein paar Mal kamen mir die Symbole bekannt vor, doch viele waren bei den letzteren Aufgaben neu. Danke für die Studie!","0","1","0","null","","","<div style=""font-size:60px;"">+</div>","null","","","","","","","","","",""
"","html-keyboard-response","192","873494","0.0-10.0-1.9","zduy660dv5","one_one","1","indirect_first","0","na07ut02","0","27","1","1","3","2","Die Teilnahme war sehr interessant. Ein paar Mal kamen mir die Symbole bekannt vor, doch viele waren bei den letzteren Aufgaben neu. Danke für die Studie!","0","1","0","null","","","<img src = 'category3/GS1.png' width = '100%;'>","null","","","","","","","","","",""
"","html-keyboard-response","193","873745","0.0-10.0-2.9","zduy660dv5","one_one","1","indirect_first","0","na07ut02","0","27","1","1","3","2","Die Teilnahme war sehr interessant. Ein paar Mal kamen mir die Symbole bekannt vor, doch viele waren bei den letzteren Aufgaben neu. Danke für die Studie!","0","1","0","null","","","<img src = 'targets/33.png' width = '100%;'>","null","","","","","","","","","",""
"","html-keyboard-response","194","874543","0.0-10.0-3.9","zduy660dv5","one_one","1","indirect_first","0","na07ut02","0","27","1","1","3","2","Die Teilnahme war sehr interessant. Ein paar Mal kamen mir die Symbole bekannt vor, doch viele waren bei den letzteren Aufgaben neu. Danke für die Studie!","0","1","0","797","","","<img src = 'targets/mask.png' width = '100%;'>","75","neg","GS","GSnew","3","category3/GS1.png","targets/33.png","1","indirect","25",""
"","html-keyboard-response","195","876046","0.0-10.0-0.10","zduy660dv5","one_one","1","indirect_first","0","na07ut02","0","27","1","1","3","2","Die Teilnahme war sehr interessant. Ein paar Mal kamen mir die Symbole bekannt vor, doch viele waren bei den letzteren Aufgaben neu. Danke für die Studie!","0","1","0","null","","","<div style=""font-size:60px;"">+</div>","null","","","","","","","","","",""
"","html-keyboard-response","196","876136","0.0-10.0-1.10","zduy660dv5","one_one","1","indirect_first","0","na07ut02","0","27","1","1","3","2","Die Teilnahme war sehr interessant. Ein paar Mal kamen mir die Symbole bekannt vor, doch viele waren bei den letzteren Aufgaben neu. Danke für die Studie!","0","1","0","null","","","<img src = 'category2/GS3.png' width = '100%;'>","null","","","","","","","","","",""
"","html-keyboard-response","197","876388","0.0-10.0-2.10","zduy660dv5","one_one","1","indirect_first","0","na07ut02","0","27","1","1","3","2","Die Teilnahme war sehr interessant. Ein paar Mal kamen mir die Symbole bekannt vor, doch viele waren bei den letzteren Aufgaben neu. Danke für die Studie!","0","1","0","null","","","<img src = 'targets/28.png' width = '100%;'>","null","","","","","","","","","",""
"","html-keyboard-response","198","878096","0.0-10.0-3.10","zduy660dv5","one_one","1","indirect_first","0","na07ut02","0","27","1","1","3","2","Die Teilnahme war sehr interessant. Ein paar Mal kamen mir die Symbole bekannt vor, doch viele waren bei den letzteren Aufgaben neu. Danke für die Studie!","0","1","0","1707","","","<img src = 'targets/mask.png' width = '100%;'>","68","pos","GS","GSnew","2","category2/GS3.png","targets/28.png","0","indirect","26",""
"","html-keyboard-response","199","879596","0.0-10.0-0.11","zduy660dv5","one_one","1","indirect_first","0","na07ut02","0","27","1","1","3","2","Die Teilnahme war sehr interessant. Ein paar Mal kamen mir die Symbole bekannt vor, doch viele waren bei den letzteren Aufgaben neu. Danke für die Studie!","0","1","0","null","","","<div style=""font-size:60px;"">+</div>","null","","","","","","","","","",""
"","html-keyboard-response","200","879688","0.0-10.0-1.11","zduy660dv5","one_one","1","indirect_first","0","na07ut02","0","27","1","1","3","2","Die Teilnahme war sehr interessant. Ein paar Mal kamen mir die Symbole bekannt vor, doch viele waren bei den letzteren Aufgaben neu. Danke für die Studie!","0","1","0","null","","","<img src = 'category3/GS3.png' width = '100%;'>","null","","","","","","","","","",""
"","html-keyboard-response","201","879940","0.0-10.0-2.11","zduy660dv5","one_one","1","indirect_first","0","na07ut02","0","27","1","1","3","2","Die Teilnahme war sehr interessant. Ein paar Mal kamen mir die Symbole bekannt vor, doch viele waren bei den letzteren Aufgaben neu. Danke für die Studie!","0","1","0","null","","","<img src = 'targets/45.png' width = '100%;'>","null","","","","","","","","","",""
"","html-keyboard-response","202","880656","0.0-10.0-3.11","zduy660dv5","one_one","1","indirect_first","0","na07ut02","0","27","1","1","3","2","Die Teilnahme war sehr interessant. Ein paar Mal kamen mir die Symbole bekannt vor, doch viele waren bei den letzteren Aufgaben neu. Danke für die Studie!","0","1","0","716","","","<img src = 'targets/mask.png' width = '100%;'>","68","neg","GS","GSnew","3","category3/GS3.png","targets/45.png","0","indirect","27",""
"","html-keyboard-response","203","882157","0.0-10.0-0.12","zduy660dv5","one_one","1","indirect_first","0","na07ut02","0","27","1","1","3","2","Die Teilnahme war sehr interessant. Ein paar Mal kamen mir die Symbole bekannt vor, doch viele waren bei den letzteren Aufgaben neu. Danke für die Studie!","0","1","0","null","","","<div style=""font-size:60px;"">+</div>","null","","","","","","","","","",""
"","html-keyboard-response","204","882249","0.0-10.0-1.12","zduy660dv5","one_one","1","indirect_first","0","na07ut02","0","27","1","1","3","2","Die Teilnahme war sehr interessant. Ein paar Mal kamen mir die Symbole bekannt vor, doch viele waren bei den letzteren Aufgaben neu. Danke für die Studie!","0","1","0","null","","","<img src = 'category2/GS2.png' width = '100%;'>","null","","","","","","","","","",""
"","html-keyboard-response","205","882501","0.0-10.0-2.12","zduy660dv5","one_one","1","indirect_first","0","na07ut02","0","27","1","1","3","2","Die Teilnahme war sehr interessant. Ein paar Mal kamen mir die Symbole bekannt vor, doch viele waren bei den letzteren Aufgaben neu. Danke für die Studie!","0","1","0","null","","","<img src = 'targets/48.png' width = '100%;'>","null","","","","","","","","","",""
"","html-keyboard-response","206","882995","0.0-10.0-3.12","zduy660dv5","one_one","1","indirect_first","0","na07ut02","0","27","1","1","3","2","Die Teilnahme war sehr interessant. Ein paar Mal kamen mir die Symbole bekannt vor, doch viele waren bei den letzteren Aufgaben neu. Danke für die Studie!","0","1","0","493","","","<img src = 'targets/mask.png' width = '100%;'>","75","pos","GS","GSnew","2","category2/GS2.png","targets/48.png","1","indirect","28",""
"","html-keyboard-response","207","884496","0.0-10.0-0.13","zduy660dv5","one_one","1","indirect_first","0","na07ut02","0","27","1","1","3","2","Die Teilnahme war sehr interessant. Ein paar Mal kamen mir die Symbole bekannt vor, doch viele waren bei den letzteren Aufgaben neu. Danke für die Studie!","0","1","0","null","","","<div style=""font-size:60px;"">+</div>","null","","","","","","","","","",""
"","html-keyboard-response","208","884588","0.0-10.0-1.13","zduy660dv5","one_one","1","indirect_first","0","na07ut02","0","27","1","1","3","2","Die Teilnahme war sehr interessant. Ein paar Mal kamen mir die Symbole bekannt vor, doch viele waren bei den letzteren Aufgaben neu. Danke für die Studie!","0","1","0","null","","","<img src = 'category4/GS2.png' width = '100%;'>","null","","","","","","","","","",""
