"success","trial_type","trial_index","time_elapsed","internal_node_id","subject","condition","condition_code","measure","measure_code","codeword","gender","age","education","chinese","fach","handedness","comment","hinschauen","ablenkung","gewissenhaft","rt","url","responses","stimulus","key_press","val","type","type_specific","category","cs_selected","response","target","task","indirect","nr_pres"
"true","fullscreen","0","7891","0.0-0.0","mkfk8l3zcd","many_one","0","direct_first","1","nn06er03","0","19","1","1","3","1","sehr interessant!","0","1","0","","","","","","","","","","","","","","",""
"","external-html","1","14781","0.0-1.0","mkfk8l3zcd","many_one","0","direct_first","1","nn06er03","0","19","1","1","3","1","sehr interessant!","0","1","0","6493.699999991804","text/information.html","","","","","","","","","","","","",""
"","external-html","2","25328","0.0-2.0","mkfk8l3zcd","many_one","0","direct_first","1","nn06er03","0","19","1","1","3","1","sehr interessant!","0","1","0","10369.300000136718","text/consent.html","","","","","","","","","","","","",""
"","survey-html-form","3","80381","0.0-3.0","mkfk8l3zcd","many_one","0","direct_first","1","nn06er03","0","19","1","1","3","1","sehr interessant!","0","1","0","55046.69999983162","","{""codeword_enter"":""nn06er03""}","","","","","","","","","","","",""
"","survey-html-form","4","97553","0.0-4.0","mkfk8l3zcd","many_one","0","direct_first","1","nn06er03","0","19","1","1","3","1","sehr interessant!","0","1","0","17165.699999779463","","{""age"":""19"",""education"":""1"",""subject"":""3"",""gender"":""0"",""handedness"":""1"",""chinese"":""1""}","","","","","","","","","","","",""
"","survey-html-form","5","104768","0.0-5.0","mkfk8l3zcd","many_one","0","direct_first","1","nn06er03","0","19","1","1","3","1","sehr interessant!","0","1","0","7210.59999987483","","{}","","","","","","","","","","","",""
"","html-keyboard-response","6","108797","0.0-6.0-0.0-0.0","mkfk8l3zcd","many_one","0","direct_first","1","nn06er03","0","19","1","1","3","1","sehr interessant!","0","1","0","null","","","<div class = 'row'><div class = 'column'><img src = 'category2/CS10.png' width = '70%;'></div><div class = 'column'><img src = 'usneg/9182.bmp' width = '100%;'></div></div>","null","neg","CS","CS","2","category2/CS10.png","","","","",""
"","html-keyboard-response","7","111313","0.0-6.0-0.0-0.1","mkfk8l3zcd","many_one","0","direct_first","1","nn06er03","0","19","1","1","3","1","sehr interessant!","0","1","0","null","","","<div class = 'row'><div class = 'column'><img src = 'uspos/1340.bmp' width = '100%;'></div><div class = 'column'><img src = 'category4/CS1.png' width = '70%;'></div></div>","null","pos","CS","CS","4","category4/CS1.png","","","","",""
"","html-keyboard-response","8","113820","0.0-6.0-0.0-0.2","mkfk8l3zcd","many_one","0","direct_first","1","nn06er03","0","19","1","1","3","1","sehr interessant!","0","1","0","null","","","<div class = 'row'><div class = 'column'><img src = 'uspos/1710.bmp' width = '100%;'></div><div class = 'column'><img src = 'category1/CS9.png' width = '70%;'></div></div>","null","pos","CS","CS","1","category1/CS9.png","","","","",""
"","html-keyboard-response","9","116333","0.0-6.0-0.0-0.3","mkfk8l3zcd","many_one","0","direct_first","1","nn06er03","0","19","1","1","3","1","sehr interessant!","0","1","0","null","","","<div class = 'row'><div class = 'column'><img src = 'category1/CS7.png' width = '70%;'></div><div class = 'column'><img src = 'uspos/2530.bmp' width = '100%;'></div></div>","null","pos","CS","CS","1","category1/CS7.png","","","","",""
"","html-keyboard-response","10","118848","0.0-6.0-0.0-0.4","mkfk8l3zcd","many_one","0","direct_first","1","nn06er03","0","19","1","1","3","1","sehr interessant!","0","1","0","null","","","<div class = 'row'><div class = 'column'><img src = 'usneg/9050.bmp' width = '100%;'></div><div class = 'column'><img src = 'category2/CS2.png' width = '70%;'></div></div>","null","neg","CS","CS","2","category2/CS2.png","","","","",""
"","html-keyboard-response","11","121360","0.0-6.0-0.0-0.5","mkfk8l3zcd","many_one","0","direct_first","1","nn06er03","0","19","1","1","3","1","sehr interessant!","0","1","0","null","","","<div class = 'row'><div class = 'column'><img src = 'uspos/5760.bmp' width = '100%;'></div><div class = 'column'><img src = 'category1/CS3.png' width = '70%;'></div></div>","null","pos","CS","CS","1","category1/CS3.png","","","","",""
"","html-keyboard-response","12","123871","0.0-6.0-0.0-0.6","mkfk8l3zcd","many_one","0","direct_first","1","nn06er03","0","19","1","1","3","1","sehr interessant!","0","1","0","null","","","<div class = 'row'><div class = 'column'><img src = 'usneg/9220.bmp' width = '100%;'></div><div class = 'column'><img src = 'category2/CS7.png' width = '70%;'></div></div>","null","neg","CS","CS","2","category2/CS7.png","","","","",""
"","html-keyboard-response","13","126383","0.0-6.0-0.0-0.7","mkfk8l3zcd","many_one","0","direct_first","1","nn06er03","0","19","1","1","3","1","sehr interessant!","0","1","0","null","","","<div class = 'row'><div class = 'column'><img src = 'uspos/2311.bmp' width = '100%;'></div><div class = 'column'><img src = 'category4/CS10.png' width = '70%;'></div></div>","null","pos","CS","CS","4","category4/CS10.png","","","","",""
"","html-keyboard-response","14","128899","0.0-6.0-0.0-0.8","mkfk8l3zcd","many_one","0","direct_first","1","nn06er03","0","19","1","1","3","1","sehr interessant!","0","1","0","null","","","<div class = 'row'><div class = 'column'><img src = 'uspos/2165.bmp' width = '100%;'></div><div class = 'column'><img src = 'category4/CS2.png' width = '70%;'></div></div>","null","pos","CS","CS","4","category4/CS2.png","","","","",""
"","html-keyboard-response","15","131410","0.0-6.0-0.0-0.9","mkfk8l3zcd","many_one","0","direct_first","1","nn06er03","0","19","1","1","3","1","sehr interessant!","0","1","0","null","","","<div class = 'row'><div class = 'column'><img src = 'category4/CS6.png' width = '70%;'></div><div class = 'column'><img src = 'uspos/5621.bmp' width = '100%;'></div></div>","null","pos","CS","CS","4","category4/CS6.png","","","","",""
"","html-keyboard-response","16","133923","0.0-6.0-0.0-0.10","mkfk8l3zcd","many_one","0","direct_first","1","nn06er03","0","19","1","1","3","1","sehr interessant!","0","1","0","null","","","<div class = 'row'><div class = 'column'><img src = 'usneg/9041.bmp' width = '100%;'></div><div class = 'column'><img src = 'category3/CS1.png' width = '70%;'></div></div>","null","neg","CS","CS","3","category3/CS1.png","","","","",""
"","html-keyboard-response","17","136436","0.0-6.0-0.0-0.11","mkfk8l3zcd","many_one","0","direct_first","1","nn06er03","0","19","1","1","3","1","sehr interessant!","0","1","0","null","","","<div class = 'row'><div class = 'column'><img src = 'usneg/9180.bmp' width = '100%;'></div><div class = 'column'><img src = 'category2/CS4.png' width = '70%;'></div></div>","null","neg","CS","CS","2","category2/CS4.png","","","","",""
"","html-keyboard-response","18","138952","0.0-6.0-0.0-0.12","mkfk8l3zcd","many_one","0","direct_first","1","nn06er03","0","19","1","1","3","1","sehr interessant!","0","1","0","null","","","<div class = 'row'><div class = 'column'><img src = 'usneg/9340.bmp' width = '100%;'></div><div class = 'column'><img src = 'category3/CS4.png' width = '70%;'></div></div>","null","neg","CS","CS","3","category3/CS4.png","","","","",""
"","html-keyboard-response","19","141464","0.0-6.0-0.0-0.13","mkfk8l3zcd","many_one","0","direct_first","1","nn06er03","0","19","1","1","3","1","sehr interessant!","0","1","0","null","","","<div class = 'row'><div class = 'column'><img src = 'uspos/8540.bmp' width = '100%;'></div><div class = 'column'><img src = 'category1/CS5.png' width = '70%;'></div></div>","null","pos","CS","CS","1","category1/CS5.png","","","","",""
"","html-keyboard-response","20","143975","0.0-6.0-0.0-0.14","mkfk8l3zcd","many_one","0","direct_first","1","nn06er03","0","19","1","1","3","1","sehr interessant!","0","1","0","null","","","<div class = 'row'><div class = 'column'><img src = 'usneg/3300.bmp' width = '100%;'></div><div class = 'column'><img src = 'category3/CS6.png' width = '70%;'></div></div>","null","neg","CS","CS","3","category3/CS6.png","","","","",""
"","html-keyboard-response","21","146488","0.0-6.0-0.0-0.15","mkfk8l3zcd","many_one","0","direct_first","1","nn06er03","0","19","1","1","3","1","sehr interessant!","0","1","0","null","","","<div class = 'row'><div class = 'column'><img src = 'usneg/9920.bmp' width = '100%;'></div><div class = 'column'><img src = 'category3/CS9.png' width = '70%;'></div></div>","null","neg","CS","CS","3","category3/CS9.png","","","","",""
"","html-keyboard-response","22","149002","0.0-6.0-0.0-0.16","mkfk8l3zcd","many_one","0","direct_first","1","nn06er03","0","19","1","1","3","1","sehr interessant!","0","1","0","null","","","<div class = 'row'><div class = 'column'><img src = 'category1/CS8.png' width = '70%;'></div><div class = 'column'><img src = 'uspos/2030.bmp' width = '100%;'></div></div>","null","pos","CS","CS","1","category1/CS8.png","","","","",""
"","html-keyboard-response","23","151513","0.0-6.0-0.0-0.17","mkfk8l3zcd","many_one","0","direct_first","1","nn06er03","0","19","1","1","3","1","sehr interessant!","0","1","0","null","","","<div class = 'row'><div class = 'column'><img src = 'category2/CS9.png' width = '70%;'></div><div class = 'column'><img src = 'usneg/8485.bmp' width = '100%;'></div></div>","null","neg","CS","CS","2","category2/CS9.png","","","","",""
"","html-keyboard-response","24","154024","0.0-6.0-0.0-0.18","mkfk8l3zcd","many_one","0","direct_first","1","nn06er03","0","19","1","1","3","1","sehr interessant!","0","1","0","null","","","<div class = 'row'><div class = 'column'><img src = 'usneg/9584.bmp' width = '100%;'></div><div class = 'column'><img src = 'category3/CS8.png' width = '70%;'></div></div>","null","neg","CS","CS","3","category3/CS8.png","","","","",""
"","html-keyboard-response","25","156536","0.0-6.0-0.0-0.19","mkfk8l3zcd","many_one","0","direct_first","1","nn06er03","0","19","1","1","3","1","sehr interessant!","0","1","0","null","","","<div class = 'row'><div class = 'column'><img src = 'category4/CS9.png' width = '70%;'></div><div class = 'column'><img src = 'uspos/2900.2.bmp' width = '100%;'></div></div>","null","pos","CS","CS","4","category4/CS9.png","","","","",""
"","survey-html-form","26","159493","0.0-6.0-1.0","mkfk8l3zcd","many_one","0","direct_first","1","nn06er03","0","19","1","1","3","1","sehr interessant!","0","1","0","2449.900000123307","","{}","","","","","","","","","","","",""
"","html-keyboard-response","27","163511","0.0-6.0-2.0-0.0","mkfk8l3zcd","many_one","0","direct_first","1","nn06er03","0","19","1","1","3","1","sehr interessant!","0","1","0","null","","","<div class = 'row'><div class = 'column'><img src = 'uspos/2030.bmp' width = '100%;'></div><div class = 'column'><img src = 'category1/CS8.png' width = '70%;'></div></div>","null","pos","CS","CS","1","category1/CS8.png","","","","",""
"","html-keyboard-response","28","166025","0.0-6.0-2.0-0.1","mkfk8l3zcd","many_one","0","direct_first","1","nn06er03","0","19","1","1","3","1","sehr interessant!","0","1","0","null","","","<div class = 'row'><div class = 'column'><img src = 'uspos/2530.bmp' width = '100%;'></div><div class = 'column'><img src = 'category1/CS7.png' width = '70%;'></div></div>","null","pos","CS","CS","1","category1/CS7.png","","","","",""
"","html-keyboard-response","29","168531","0.0-6.0-2.0-0.2","mkfk8l3zcd","many_one","0","direct_first","1","nn06er03","0","19","1","1","3","1","sehr interessant!","0","1","0","null","","","<div class = 'row'><div class = 'column'><img src = 'uspos/2311.bmp' width = '100%;'></div><div class = 'column'><img src = 'category4/CS10.png' width = '70%;'></div></div>","null","pos","CS","CS","4","category4/CS10.png","","","","",""
"","html-keyboard-response","30","171043","0.0-6.0-2.0-0.3","mkfk8l3zcd","many_one","0","direct_first","1","nn06er03","0","19","1","1","3","1","sehr interessant!","0","1","0","null","","","<div class = 'row'><div class = 'column'><img src = 'uspos/5760.bmp' width = '100%;'></div><div class = 'column'><img src = 'category1/CS3.png' width = '70%;'></div></div>","null","pos","CS","CS","1","category1/CS3.png","","","","",""
"","html-keyboard-response","31","173559","0.0-6.0-2.0-0.4","mkfk8l3zcd","many_one","0","direct_first","1","nn06er03","0","19","1","1","3","1","sehr interessant!","0","1","0","null","","","<div class = 'row'><div class = 'column'><img src = 'usneg/9920.bmp' width = '100%;'></div><div class = 'column'><img src = 'category3/CS9.png' width = '70%;'></div></div>","null","neg","CS","CS","3","category3/CS9.png","","","","",""
"","html-keyboard-response","32","176071","0.0-6.0-2.0-0.5","mkfk8l3zcd","many_one","0","direct_first","1","nn06er03","0","19","1","1","3","1","sehr interessant!","0","1","0","null","","","<div class = 'row'><div class = 'column'><img src = 'usneg/9182.bmp' width = '100%;'></div><div class = 'column'><img src = 'category2/CS10.png' width = '70%;'></div></div>","null","neg","CS","CS","2","category2/CS10.png","","","","",""
"","html-keyboard-response","33","178583","0.0-6.0-2.0-0.6","mkfk8l3zcd","many_one","0","direct_first","1","nn06er03","0","19","1","1","3","1","sehr interessant!","0","1","0","null","","","<div class = 'row'><div class = 'column'><img src = 'uspos/2900.2.bmp' width = '100%;'></div><div class = 'column'><img src = 'category4/CS9.png' width = '70%;'></div></div>","null","pos","CS","CS","4","category4/CS9.png","","","","",""
"","html-keyboard-response","34","181091","0.0-6.0-2.0-0.7","mkfk8l3zcd","many_one","0","direct_first","1","nn06er03","0","19","1","1","3","1","sehr interessant!","0","1","0","null","","","<div class = 'row'><div class = 'column'><img src = 'usneg/8485.bmp' width = '100%;'></div><div class = 'column'><img src = 'category2/CS9.png' width = '70%;'></div></div>","null","neg","CS","CS","2","category2/CS9.png","","","","",""
"","html-keyboard-response","35","183606","0.0-6.0-2.0-0.8","mkfk8l3zcd","many_one","0","direct_first","1","nn06er03","0","19","1","1","3","1","sehr interessant!","0","1","0","null","","","<div class = 'row'><div class = 'column'><img src = 'uspos/5621.bmp' width = '100%;'></div><div class = 'column'><img src = 'category4/CS6.png' width = '70%;'></div></div>","null","pos","CS","CS","4","category4/CS6.png","","","","",""
"","html-keyboard-response","36","186119","0.0-6.0-2.0-0.9","mkfk8l3zcd","many_one","0","direct_first","1","nn06er03","0","19","1","1","3","1","sehr interessant!","0","1","0","null","","","<div class = 'row'><div class = 'column'><img src = 'usneg/9180.bmp' width = '100%;'></div><div class = 'column'><img src = 'category2/CS4.png' width = '70%;'></div></div>","null","neg","CS","CS","2","category2/CS4.png","","","","",""
"","html-keyboard-response","37","188631","0.0-6.0-2.0-0.10","mkfk8l3zcd","many_one","0","direct_first","1","nn06er03","0","19","1","1","3","1","sehr interessant!","0","1","0","null","","","<div class = 'row'><div class = 'column'><img src = 'usneg/9050.bmp' width = '100%;'></div><div class = 'column'><img src = 'category2/CS2.png' width = '70%;'></div></div>","null","neg","CS","CS","2","category2/CS2.png","","","","",""
"","html-keyboard-response","38","191142","0.0-6.0-2.0-0.11","mkfk8l3zcd","many_one","0","direct_first","1","nn06er03","0","19","1","1","3","1","sehr interessant!","0","1","0","null","","","<div class = 'row'><div class = 'column'><img src = 'category4/CS2.png' width = '70%;'></div><div class = 'column'><img src = 'uspos/2165.bmp' width = '100%;'></div></div>","null","pos","CS","CS","4","category4/CS2.png","","","","",""
"","html-keyboard-response","39","193650","0.0-6.0-2.0-0.12","mkfk8l3zcd","many_one","0","direct_first","1","nn06er03","0","19","1","1","3","1","sehr interessant!","0","1","0","null","","","<div class = 'row'><div class = 'column'><img src = 'usneg/3300.bmp' width = '100%;'></div><div class = 'column'><img src = 'category3/CS6.png' width = '70%;'></div></div>","null","neg","CS","CS","3","category3/CS6.png","","","","",""
"","html-keyboard-response","40","196163","0.0-6.0-2.0-0.13","mkfk8l3zcd","many_one","0","direct_first","1","nn06er03","0","19","1","1","3","1","sehr interessant!","0","1","0","null","","","<div class = 'row'><div class = 'column'><img src = 'category3/CS4.png' width = '70%;'></div><div class = 'column'><img src = 'usneg/9340.bmp' width = '100%;'></div></div>","null","neg","CS","CS","3","category3/CS4.png","","","","",""
"","html-keyboard-response","41","198676","0.0-6.0-2.0-0.14","mkfk8l3zcd","many_one","0","direct_first","1","nn06er03","0","19","1","1","3","1","sehr interessant!","0","1","0","null","","","<div class = 'row'><div class = 'column'><img src = 'uspos/1340.bmp' width = '100%;'></div><div class = 'column'><img src = 'category4/CS1.png' width = '70%;'></div></div>","null","pos","CS","CS","4","category4/CS1.png","","","","",""
"","html-keyboard-response","42","201188","0.0-6.0-2.0-0.15","mkfk8l3zcd","many_one","0","direct_first","1","nn06er03","0","19","1","1","3","1","sehr interessant!","0","1","0","null","","","<div class = 'row'><div class = 'column'><img src = 'uspos/8540.bmp' width = '100%;'></div><div class = 'column'><img src = 'category1/CS5.png' width = '70%;'></div></div>","null","pos","CS","CS","1","category1/CS5.png","","","","",""
"","html-keyboard-response","43","203702","0.0-6.0-2.0-0.16","mkfk8l3zcd","many_one","0","direct_first","1","nn06er03","0","19","1","1","3","1","sehr interessant!","0","1","0","null","","","<div class = 'row'><div class = 'column'><img src = 'usneg/9220.bmp' width = '100%;'></div><div class = 'column'><img src = 'category2/CS7.png' width = '70%;'></div></div>","null","neg","CS","CS","2","category2/CS7.png","","","","",""
"","html-keyboard-response","44","206209","0.0-6.0-2.0-0.17","mkfk8l3zcd","many_one","0","direct_first","1","nn06er03","0","19","1","1","3","1","sehr interessant!","0","1","0","null","","","<div class = 'row'><div class = 'column'><img src = 'category3/CS1.png' width = '70%;'></div><div class = 'column'><img src = 'usneg/9041.bmp' width = '100%;'></div></div>","null","neg","CS","CS","3","category3/CS1.png","","","","",""
"","html-keyboard-response","45","208727","0.0-6.0-2.0-0.18","mkfk8l3zcd","many_one","0","direct_first","1","nn06er03","0","19","1","1","3","1","sehr interessant!","0","1","0","null","","","<div class = 'row'><div class = 'column'><img src = 'usneg/9584.bmp' width = '100%;'></div><div class = 'column'><img src = 'category3/CS8.png' width = '70%;'></div></div>","null","neg","CS","CS","3","category3/CS8.png","","","","",""
"","html-keyboard-response","46","211240","0.0-6.0-2.0-0.19","mkfk8l3zcd","many_one","0","direct_first","1","nn06er03","0","19","1","1","3","1","sehr interessant!","0","1","0","null","","","<div class = 'row'><div class = 'column'><img src = 'category1/CS9.png' width = '70%;'></div><div class = 'column'><img src = 'uspos/1710.bmp' width = '100%;'></div></div>","null","pos","CS","CS","1","category1/CS9.png","","","","",""
"","survey-html-form","47","214927","0.0-6.0-3.0","mkfk8l3zcd","many_one","0","direct_first","1","nn06er03","0","19","1","1","3","1","sehr interessant!","0","1","0","3181.400000117719","","{}","","","","","","","","","","","",""
"","html-keyboard-response","48","218939","0.0-6.0-4.0-0.0","mkfk8l3zcd","many_one","0","direct_first","1","nn06er03","0","19","1","1","3","1","sehr interessant!","0","1","0","null","","","<div class = 'row'><div class = 'column'><img src = 'category4/CS1.png' width = '70%;'></div><div class = 'column'><img src = 'uspos/1340.bmp' width = '100%;'></div></div>","null","pos","CS","CS","4","category4/CS1.png","","","","",""
"","html-keyboard-response","49","221452","0.0-6.0-4.0-0.1","mkfk8l3zcd","many_one","0","direct_first","1","nn06er03","0","19","1","1","3","1","sehr interessant!","0","1","0","null","","","<div class = 'row'><div class = 'column'><img src = 'category3/CS1.png' width = '70%;'></div><div class = 'column'><img src = 'usneg/9041.bmp' width = '100%;'></div></div>","null","neg","CS","CS","3","category3/CS1.png","","","","",""
"","html-keyboard-response","50","223963","0.0-6.0-4.0-0.2","mkfk8l3zcd","many_one","0","direct_first","1","nn06er03","0","19","1","1","3","1","sehr interessant!","0","1","0","null","","","<div class = 'row'><div class = 'column'><img src = 'category1/CS7.png' width = '70%;'></div><div class = 'column'><img src = 'uspos/2530.bmp' width = '100%;'></div></div>","null","pos","CS","CS","1","category1/CS7.png","","","","",""
"","html-keyboard-response","51","226475","0.0-6.0-4.0-0.3","mkfk8l3zcd","many_one","0","direct_first","1","nn06er03","0","19","1","1","3","1","sehr interessant!","0","1","0","null","","","<div class = 'row'><div class = 'column'><img src = 'category3/CS4.png' width = '70%;'></div><div class = 'column'><img src = 'usneg/9340.bmp' width = '100%;'></div></div>","null","neg","CS","CS","3","category3/CS4.png","","","","",""
"","html-keyboard-response","52","228990","0.0-6.0-4.0-0.4","mkfk8l3zcd","many_one","0","direct_first","1","nn06er03","0","19","1","1","3","1","sehr interessant!","0","1","0","null","","","<div class = 'row'><div class = 'column'><img src = 'uspos/5621.bmp' width = '100%;'></div><div class = 'column'><img src = 'category4/CS6.png' width = '70%;'></div></div>","null","pos","CS","CS","4","category4/CS6.png","","","","",""
"","html-keyboard-response","53","231502","0.0-6.0-4.0-0.5","mkfk8l3zcd","many_one","0","direct_first","1","nn06er03","0","19","1","1","3","1","sehr interessant!","0","1","0","null","","","<div class = 'row'><div class = 'column'><img src = 'usneg/9182.bmp' width = '100%;'></div><div class = 'column'><img src = 'category2/CS10.png' width = '70%;'></div></div>","null","neg","CS","CS","2","category2/CS10.png","","","","",""
"","html-keyboard-response","54","234014","0.0-6.0-4.0-0.6","mkfk8l3zcd","many_one","0","direct_first","1","nn06er03","0","19","1","1","3","1","sehr interessant!","0","1","0","null","","","<div class = 'row'><div class = 'column'><img src = 'category1/CS8.png' width = '70%;'></div><div class = 'column'><img src = 'uspos/2030.bmp' width = '100%;'></div></div>","null","pos","CS","CS","1","category1/CS8.png","","","","",""
"","html-keyboard-response","55","236526","0.0-6.0-4.0-0.7","mkfk8l3zcd","many_one","0","direct_first","1","nn06er03","0","19","1","1","3","1","sehr interessant!","0","1","0","null","","","<div class = 'row'><div class = 'column'><img src = 'usneg/8485.bmp' width = '100%;'></div><div class = 'column'><img src = 'category2/CS9.png' width = '70%;'></div></div>","null","neg","CS","CS","2","category2/CS9.png","","","","",""
"","html-keyboard-response","56","239038","0.0-6.0-4.0-0.8","mkfk8l3zcd","many_one","0","direct_first","1","nn06er03","0","19","1","1","3","1","sehr interessant!","0","1","0","null","","","<div class = 'row'><div class = 'column'><img src = 'uspos/2165.bmp' width = '100%;'></div><div class = 'column'><img src = 'category4/CS2.png' width = '70%;'></div></div>","null","pos","CS","CS","4","category4/CS2.png","","","","",""
"","html-keyboard-response","57","241549","0.0-6.0-4.0-0.9","mkfk8l3zcd","many_one","0","direct_first","1","nn06er03","0","19","1","1","3","1","sehr interessant!","0","1","0","null","","","<div class = 'row'><div class = 'column'><img src = 'category2/CS4.png' width = '70%;'></div><div class = 'column'><img src = 'usneg/9180.bmp' width = '100%;'></div></div>","null","neg","CS","CS","2","category2/CS4.png","","","","",""
"","html-keyboard-response","58","244061","0.0-6.0-4.0-0.10","mkfk8l3zcd","many_one","0","direct_first","1","nn06er03","0","19","1","1","3","1","sehr interessant!","0","1","0","null","","","<div class = 'row'><div class = 'column'><img src = 'usneg/3300.bmp' width = '100%;'></div><div class = 'column'><img src = 'category3/CS6.png' width = '70%;'></div></div>","null","neg","CS","CS","3","category3/CS6.png","","","","",""
"","html-keyboard-response","59","246574","0.0-6.0-4.0-0.11","mkfk8l3zcd","many_one","0","direct_first","1","nn06er03","0","19","1","1","3","1","sehr interessant!","0","1","0","null","","","<div class = 'row'><div class = 'column'><img src = 'usneg/9050.bmp' width = '100%;'></div><div class = 'column'><img src = 'category2/CS2.png' width = '70%;'></div></div>","null","neg","CS","CS","2","category2/CS2.png","","","","",""
"","html-keyboard-response","60","249083","0.0-6.0-4.0-0.12","mkfk8l3zcd","many_one","0","direct_first","1","nn06er03","0","19","1","1","3","1","sehr interessant!","0","1","0","null","","","<div class = 'row'><div class = 'column'><img src = 'uspos/1710.bmp' width = '100%;'></div><div class = 'column'><img src = 'category1/CS9.png' width = '70%;'></div></div>","null","pos","CS","CS","1","category1/CS9.png","","","","",""
"","html-keyboard-response","61","251595","0.0-6.0-4.0-0.13","mkfk8l3zcd","many_one","0","direct_first","1","nn06er03","0","19","1","1","3","1","sehr interessant!","0","1","0","null","","","<div class = 'row'><div class = 'column'><img src = 'category4/CS10.png' width = '70%;'></div><div class = 'column'><img src = 'uspos/2311.bmp' width = '100%;'></div></div>","null","pos","CS","CS","4","category4/CS10.png","","","","",""
"","html-keyboard-response","62","254110","0.0-6.0-4.0-0.14","mkfk8l3zcd","many_one","0","direct_first","1","nn06er03","0","19","1","1","3","1","sehr interessant!","0","1","0","null","","","<div class = 'row'><div class = 'column'><img src = 'uspos/5760.bmp' width = '100%;'></div><div class = 'column'><img src = 'category1/CS3.png' width = '70%;'></div></div>","null","pos","CS","CS","1","category1/CS3.png","","","","",""
"","html-keyboard-response","63","256621","0.0-6.0-4.0-0.15","mkfk8l3zcd","many_one","0","direct_first","1","nn06er03","0","19","1","1","3","1","sehr interessant!","0","1","0","null","","","<div class = 'row'><div class = 'column'><img src = 'category3/CS8.png' width = '70%;'></div><div class = 'column'><img src = 'usneg/9584.bmp' width = '100%;'></div></div>","null","neg","CS","CS","3","category3/CS8.png","","","","",""
"","html-keyboard-response","64","259145","0.0-6.0-4.0-0.16","mkfk8l3zcd","many_one","0","direct_first","1","nn06er03","0","19","1","1","3","1","sehr interessant!","0","1","0","null","","","<div class = 'row'><div class = 'column'><img src = 'category3/CS9.png' width = '70%;'></div><div class = 'column'><img src = 'usneg/9920.bmp' width = '100%;'></div></div>","null","neg","CS","CS","3","category3/CS9.png","","","","",""
"","html-keyboard-response","65","261653","0.0-6.0-4.0-0.17","mkfk8l3zcd","many_one","0","direct_first","1","nn06er03","0","19","1","1","3","1","sehr interessant!","0","1","0","null","","","<div class = 'row'><div class = 'column'><img src = 'category4/CS9.png' width = '70%;'></div><div class = 'column'><img src = 'uspos/2900.2.bmp' width = '100%;'></div></div>","null","pos","CS","CS","4","category4/CS9.png","","","","",""
"","html-keyboard-response","66","264166","0.0-6.0-4.0-0.18","mkfk8l3zcd","many_one","0","direct_first","1","nn06er03","0","19","1","1","3","1","sehr interessant!","0","1","0","null","","","<div class = 'row'><div class = 'column'><img src = 'uspos/8540.bmp' width = '100%;'></div><div class = 'column'><img src = 'category1/CS5.png' width = '70%;'></div></div>","null","pos","CS","CS","1","category1/CS5.png","","","","",""
"","html-keyboard-response","67","266678","0.0-6.0-4.0-0.19","mkfk8l3zcd","many_one","0","direct_first","1","nn06er03","0","19","1","1","3","1","sehr interessant!","0","1","0","null","","","<div class = 'row'><div class = 'column'><img src = 'usneg/9220.bmp' width = '100%;'></div><div class = 'column'><img src = 'category2/CS7.png' width = '70%;'></div></div>","null","neg","CS","CS","2","category2/CS7.png","","","","",""
"","survey-html-form","68","268887","0.0-6.0-5.0","mkfk8l3zcd","many_one","0","direct_first","1","nn06er03","0","19","1","1","3","1","sehr interessant!","0","1","0","1702.2000001743436","","{}","","","","","","","","","","","",""
"","html-keyboard-response","69","272913","0.0-6.0-6.0-0.0","mkfk8l3zcd","many_one","0","direct_first","1","nn06er03","0","19","1","1","3","1","sehr interessant!","0","1","0","null","","","<div class = 'row'><div class = 'column'><img src = 'category1/CS3.png' width = '70%;'></div><div class = 'column'><img src = 'uspos/5760.bmp' width = '100%;'></div></div>","null","pos","CS","CS","1","category1/CS3.png","","","","",""
"","html-keyboard-response","70","275424","0.0-6.0-6.0-0.1","mkfk8l3zcd","many_one","0","direct_first","1","nn06er03","0","19","1","1","3","1","sehr interessant!","0","1","0","null","","","<div class = 'row'><div class = 'column'><img src = 'category1/CS5.png' width = '70%;'></div><div class = 'column'><img src = 'uspos/8540.bmp' width = '100%;'></div></div>","null","pos","CS","CS","1","category1/CS5.png","","","","",""
"","html-keyboard-response","71","277935","0.0-6.0-6.0-0.2","mkfk8l3zcd","many_one","0","direct_first","1","nn06er03","0","19","1","1","3","1","sehr interessant!","0","1","0","null","","","<div class = 'row'><div class = 'column'><img src = 'usneg/9584.bmp' width = '100%;'></div><div class = 'column'><img src = 'category3/CS8.png' width = '70%;'></div></div>","null","neg","CS","CS","3","category3/CS8.png","","","","",""
"","html-keyboard-response","72","280443","0.0-6.0-6.0-0.3","mkfk8l3zcd","many_one","0","direct_first","1","nn06er03","0","19","1","1","3","1","sehr interessant!","0","1","0","null","","","<div class = 'row'><div class = 'column'><img src = 'usneg/9180.bmp' width = '100%;'></div><div class = 'column'><img src = 'category2/CS4.png' width = '70%;'></div></div>","null","neg","CS","CS","2","category2/CS4.png","","","","",""
"","html-keyboard-response","73","282958","0.0-6.0-6.0-0.4","mkfk8l3zcd","many_one","0","direct_first","1","nn06er03","0","19","1","1","3","1","sehr interessant!","0","1","0","null","","","<div class = 'row'><div class = 'column'><img src = 'category3/CS4.png' width = '70%;'></div><div class = 'column'><img src = 'usneg/9340.bmp' width = '100%;'></div></div>","null","neg","CS","CS","3","category3/CS4.png","","","","",""
"","html-keyboard-response","74","285471","0.0-6.0-6.0-0.5","mkfk8l3zcd","many_one","0","direct_first","1","nn06er03","0","19","1","1","3","1","sehr interessant!","0","1","0","null","","","<div class = 'row'><div class = 'column'><img src = 'uspos/2165.bmp' width = '100%;'></div><div class = 'column'><img src = 'category4/CS2.png' width = '70%;'></div></div>","null","pos","CS","CS","4","category4/CS2.png","","","","",""
"","html-keyboard-response","75","287982","0.0-6.0-6.0-0.6","mkfk8l3zcd","many_one","0","direct_first","1","nn06er03","0","19","1","1","3","1","sehr interessant!","0","1","0","null","","","<div class = 'row'><div class = 'column'><img src = 'category1/CS8.png' width = '70%;'></div><div class = 'column'><img src = 'uspos/2030.bmp' width = '100%;'></div></div>","null","pos","CS","CS","1","category1/CS8.png","","","","",""
"","html-keyboard-response","76","290492","0.0-6.0-6.0-0.7","mkfk8l3zcd","many_one","0","direct_first","1","nn06er03","0","19","1","1","3","1","sehr interessant!","0","1","0","null","","","<div class = 'row'><div class = 'column'><img src = 'uspos/1710.bmp' width = '100%;'></div><div class = 'column'><img src = 'category1/CS9.png' width = '70%;'></div></div>","null","pos","CS","CS","1","category1/CS9.png","","","","",""
"","html-keyboard-response","77","293002","0.0-6.0-6.0-0.8","mkfk8l3zcd","many_one","0","direct_first","1","nn06er03","0","19","1","1","3","1","sehr interessant!","0","1","0","null","","","<div class = 'row'><div class = 'column'><img src = 'uspos/2311.bmp' width = '100%;'></div><div class = 'column'><img src = 'category4/CS10.png' width = '70%;'></div></div>","null","pos","CS","CS","4","category4/CS10.png","","","","",""
"","html-keyboard-response","78","295514","0.0-6.0-6.0-0.9","mkfk8l3zcd","many_one","0","direct_first","1","nn06er03","0","19","1","1","3","1","sehr interessant!","0","1","0","null","","","<div class = 'row'><div class = 'column'><img src = 'category4/CS9.png' width = '70%;'></div><div class = 'column'><img src = 'uspos/2900.2.bmp' width = '100%;'></div></div>","null","pos","CS","CS","4","category4/CS9.png","","","","",""
"","html-keyboard-response","79","298029","0.0-6.0-6.0-0.10","mkfk8l3zcd","many_one","0","direct_first","1","nn06er03","0","19","1","1","3","1","sehr interessant!","0","1","0","null","","","<div class = 'row'><div class = 'column'><img src = 'usneg/3300.bmp' width = '100%;'></div><div class = 'column'><img src = 'category3/CS6.png' width = '70%;'></div></div>","null","neg","CS","CS","3","category3/CS6.png","","","","",""
"","html-keyboard-response","80","300541","0.0-6.0-6.0-0.11","mkfk8l3zcd","many_one","0","direct_first","1","nn06er03","0","19","1","1","3","1","sehr interessant!","0","1","0","null","","","<div class = 'row'><div class = 'column'><img src = 'usneg/9050.bmp' width = '100%;'></div><div class = 'column'><img src = 'category2/CS2.png' width = '70%;'></div></div>","null","neg","CS","CS","2","category2/CS2.png","","","","",""
"","html-keyboard-response","81","303055","0.0-6.0-6.0-0.12","mkfk8l3zcd","many_one","0","direct_first","1","nn06er03","0","19","1","1","3","1","sehr interessant!","0","1","0","null","","","<div class = 'row'><div class = 'column'><img src = 'usneg/9041.bmp' width = '100%;'></div><div class = 'column'><img src = 'category3/CS1.png' width = '70%;'></div></div>","null","neg","CS","CS","3","category3/CS1.png","","","","",""
"","html-keyboard-response","82","305567","0.0-6.0-6.0-0.13","mkfk8l3zcd","many_one","0","direct_first","1","nn06er03","0","19","1","1","3","1","sehr interessant!","0","1","0","null","","","<div class = 'row'><div class = 'column'><img src = 'category1/CS7.png' width = '70%;'></div><div class = 'column'><img src = 'uspos/2530.bmp' width = '100%;'></div></div>","null","pos","CS","CS","1","category1/CS7.png","","","","",""
"","html-keyboard-response","83","308078","0.0-6.0-6.0-0.14","mkfk8l3zcd","many_one","0","direct_first","1","nn06er03","0","19","1","1","3","1","sehr interessant!","0","1","0","null","","","<div class = 'row'><div class = 'column'><img src = 'category2/CS9.png' width = '70%;'></div><div class = 'column'><img src = 'usneg/8485.bmp' width = '100%;'></div></div>","null","neg","CS","CS","2","category2/CS9.png","","","","",""
"","html-keyboard-response","84","310584","0.0-6.0-6.0-0.15","mkfk8l3zcd","many_one","0","direct_first","1","nn06er03","0","19","1","1","3","1","sehr interessant!","0","1","0","null","","","<div class = 'row'><div class = 'column'><img src = 'uspos/5621.bmp' width = '100%;'></div><div class = 'column'><img src = 'category4/CS6.png' width = '70%;'></div></div>","null","pos","CS","CS","4","category4/CS6.png","","","","",""
"","html-keyboard-response","85","313099","0.0-6.0-6.0-0.16","mkfk8l3zcd","many_one","0","direct_first","1","nn06er03","0","19","1","1","3","1","sehr interessant!","0","1","0","null","","","<div class = 'row'><div class = 'column'><img src = 'usneg/9920.bmp' width = '100%;'></div><div class = 'column'><img src = 'category3/CS9.png' width = '70%;'></div></div>","null","neg","CS","CS","3","category3/CS9.png","","","","",""
"","html-keyboard-response","86","315609","0.0-6.0-6.0-0.17","mkfk8l3zcd","many_one","0","direct_first","1","nn06er03","0","19","1","1","3","1","sehr interessant!","0","1","0","null","","","<div class = 'row'><div class = 'column'><img src = 'usneg/9182.bmp' width = '100%;'></div><div class = 'column'><img src = 'category2/CS10.png' width = '70%;'></div></div>","null","neg","CS","CS","2","category2/CS10.png","","","","",""
"","html-keyboard-response","87","318120","0.0-6.0-6.0-0.18","mkfk8l3zcd","many_one","0","direct_first","1","nn06er03","0","19","1","1","3","1","sehr interessant!","0","1","0","null","","","<div class = 'row'><div class = 'column'><img src = 'category4/CS1.png' width = '70%;'></div><div class = 'column'><img src = 'uspos/1340.bmp' width = '100%;'></div></div>","null","pos","CS","CS","4","category4/CS1.png","","","","",""
"","html-keyboard-response","88","320631","0.0-6.0-6.0-0.19","mkfk8l3zcd","many_one","0","direct_first","1","nn06er03","0","19","1","1","3","1","sehr interessant!","0","1","0","null","","","<div class = 'row'><div class = 'column'><img src = 'usneg/9220.bmp' width = '100%;'></div><div class = 'column'><img src = 'category2/CS7.png' width = '70%;'></div></div>","null","neg","CS","CS","2","category2/CS7.png","","","","",""
"","survey-html-form","89","329069","0.0-7.0","mkfk8l3zcd","many_one","0","direct_first","1","nn06er03","0","19","1","1","3","1","sehr interessant!","0","1","0","7932.099999859929","","{}","","","","","","","","","","","",""
"","image-slider-response","90","338437","0.0-8.0-0.0","mkfk8l3zcd","many_one","0","direct_first","1","nn06er03","0","19","1","1","3","1","sehr interessant!","0","1","0","7345.699999947101","","","","","neg","GS","GSold","2","category2/CS5.png","-78","targets/22.png","direct","",""
"","image-slider-response","91","344791","0.0-8.0-0.1","mkfk8l3zcd","many_one","0","direct_first","1","nn06er03","0","19","1","1","3","1","sehr interessant!","0","1","0","6346.499999985099","","","","","pos","CS","CS","4","category4/CS6.png","41","targets/17.png","direct","",""
"","image-slider-response","92","348679","0.0-8.0-0.2","mkfk8l3zcd","many_one","0","direct_first","1","nn06er03","0","19","1","1","3","1","sehr interessant!","0","1","0","3880.8999999891967","","","","","pos","GS","GSnew","1","category1/GS2.png","-31","targets/7.png","direct","",""
"","image-slider-response","93","351981","0.0-8.0-0.3","mkfk8l3zcd","many_one","0","direct_first","1","nn06er03","0","19","1","1","3","1","sehr interessant!","0","1","0","3297.1999999135733","","","","","neg","CS","CS","3","category3/CS1.png","30","targets/24.png","direct","",""
"","image-slider-response","94","355896","0.0-8.0-0.4","mkfk8l3zcd","many_one","0","direct_first","1","nn06er03","0","19","1","1","3","1","sehr interessant!","0","1","0","3908.999999985099","","","","","neg","GS","GSnew","3","category3/GS1.png","-55","targets/13.png","direct","",""
"","image-slider-response","95","358977","0.0-8.0-0.5","mkfk8l3zcd","many_one","0","direct_first","1","nn06er03","0","19","1","1","3","1","sehr interessant!","0","1","0","3076.399999903515","","","","","pos","CS","CS","1","category1/CS7.png","-100","targets/26.png","direct","",""
"","image-slider-response","96","361749","0.0-8.0-0.6","mkfk8l3zcd","many_one","0","direct_first","1","nn06er03","0","19","1","1","3","1","sehr interessant!","0","1","0","2765.800000168383","","","","","neg","CS","CS","3","category3/CS8.png","72","targets/31.png","direct","",""
"","image-slider-response","97","373198","0.0-8.0-0.7","mkfk8l3zcd","many_one","0","direct_first","1","nn06er03","0","19","1","1","3","1","sehr interessant!","0","1","0","11445.000000065193","","","","","pos","GS","abstract","1","category1/ma.png","34","targets/44.png","direct","",""
"","image-slider-response","98","377328","0.0-8.0-0.8","mkfk8l3zcd","many_one","0","direct_first","1","nn06er03","0","19","1","1","3","1","sehr interessant!","0","1","0","4123.799999943003","","","","","pos","CS","CS","4","category4/CS2.png","100","targets/34.png","direct","",""
"","image-slider-response","99","379692","0.0-8.0-0.9","mkfk8l3zcd","many_one","0","direct_first","1","nn06er03","0","19","1","1","3","1","sehr interessant!","0","1","0","2357.899999944493","","","","","pos","GS","GSold","1","category1/CS10.png","100","targets/45.png","direct","",""
"","image-slider-response","100","382546","0.0-8.0-0.10","mkfk8l3zcd","many_one","0","direct_first","1","nn06er03","0","19","1","1","3","1","sehr interessant!","0","1","0","2848.8000000361353","","","","","neg","CS","CS","2","category2/CS2.png","66","targets/32.png","direct","",""
"","image-slider-response","101","385086","0.0-8.0-0.11","mkfk8l3zcd","many_one","0","direct_first","1","nn06er03","0","19","1","1","3","1","sehr interessant!","0","1","0","2536.0000000800937","","","","","neg","GS","GSnew","2","category2/GS3.png","100","targets/37.png","direct","",""
"","image-slider-response","102","387400","0.0-8.0-0.12","mkfk8l3zcd","many_one","0","direct_first","1","nn06er03","0","19","1","1","3","1","sehr interessant!","0","1","0","2308.7999999988824","","","","","neg","GS","abstract","2","category2/men.png","100","targets/9.png","direct","",""
"","image-slider-response","103","390131","0.0-8.0-0.13","mkfk8l3zcd","many_one","0","direct_first","1","nn06er03","0","19","1","1","3","1","sehr interessant!","0","1","0","2724.900000030175","","","","","pos","CS","CS","1","category1/CS9.png","-30","targets/1.png","direct","",""
"","image-slider-response","104","392643","0.0-8.0-0.14","mkfk8l3zcd","many_one","0","direct_first","1","nn06er03","0","19","1","1","3","1","sehr interessant!","0","1","0","2507.9000000841916","","","","","pos","GS","abstract","4","category4/lin.png","100","targets/16.png","direct","",""
"","image-slider-response","105","395553","0.0-8.0-0.15","mkfk8l3zcd","many_one","0","direct_first","1","nn06er03","0","19","1","1","3","1","sehr interessant!","0","1","0","2904.8999999649823","","","","","neg","CS","CS","2","category2/CS4.png","-100","targets/14.png","direct","",""
"","image-slider-response","106","398015","0.0-8.0-0.16","mkfk8l3zcd","many_one","0","direct_first","1","nn06er03","0","19","1","1","3","1","sehr interessant!","0","1","0","2456.599999917671","","","","","neg","GS","GSnew","3","category3/GS3.png","27","targets/28.png","direct","",""
"","image-slider-response","107","401598","0.0-8.0-0.17","mkfk8l3zcd","many_one","0","direct_first","1","nn06er03","0","19","1","1","3","1","sehr interessant!","0","1","0","3577.4999998975545","","","","","neg","GS","GSold","3","category3/CS2.png","-2","targets/2.png","direct","",""
"","image-slider-response","108","405387","0.0-8.0-0.18","mkfk8l3zcd","many_one","0","direct_first","1","nn06er03","0","19","1","1","3","1","sehr interessant!","0","1","0","3782.8999999910593","","","","","neg","GS","GSold","3","category3/CS3.png","20","targets/4.png","direct","",""
"","image-slider-response","109","408476","0.0-8.0-0.19","mkfk8l3zcd","many_one","0","direct_first","1","nn06er03","0","19","1","1","3","1","sehr interessant!","0","1","0","3084.1000000946224","","","","","pos","CS","CS","1","category1/CS5.png","-100","targets/30.png","direct","",""
"","image-slider-response","110","411305","0.0-8.0-0.20","mkfk8l3zcd","many_one","0","direct_first","1","nn06er03","0","19","1","1","3","1","sehr interessant!","0","1","0","2822.59999983944","","","","","pos","CS","CS","4","category4/CS10.png","38","targets/35.png","direct","",""
"","image-slider-response","111","413435","0.0-8.0-0.21","mkfk8l3zcd","many_one","0","direct_first","1","nn06er03","0","19","1","1","3","1","sehr interessant!","0","1","0","2125.0999998301268","","","","","pos","GS","GSnew","1","category1/GS1.png","-45","targets/3.png","direct","",""
"","image-slider-response","112","417203","0.0-8.0-0.22","mkfk8l3zcd","many_one","0","direct_first","1","nn06er03","0","19","1","1","3","1","sehr interessant!","0","1","0","3762.7000000793487","","","","","pos","CS","CS","1","category1/CS8.png","-100","targets/21.png","direct","",""
"","image-slider-response","113","419738","0.0-8.0-0.23","mkfk8l3zcd","many_one","0","direct_first","1","nn06er03","0","19","1","1","3","1","sehr interessant!","0","1","0","2530.0999998580664","","","","","pos","CS","CS","1","category1/CS3.png","-100","targets/43.png","direct","",""
"","image-slider-response","114","422045","0.0-8.0-0.24","mkfk8l3zcd","many_one","0","direct_first","1","nn06er03","0","19","1","1","3","1","sehr interessant!","0","1","0","2301.5000000596046","","","","","neg","GS","GSnew","3","category3/GS2.png","-100","targets/5.png","direct","",""
"","image-slider-response","115","424581","0.0-8.0-0.25","mkfk8l3zcd","many_one","0","direct_first","1","nn06er03","0","19","1","1","3","1","sehr interessant!","0","1","0","2531.8999998271465","","","","","neg","CS","CS","2","category2/CS10.png","-59","targets/23.png","direct","",""
"","image-slider-response","116","427051","0.0-8.0-0.26","mkfk8l3zcd","many_one","0","direct_first","1","nn06er03","0","19","1","1","3","1","sehr interessant!","0","1","0","2466.4000000339","","","","","pos","GS","GSnew","4","category4/GS3.png","-58","targets/12.png","direct","",""
"","image-slider-response","117","430307","0.0-8.0-0.27","mkfk8l3zcd","many_one","0","direct_first","1","nn06er03","0","19","1","1","3","1","sehr interessant!","0","1","0","3250.6999999750406","","","","","neg","GS","GSold","2","category2/CS6.png","24","targets/33.png","direct","",""
"","image-slider-response","118","433871","0.0-8.0-0.28","mkfk8l3zcd","many_one","0","direct_first","1","nn06er03","0","19","1","1","3","1","sehr interessant!","0","1","0","3558.299999916926","","","","","pos","GS","GSold","4","category4/CS4.png","63","targets/47.png","direct","",""
"","image-slider-response","119","436434","0.0-8.0-0.29","mkfk8l3zcd","many_one","0","direct_first","1","nn06er03","0","19","1","1","3","1","sehr interessant!","0","1","0","2557.899999897927","","","","","pos","GS","GSold","1","category1/CS6.png","-35","targets/46.png","direct","",""
"","image-slider-response","120","439748","0.0-8.0-0.30","mkfk8l3zcd","many_one","0","direct_first","1","nn06er03","0","19","1","1","3","1","sehr interessant!","0","1","0","3308.5999998729676","","","","","neg","GS","GSold","3","category3/CS10.png","-65","targets/41.png","direct","",""
"","image-slider-response","121","442825","0.0-8.0-0.31","mkfk8l3zcd","many_one","0","direct_first","1","nn06er03","0","19","1","1","3","1","sehr interessant!","0","1","0","3069.499999983236","","","","","neg","GS","GSnew","2","category2/GS1.png","-77","targets/8.png","direct","",""
"","image-slider-response","122","447391","0.0-8.0-0.32","mkfk8l3zcd","many_one","0","direct_first","1","nn06er03","0","19","1","1","3","1","sehr interessant!","0","1","0","4560.399999842048","","","","","neg","GS","abstract","3","category3/wang.png","100","targets/10.png","direct","",""
"","image-slider-response","123","450547","0.0-8.0-0.33","mkfk8l3zcd","many_one","0","direct_first","1","nn06er03","0","19","1","1","3","1","sehr interessant!","0","1","0","3150.2999998629093","","","","","pos","GS","GSold","4","category4/CS7.png","82","targets/48.png","direct","",""
"","image-slider-response","124","453940","0.0-8.0-0.34","mkfk8l3zcd","many_one","0","direct_first","1","nn06er03","0","19","1","1","3","1","sehr interessant!","0","1","0","3387.7999999094754","","","","","pos","GS","GSnew","4","category4/GS2.png","-22","targets/36.png","direct","",""
"","image-slider-response","125","456780","0.0-8.0-0.35","mkfk8l3zcd","many_one","0","direct_first","1","nn06er03","0","19","1","1","3","1","sehr interessant!","0","1","0","2834.7000000067055","","","","","neg","CS","CS","2","category2/CS9.png","-29","targets/18.png","direct","",""
"","image-slider-response","126","460811","0.0-8.0-0.36","mkfk8l3zcd","many_one","0","direct_first","1","nn06er03","0","19","1","1","3","1","sehr interessant!","0","1","0","4025.099999969825","","","","","neg","CS","CS","3","category3/CS9.png","46","targets/38.png","direct","",""
"","image-slider-response","127","463178","0.0-8.0-0.37","mkfk8l3zcd","many_one","0","direct_first","1","nn06er03","0","19","1","1","3","1","sehr interessant!","0","1","0","2361.0000000335276","","","","","pos","CS","CS","4","category4/CS1.png","100","targets/19.png","direct","",""
"","image-slider-response","128","467378","0.0-8.0-0.38","mkfk8l3zcd","many_one","0","direct_first","1","nn06er03","0","19","1","1","3","1","sehr interessant!","0","1","0","4195.10000012815","","","","","pos","GS","GSnew","4","category4/GS1.png","55","targets/15.png","direct","",""
"","image-slider-response","129","469495","0.0-8.0-0.39","mkfk8l3zcd","many_one","0","direct_first","1","nn06er03","0","19","1","1","3","1","sehr interessant!","0","1","0","2111.0999998636544","","","","","neg","GS","GSold","2","category2/CS1.png","-33","targets/39.png","direct","",""
"","image-slider-response","130","471500","0.0-8.0-0.40","mkfk8l3zcd","many_one","0","direct_first","1","nn06er03","0","19","1","1","3","1","sehr interessant!","0","1","0","1999.8999999370426","","","","","pos","GS","GSold","4","category4/CS3.png","32","targets/29.png","direct","",""
"","image-slider-response","131","475131","0.0-8.0-0.41","mkfk8l3zcd","many_one","0","direct_first","1","nn06er03","0","19","1","1","3","1","sehr interessant!","0","1","0","3625.300000188872","","","","","pos","GS","GSnew","1","category1/GS3.png","0","targets/6.png","direct","",""
"","image-slider-response","132","477902","0.0-8.0-0.42","mkfk8l3zcd","many_one","0","direct_first","1","nn06er03","0","19","1","1","3","1","sehr interessant!","0","1","0","2766.3999998476356","","","","","neg","GS","GSnew","2","category2/GS2.png","-19","targets/25.png","direct","",""
"","image-slider-response","133","479867","0.0-8.0-0.43","mkfk8l3zcd","many_one","0","direct_first","1","nn06er03","0","19","1","1","3","1","sehr interessant!","0","1","0","1958.6999998427927","","","","","neg","CS","CS","3","category3/CS4.png","-42","targets/27.png","direct","",""
"","image-slider-response","134","482274","0.0-8.0-0.44","mkfk8l3zcd","many_one","0","direct_first","1","nn06er03","0","19","1","1","3","1","sehr interessant!","0","1","0","2402.500000083819","","","","","neg","CS","CS","2","category2/CS7.png","31","targets/20.png","direct","",""
"","image-slider-response","135","484164","0.0-8.0-0.45","mkfk8l3zcd","many_one","0","direct_first","1","nn06er03","0","19","1","1","3","1","sehr interessant!","0","1","0","1882.9999999143183","","","","","neg","CS","CS","3","category3/CS6.png","-55","targets/11.png","direct","",""
"","image-slider-response","136","487514","0.0-8.0-0.46","mkfk8l3zcd","many_one","0","direct_first","1","nn06er03","0","19","1","1","3","1","sehr interessant!","0","1","0","3345.1000000350177","","","","","pos","CS","CS","4","category4/CS9.png","54","targets/40.png","direct","",""
"","image-slider-response","137","489674","0.0-8.0-0.47","mkfk8l3zcd","many_one","0","direct_first","1","nn06er03","0","19","1","1","3","1","sehr interessant!","0","1","0","2152.10000006482","","","","","pos","GS","GSold","1","category1/CS2.png","-66","targets/42.png","direct","",""
"","html-keyboard-response","138","525833","0.0-9.0","mkfk8l3zcd","many_one","0","direct_first","1","nn06er03","0","19","1","1","3","1","sehr interessant!","0","1","0","36153.5000000149","","","<p>Sie sehen nun die chinesischen Zeichen nur ganz kurz. Danach sehen Sie die jeweilige Aussprache der Zeichen als Silbe auf dem Bildschrim. Ihre Aufgabe ist es, fr jede Silbe anzugeben, ob diese etwas angenehmes, oder unangenehmes bedeuten knnte. Verlassen Sie sich hier vor allem auf Ihre Intuition.<br><br>Die Zeichen werden nur zur Orientierung dargestellt, beachten Sie sie deshalb nicht. Konzentrieren Sie sich vor allem auf die Silben. <br>Reagieren Sie mit folgenden zwei Tasten: <br><br><b>'D' </b> wenn die Silbe etwas <b>unangenehmes</b> bedeuten knnte. <br><b>'K'</b> wenn die Silbe etwas <b>angenehmes</b> bedeuten knnte. <br><br>Bitte legen Sie nun den Zeigefinger der linken Hand auf die Taste 'D' und den Zeigefinger der rechten Hand auf die Taste 'K'. <br>Reagieren Sie auf jede Silbe so schnell wie mglich. Uns interessiert Ihre spontane Reaktion. <br> <br> <br>Drcken Sie 'D' oder 'K', um die nchste Aufgabe zu starten. </p>","75","","","","","","","","","",""
"","html-keyboard-response","139","528838","0.0-10.0-0.0","mkfk8l3zcd","many_one","0","direct_first","1","nn06er03","0","19","1","1","3","1","sehr interessant!","0","1","0","null","","","<div style=""font-size:60px;"">+</div>","null","","","","","","","","","",""
"","html-keyboard-response","140","528938","0.0-10.0-1.0","mkfk8l3zcd","many_one","0","direct_first","1","nn06er03","0","19","1","1","3","1","sehr interessant!","0","1","0","null","","","<img src = 'category4/CS4.png' width = '100%;'>","null","","","","","","","","","",""
"","html-keyboard-response","141","529197","0.0-10.0-2.0","mkfk8l3zcd","many_one","0","direct_first","1","nn06er03","0","19","1","1","3","1","sehr interessant!","0","1","0","null","","","<img src = 'targets/47.png' width = '100%;'>","null","","","","","","","","","",""
"","html-keyboard-response","142","535232","0.0-10.0-3.0","mkfk8l3zcd","many_one","0","direct_first","1","nn06er03","0","19","1","1","3","1","sehr interessant!","0","1","0","6027.400000020862","","","<img src = 'targets/mask.png' width = '100%;'>","68","pos","GS","GSold","4","category4/CS4.png","","targets/47.png","indirect","0","0"
"","html-keyboard-response","143","536739","0.0-10.0-0.1","mkfk8l3zcd","many_one","0","direct_first","1","nn06er03","0","19","1","1","3","1","sehr interessant!","0","1","0","null","","","<div style=""font-size:60px;"">+</div>","null","","","","","","","","","",""
"","html-keyboard-response","144","536837","0.0-10.0-1.1","mkfk8l3zcd","many_one","0","direct_first","1","nn06er03","0","19","1","1","3","1","sehr interessant!","0","1","0","null","","","<img src = 'category1/CS7.png' width = '100%;'>","null","","","","","","","","","",""
"","html-keyboard-response","145","537094","0.0-10.0-2.1","mkfk8l3zcd","many_one","0","direct_first","1","nn06er03","0","19","1","1","3","1","sehr interessant!","0","1","0","null","","","<img src = 'targets/26.png' width = '100%;'>","null","","","","","","","","","",""
"","html-keyboard-response","146","539597","0.0-10.0-3.1","mkfk8l3zcd","many_one","0","direct_first","1","nn06er03","0","19","1","1","3","1","sehr interessant!","0","1","0","2499.0999998990446","","","<img src = 'targets/mask.png' width = '100%;'>","68","pos","CS","CS","1","category1/CS7.png","","targets/26.png","indirect","0","1"
"","html-keyboard-response","147","541101","0.0-10.0-0.2","mkfk8l3zcd","many_one","0","direct_first","1","nn06er03","0","19","1","1","3","1","sehr interessant!","0","1","0","null","","","<div style=""font-size:60px;"">+</div>","null","","","","","","","","","",""
"","html-keyboard-response","148","541199","0.0-10.0-1.2","mkfk8l3zcd","many_one","0","direct_first","1","nn06er03","0","19","1","1","3","1","sehr interessant!","0","1","0","null","","","<img src = 'category4/CS10.png' width = '100%;'>","null","","","","","","","","","",""
"","html-keyboard-response","149","541457","0.0-10.0-2.2","mkfk8l3zcd","many_one","0","direct_first","1","nn06er03","0","19","1","1","3","1","sehr interessant!","0","1","0","null","","","<img src = 'targets/35.png' width = '100%;'>","null","","","","","","","","","",""
"","html-keyboard-response","150","542546","0.0-10.0-3.2","mkfk8l3zcd","many_one","0","direct_first","1","nn06er03","0","19","1","1","3","1","sehr interessant!","0","1","0","1077.799999853596","","","<img src = 'targets/mask.png' width = '100%;'>","75","pos","CS","CS","4","category4/CS10.png","","targets/35.png","indirect","1","2"
"","html-keyboard-response","151","544051","0.0-10.0-0.3","mkfk8l3zcd","many_one","0","direct_first","1","nn06er03","0","19","1","1","3","1","sehr interessant!","0","1","0","null","","","<div style=""font-size:60px;"">+</div>","null","","","","","","","","","",""
"","html-keyboard-response","152","544150","0.0-10.0-1.3","mkfk8l3zcd","many_one","0","direct_first","1","nn06er03","0","19","1","1","3","1","sehr interessant!","0","1","0","null","","","<img src = 'category1/CS9.png' width = '100%;'>","null","","","","","","","","","",""
"","html-keyboard-response","153","544409","0.0-10.0-2.3","mkfk8l3zcd","many_one","0","direct_first","1","nn06er03","0","19","1","1","3","1","sehr interessant!","0","1","0","null","","","<img src = 'targets/1.png' width = '100%;'>","null","","","","","","","","","",""
"","html-keyboard-response","154","544978","0.0-10.0-3.3","mkfk8l3zcd","many_one","0","direct_first","1","nn06er03","0","19","1","1","3","1","sehr interessant!","0","1","0","561.5999998990446","","","<img src = 'targets/mask.png' width = '100%;'>","68","pos","CS","CS","1","category1/CS9.png","","targets/1.png","indirect","0","3"
"","html-keyboard-response","155","546482","0.0-10.0-0.4","mkfk8l3zcd","many_one","0","direct_first","1","nn06er03","0","19","1","1","3","1","sehr interessant!","0","1","0","null","","","<div style=""font-size:60px;"">+</div>","null","","","","","","","","","",""
"","html-keyboard-response","156","546576","0.0-10.0-1.4","mkfk8l3zcd","many_one","0","direct_first","1","nn06er03","0","19","1","1","3","1","sehr interessant!","0","1","0","null","","","<img src = 'category2/CS5.png' width = '100%;'>","null","","","","","","","","","",""
"","html-keyboard-response","157","546830","0.0-10.0-2.4","mkfk8l3zcd","many_one","0","direct_first","1","nn06er03","0","19","1","1","3","1","sehr interessant!","0","1","0","null","","","<img src = 'targets/22.png' width = '100%;'>","null","","","","","","","","","",""
"","html-keyboard-response","158","549049","0.0-10.0-3.4","mkfk8l3zcd","many_one","0","direct_first","1","nn06er03","0","19","1","1","3","1","sehr interessant!","0","1","0","2214.200000045821","","","<img src = 'targets/mask.png' width = '100%;'>","68","neg","GS","GSold","2","category2/CS5.png","","targets/22.png","indirect","0","4"
"","html-keyboard-response","159","550555","0.0-10.0-0.5","mkfk8l3zcd","many_one","0","direct_first","1","nn06er03","0","19","1","1","3","1","sehr interessant!","0","1","0","null","","","<div style=""font-size:60px;"">+</div>","null","","","","","","","","","",""
"","html-keyboard-response","160","550653","0.0-10.0-1.5","mkfk8l3zcd","many_one","0","direct_first","1","nn06er03","0","19","1","1","3","1","sehr interessant!","0","1","0","null","","","<img src = 'category3/CS9.png' width = '100%;'>","null","","","","","","","","","",""
"","html-keyboard-response","161","550911","0.0-10.0-2.5","mkfk8l3zcd","many_one","0","direct_first","1","nn06er03","0","19","1","1","3","1","sehr interessant!","0","1","0","null","","","<img src = 'targets/38.png' width = '100%;'>","null","","","","","","","","","",""
"","html-keyboard-response","162","551818","0.0-10.0-3.5","mkfk8l3zcd","many_one","0","direct_first","1","nn06er03","0","19","1","1","3","1","sehr interessant!","0","1","0","897.0999999437481","","","<img src = 'targets/mask.png' width = '100%;'>","75","neg","CS","CS","3","category3/CS9.png","","targets/38.png","indirect","1","5"
"","html-keyboard-response","163","553323","0.0-10.0-0.6","mkfk8l3zcd","many_one","0","direct_first","1","nn06er03","0","19","1","1","3","1","sehr interessant!","0","1","0","null","","","<div style=""font-size:60px;"">+</div>","null","","","","","","","","","",""
"","html-keyboard-response","164","553420","0.0-10.0-1.6","mkfk8l3zcd","many_one","0","direct_first","1","nn06er03","0","19","1","1","3","1","sehr interessant!","0","1","0","null","","","<img src = 'category2/CS2.png' width = '100%;'>","null","","","","","","","","","",""
"","html-keyboard-response","165","553679","0.0-10.0-2.6","mkfk8l3zcd","many_one","0","direct_first","1","nn06er03","0","19","1","1","3","1","sehr interessant!","0","1","0","null","","","<img src = 'targets/32.png' width = '100%;'>","null","","","","","","","","","",""
"","html-keyboard-response","166","556318","0.0-10.0-3.6","mkfk8l3zcd","many_one","0","direct_first","1","nn06er03","0","19","1","1","3","1","sehr interessant!","0","1","0","2631.7999998573214","","","<img src = 'targets/mask.png' width = '100%;'>","68","neg","CS","CS","2","category2/CS2.png","","targets/32.png","indirect","0","6"
"","html-keyboard-response","167","557824","0.0-10.0-0.7","mkfk8l3zcd","many_one","0","direct_first","1","nn06er03","0","19","1","1","3","1","sehr interessant!","0","1","0","null","","","<div style=""font-size:60px;"">+</div>","null","","","","","","","","","",""
"","html-keyboard-response","168","557922","0.0-10.0-1.7","mkfk8l3zcd","many_one","0","direct_first","1","nn06er03","0","19","1","1","3","1","sehr interessant!","0","1","0","null","","","<img src = 'category1/CS8.png' width = '100%;'>","null","","","","","","","","","",""
"","html-keyboard-response","169","558175","0.0-10.0-2.7","mkfk8l3zcd","many_one","0","direct_first","1","nn06er03","0","19","1","1","3","1","sehr interessant!","0","1","0","null","","","<img src = 'targets/21.png' width = '100%;'>","null","","","","","","","","","",""
"","html-keyboard-response","170","559488","0.0-10.0-3.7","mkfk8l3zcd","many_one","0","direct_first","1","nn06er03","0","19","1","1","3","1","sehr interessant!","0","1","0","1307.899999897927","","","<img src = 'targets/mask.png' width = '100%;'>","68","pos","CS","CS","1","category1/CS8.png","","targets/21.png","indirect","0","7"
"","html-keyboard-response","171","560994","0.0-10.0-0.8","mkfk8l3zcd","many_one","0","direct_first","1","nn06er03","0","19","1","1","3","1","sehr interessant!","0","1","0","null","","","<div style=""font-size:60px;"">+</div>","null","","","","","","","","","",""
"","html-keyboard-response","172","561092","0.0-10.0-1.8","mkfk8l3zcd","many_one","0","direct_first","1","nn06er03","0","19","1","1","3","1","sehr interessant!","0","1","0","null","","","<img src = 'category4/CS6.png' width = '100%;'>","null","","","","","","","","","",""
"","html-keyboard-response","173","561350","0.0-10.0-2.8","mkfk8l3zcd","many_one","0","direct_first","1","nn06er03","0","19","1","1","3","1","sehr interessant!","0","1","0","null","","","<img src = 'targets/17.png' width = '100%;'>","null","","","","","","","","","",""
"","html-keyboard-response","174","562978","0.0-10.0-3.8","mkfk8l3zcd","many_one","0","direct_first","1","nn06er03","0","19","1","1","3","1","sehr interessant!","0","1","0","1621.999999973923","","","<img src = 'targets/mask.png' width = '100%;'>","75","pos","CS","CS","4","category4/CS6.png","","targets/17.png","indirect","1","8"
"","html-keyboard-response","175","564482","0.0-10.0-0.9","mkfk8l3zcd","many_one","0","direct_first","1","nn06er03","0","19","1","1","3","1","sehr interessant!","0","1","0","null","","","<div style=""font-size:60px;"">+</div>","null","","","","","","","","","",""
"","html-keyboard-response","176","564576","0.0-10.0-1.9","mkfk8l3zcd","many_one","0","direct_first","1","nn06er03","0","19","1","1","3","1","sehr interessant!","0","1","0","null","","","<img src = 'category4/CS1.png' width = '100%;'>","null","","","","","","","","","",""
"","html-keyboard-response","177","564832","0.0-10.0-2.9","mkfk8l3zcd","many_one","0","direct_first","1","nn06er03","0","19","1","1","3","1","sehr interessant!","0","1","0","null","","","<img src = 'targets/19.png' width = '100%;'>","null","","","","","","","","","",""
"","html-keyboard-response","178","565221","0.0-10.0-3.9","mkfk8l3zcd","many_one","0","direct_first","1","nn06er03","0","19","1","1","3","1","sehr interessant!","0","1","0","380.4999999701977","","","<img src = 'targets/mask.png' width = '100%;'>","75","pos","CS","CS","4","category4/CS1.png","","targets/19.png","indirect","1","9"
"","html-keyboard-response","179","566726","0.0-10.0-0.10","mkfk8l3zcd","many_one","0","direct_first","1","nn06er03","0","19","1","1","3","1","sehr interessant!","0","1","0","null","","","<div style=""font-size:60px;"">+</div>","null","","","","","","","","","",""
"","html-keyboard-response","180","566824","0.0-10.0-1.10","mkfk8l3zcd","many_one","0","direct_first","1","nn06er03","0","19","1","1","3","1","sehr interessant!","0","1","0","null","","","<img src = 'category1/CS5.png' width = '100%;'>","null","","","","","","","","","",""
"","html-keyboard-response","181","567081","0.0-10.0-2.10","mkfk8l3zcd","many_one","0","direct_first","1","nn06er03","0","19","1","1","3","1","sehr interessant!","0","1","0","null","","","<img src = 'targets/30.png' width = '100%;'>","null","","","","","","","","","",""
"","html-keyboard-response","182","567615","0.0-10.0-3.10","mkfk8l3zcd","many_one","0","direct_first","1","nn06er03","0","19","1","1","3","1","sehr interessant!","0","1","0","528.6000000778586","","","<img src = 'targets/mask.png' width = '100%;'>","68","pos","CS","CS","1","category1/CS5.png","","targets/30.png","indirect","0","10"
"","html-keyboard-response","183","569120","0.0-10.0-0.11","mkfk8l3zcd","many_one","0","direct_first","1","nn06er03","0","19","1","1","3","1","sehr interessant!","0","1","0","null","","","<div style=""font-size:60px;"">+</div>","null","","","","","","","","","",""
"","html-keyboard-response","184","569218","0.0-10.0-1.11","mkfk8l3zcd","many_one","0","direct_first","1","nn06er03","0","19","1","1","3","1","sehr interessant!","0","1","0","null","","","<img src = 'category2/CS1.png' width = '100%;'>","null","","","","","","","","","",""
"","html-keyboard-response","185","569475","0.0-10.0-2.11","mkfk8l3zcd","many_one","0","direct_first","1","nn06er03","0","19","1","1","3","1","sehr interessant!","0","1","0","null","","","<img src = 'targets/39.png' width = '100%;'>","null","","","","","","","","","",""
"","html-keyboard-response","186","570224","0.0-10.0-3.11","mkfk8l3zcd","many_one","0","direct_first","1","nn06er03","0","19","1","1","3","1","sehr interessant!","0","1","0","744.1000000108033","","","<img src = 'targets/mask.png' width = '100%;'>","68","neg","GS","GSold","2","category2/CS1.png","","targets/39.png","indirect","0","11"
"","html-keyboard-response","187","571728","0.0-10.0-0.12","mkfk8l3zcd","many_one","0","direct_first","1","nn06er03","0","19","1","1","3","1","sehr interessant!","0","1","0","null","","","<div style=""font-size:60px;"">+</div>","null","","","","","","","","","",""
"","html-keyboard-response","188","571826","0.0-10.0-1.12","mkfk8l3zcd","many_one","0","direct_first","1","nn06er03","0","19","1","1","3","1","sehr interessant!","0","1","0","null","","","<img src = 'category3/CS1.png' width = '100%;'>","null","","","","","","","","","",""
"","html-keyboard-response","189","572083","0.0-10.0-2.12","mkfk8l3zcd","many_one","0","direct_first","1","nn06er03","0","19","1","1","3","1","sehr interessant!","0","1","0","null","","","<img src = 'targets/24.png' width = '100%;'>","null","","","","","","","","","",""
"","html-keyboard-response","190","572789","0.0-10.0-3.12","mkfk8l3zcd","many_one","0","direct_first","1","nn06er03","0","19","1","1","3","1","sehr interessant!","0","1","0","695.9999999962747","","","<img src = 'targets/mask.png' width = '100%;'>","68","neg","CS","CS","3","category3/CS1.png","","targets/24.png","indirect","0","12"
"","html-keyboard-response","191","574293","0.0-10.0-0.13","mkfk8l3zcd","many_one","0","direct_first","1","nn06er03","0","19","1","1","3","1","sehr interessant!","0","1","0","null","","","<div style=""font-size:60px;"">+</div>","null","","","","","","","","","",""
"","html-keyboard-response","192","574386","0.0-10.0-1.13","mkfk8l3zcd","many_one","0","direct_first","1","nn06er03","0","19","1","1","3","1","sehr interessant!","0","1","0","null","","","<img src = 'category3/CS8.png' width = '100%;'>","null","","","","","","","","","",""
"","html-keyboard-response","193","574640","0.0-10.0-2.13","mkfk8l3zcd","many_one","0","direct_first","1","nn06er03","0","19","1","1","3","1","sehr interessant!","0","1","0","null","","","<img src = 'targets/31.png' width = '100%;'>","null","","","","","","","","","",""
"","html-keyboard-response","194","576742","0.0-10.0-3.13","mkfk8l3zcd","many_one","0","direct_first","1","nn06er03","0","19","1","1","3","1","sehr interessant!","0","1","0","2098.299999954179","","","<img src = 'targets/mask.png' width = '100%;'>","75","neg","CS","CS","3","category3/CS8.png","","targets/31.png","indirect","1","13"
"","html-keyboard-response","195","578247","0.0-10.0-0.14","mkfk8l3zcd","many_one","0","direct_first","1","nn06er03","0","19","1","1","3","1","sehr interessant!","0","1","0","null","","","<div style=""font-size:60px;"">+</div>","null","","","","","","","","","",""
"","html-keyboard-response","196","578346","0.0-10.0-1.14","mkfk8l3zcd","many_one","0","direct_first","1","nn06er03","0","19","1","1","3","1","sehr interessant!","0","1","0","null","","","<img src = 'category2/CS4.png' width = '100%;'>","null","","","","","","","","","",""
"","html-keyboard-response","197","578604","0.0-10.0-2.14","mkfk8l3zcd","many_one","0","direct_first","1","nn06er03","0","19","1","1","3","1","sehr interessant!","0","1","0","null","","","<img src = 'targets/14.png' width = '100%;'>","null","","","","","","","","","",""
"","html-keyboard-response","198","580167","0.0-10.0-3.14","mkfk8l3zcd","many_one","0","direct_first","1","nn06er03","0","19","1","1","3","1","sehr interessant!","0","1","0","1552.3000000976026","","","<img src = 'targets/mask.png' width = '100%;'>","68","neg","CS","CS","2","category2/CS4.png","","targets/14.png","indirect","0","14"
"","html-keyboard-response","199","581675","0.0-10.0-0.15","mkfk8l3zcd","many_one","0","direct_first","1","nn06er03","0","19","1","1","3","1","sehr interessant!","0","1","0","null","","","<div style=""font-size:60px;"">+</div>","null","","","","","","","","","",""
"","html-keyboard-response","200","581774","0.0-10.0-1.15","mkfk8l3zcd","many_one","0","direct_first","1","nn06er03","0","19","1","1","3","1","sehr interessant!","0","1","0","null","","","<img src = 'category1/CS3.png' width = '100%;'>","null","","","","","","","","","",""
"","html-keyboard-response","201","582033","0.0-10.0-2.15","mkfk8l3zcd","many_one","0","direct_first","1","nn06er03","0","19","1","1","3","1","sehr interessant!","0","1","0","null","","","<img src = 'targets/43.png' width = '100%;'>","null","","","","","","","","","",""
"","html-keyboard-response","202","582594","0.0-10.0-3.15","mkfk8l3zcd","many_one","0","direct_first","1","nn06er03","0","19","1","1","3","1","sehr interessant!","0","1","0","550.4000000655651","","","<img src = 'targets/mask.png' width = '100%;'>","68","pos","CS","CS","1","category1/CS3.png","","targets/43.png","indirect","0","15"
"","html-keyboard-response","203","584099","0.0-10.0-0.16","mkfk8l3zcd","many_one","0","direct_first","1","nn06er03","0","19","1","1","3","1","sehr interessant!","0","1","0","null","","","<div style=""font-size:60px;"">+</div>","null","","","","","","","","","",""
"","html-keyboard-response","204","584203","0.0-10.0-1.16","mkfk8l3zcd","many_one","0","direct_first","1","nn06er03","0","19","1","1","3","1","sehr interessant!","0","1","0","null","","","<img src = 'category2/CS9.png' width = '100%;'>","null","","","","","","","","","",""
"","html-keyboard-response","205","584459","0.0-10.0-2.16","mkfk8l3zcd","many_one","0","direct_first","1","nn06er03","0","19","1","1","3","1","sehr interessant!","0","1","0","null","","","<img src = 'targets/18.png' width = '100%;'>","null","","","","","","","","","",""
"","html-keyboard-response","206","585567","0.0-10.0-3.16","mkfk8l3zcd","many_one","0","direct_first","1","nn06er03","0","19","1","1","3","1","sehr interessant!","0","1","0","1100.4000001121312","","","<img src = 'targets/mask.png' width = '100%;'>","68","neg","CS","CS","2","category2/CS9.png","","targets/18.png","indirect","0","16"
"","html-keyboard-response","207","587072","0.0-10.0-0.17","mkfk8l3zcd","many_one","0","direct_first","1","nn06er03","0","19","1","1","3","1","sehr interessant!","0","1","0","null","","","<div style=""font-size:60px;"">+</div>","null","","","","","","","","","",""
"","html-keyboard-response","208","587170","0.0-10.0-1.17","mkfk8l3zcd","many_one","0","direct_first","1","nn06er03","0","19","1","1","3","1","sehr interessant!","0","1","0","null","","","<img src = 'category3/CS6.png' width = '100%;'>","null","","","","","","","","","",""
"","html-keyboard-response","209","587428","0.0-10.0-2.17","mkfk8l3zcd","many_one","0","direct_first","1","nn06er03","0","19","1","1","3","1","sehr interessant!","0","1","0","null","","","<img src = 'targets/11.png' width = '100%;'>","null","","","","","","","","","",""
"","html-keyboard-response","210","588335","0.0-10.0-3.17","mkfk8l3zcd","many_one","0","direct_first","1","nn06er03","0","19","1","1","3","1","sehr interessant!","0","1","0","895.9999999497086","","","<img src = 'targets/mask.png' width = '100%;'>","68","neg","CS","CS","3","category3/CS6.png","","targets/11.png","indirect","0","17"
"","html-keyboard-response","211","589838","0.0-10.0-0.18","mkfk8l3zcd","many_one","0","direct_first","1","nn06er03","0","19","1","1","3","1","sehr interessant!","0","1","0","null","","","<div style=""font-size:60px;"">+</div>","null","","","","","","","","","",""
"","html-keyboard-response","212","589935","0.0-10.0-1.18","mkfk8l3zcd","many_one","0","direct_first","1","nn06er03","0","19","1","1","3","1","sehr interessant!","0","1","0","null","","","<img src = 'category4/CS2.png' width = '100%;'>","null","","","","","","","","","",""
"","html-keyboard-response","213","590192","0.0-10.0-2.18","mkfk8l3zcd","many_one","0","direct_first","1","nn06er03","0","19","1","1","3","1","sehr interessant!","0","1","0","null","","","<img src = 'targets/34.png' width = '100%;'>","null","","","","","","","","","",""
"","html-keyboard-response","214","590629","0.0-10.0-3.18","mkfk8l3zcd","many_one","0","direct_first","1","nn06er03","0","19","1","1","3","1","sehr interessant!","0","1","0","429.49999985285103","","","<img src = 'targets/mask.png' width = '100%;'>","75","pos","CS","CS","4","category4/CS2.png","","targets/34.png","indirect","1","18"
"","html-keyboard-response","215","592134","0.0-10.0-0.19","mkfk8l3zcd","many_one","0","direct_first","1","nn06er03","0","19","1","1","3","1","sehr interessant!","0","1","0","null","","","<div style=""font-size:60px;"">+</div>","null","","","","","","","","","",""
"","html-keyboard-response","216","592234","0.0-10.0-1.19","mkfk8l3zcd","many_one","0","direct_first","1","nn06er03","0","19","1","1","3","1","sehr interessant!","0","1","0","null","","","<img src = 'category2/CS10.png' width = '100%;'>","null","","","","","","","","","",""
"","html-keyboard-response","217","592492","0.0-10.0-2.19","mkfk8l3zcd","many_one","0","direct_first","1","nn06er03","0","19","1","1","3","1","sehr interessant!","0","1","0","null","","","<img src = 'targets/23.png' width = '100%;'>","null","","","","","","","","","",""
"","html-keyboard-response","218","593083","0.0-10.0-3.19","mkfk8l3zcd","many_one","0","direct_first","1","nn06er03","0","19","1","1","3","1","sehr interessant!","0","1","0","583.0999999307096","","","<img src = 'targets/mask.png' width = '100%;'>","75","neg","CS","CS","2","category2/CS10.png","","targets/23.png","indirect","1","19"
"","html-keyboard-response","219","594589","0.0-10.0-0.20","mkfk8l3zcd","many_one","0","direct_first","1","nn06er03","0","19","1","1","3","1","sehr interessant!","0","1","0","null","","","<div style=""font-size:60px;"">+</div>","null","","","","","","","","","",""
"","html-keyboard-response","220","594686","0.0-10.0-1.20","mkfk8l3zcd","many_one","0","direct_first","1","nn06er03","0","19","1","1","3","1","sehr interessant!","0","1","0","null","","","<img src = 'category3/CS4.png' width = '100%;'>","null","","","","","","","","","",""
"","html-keyboard-response","221","594943","0.0-10.0-2.20","mkfk8l3zcd","many_one","0","direct_first","1","nn06er03","0","19","1","1","3","1","sehr interessant!","0","1","0","null","","","<img src = 'targets/27.png' width = '100%;'>","null","","","","","","","","","",""
"","html-keyboard-response","222","595574","0.0-10.0-3.20","mkfk8l3zcd","many_one","0","direct_first","1","nn06er03","0","19","1","1","3","1","sehr interessant!","0","1","0","625.9999999310821","","","<img src = 'targets/mask.png' width = '100%;'>","75","neg","CS","CS","3","category3/CS4.png","","targets/27.png","indirect","1","20"
"","html-keyboard-response","223","597079","0.0-10.0-0.21","mkfk8l3zcd","many_one","0","direct_first","1","nn06er03","0","19","1","1","3","1","sehr interessant!","0","1","0","null","","","<div style=""font-size:60px;"">+</div>","null","","","","","","","","","",""
"","html-keyboard-response","224","597177","0.0-10.0-1.21","mkfk8l3zcd","many_one","0","direct_first","1","nn06er03","0","19","1","1","3","1","sehr interessant!","0","1","0","null","","","<img src = 'category4/CS9.png' width = '100%;'>","null","","","","","","","","","",""
"","html-keyboard-response","225","597435","0.0-10.0-2.21","mkfk8l3zcd","many_one","0","direct_first","1","nn06er03","0","19","1","1","3","1","sehr interessant!","0","1","0","null","","","<img src = 'targets/40.png' width = '100%;'>","null","","","","","","","","","",""
"","html-keyboard-response","226","597989","0.0-10.0-3.21","mkfk8l3zcd","many_one","0","direct_first","1","nn06er03","0","19","1","1","3","1","sehr interessant!","0","1","0","544.5000000763685","","","<img src = 'targets/mask.png' width = '100%;'>","75","pos","CS","CS","4","category4/CS9.png","","targets/40.png","indirect","1","21"
"","html-keyboard-response","227","599494","0.0-10.0-0.22","mkfk8l3zcd","many_one","0","direct_first","1","nn06er03","0","19","1","1","3","1","sehr interessant!","0","1","0","null","","","<div style=""font-size:60px;"">+</div>","null","","","","","","","","","",""
"","html-keyboard-response","228","599594","0.0-10.0-1.22","mkfk8l3zcd","many_one","0","direct_first","1","nn06er03","0","19","1","1","3","1","sehr interessant!","0","1","0","null","","","<img src = 'category2/CS7.png' width = '100%;'>","null","","","","","","","","","",""
"","html-keyboard-response","229","599852","0.0-10.0-2.22","mkfk8l3zcd","many_one","0","direct_first","1","nn06er03","0","19","1","1","3","1","sehr interessant!","0","1","0","null","","","<img src = 'targets/20.png' width = '100%;'>","null","","","","","","","","","",""
"","html-keyboard-response","230","600351","0.0-10.0-3.22","mkfk8l3zcd","many_one","0","direct_first","1","nn06er03","0","19","1","1","3","1","sehr interessant!","0","1","0","485.60000001452863","","","<img src = 'targets/mask.png' width = '100%;'>","75","neg","CS","CS","2","category2/CS7.png","","targets/20.png","indirect","1","22"
"","html-keyboard-response","231","601856","0.0-10.0-0.23","mkfk8l3zcd","many_one","0","direct_first","1","nn06er03","0","19","1","1","3","1","sehr interessant!","0","1","0","null","","","<div style=""font-size:60px;"">+</div>","null","","","","","","","","","",""
"","html-keyboard-response","232","601952","0.0-10.0-1.23","mkfk8l3zcd","many_one","0","direct_first","1","nn06er03","0","19","1","1","3","1","sehr interessant!","0","1","0","null","","","<img src = 'category2/CS6.png' width = '100%;'>","null","","","","","","","","","",""
"","html-keyboard-response","233","602206","0.0-10.0-2.23","mkfk8l3zcd","many_one","0","direct_first","1","nn06er03","0","19","1","1","3","1","sehr interessant!","0","1","0","null","","","<img src = 'targets/33.png' width = '100%;'>","null","","","","","","","","","",""
"","html-keyboard-response","234","602939","0.0-10.0-3.23","mkfk8l3zcd","many_one","0","direct_first","1","nn06er03","0","19","1","1","3","1","sehr interessant!","0","1","0","728.2000000122935","","","<img src = 'targets/mask.png' width = '100%;'>","68","neg","GS","GSold","2","category2/CS6.png","","targets/33.png","indirect","0","23"
"","survey-html-form","235","606148","0.0-11.0","mkfk8l3zcd","many_one","0","direct_first","1","nn06er03","0","19","1","1","3","1","sehr interessant!","0","1","0","2703.1000000424683","","{}","","","","","","","","","","","",""
"","html-keyboard-response","236","609155","0.0-12.0-0.0","mkfk8l3zcd","many_one","0","direct_first","1","nn06er03","0","19","1","1","3","1","sehr interessant!","0","1","0","null","","","<div style=""font-size:60px;"">+</div>","null","","","","","","","","","",""
"","html-keyboard-response","237","609254","0.0-12.0-1.0","mkfk8l3zcd","many_one","0","direct_first","1","nn06er03","0","19","1","1","3","1","sehr interessant!","0","1","0","null","","","<img src = 'category1/ma.png' width = '100%;'>","null","","","","","","","","","",""
"","html-keyboard-response","238","609511","0.0-12.0-2.0","mkfk8l3zcd","many_one","0","direct_first","1","nn06er03","0","19","1","1","3","1","sehr interessant!","0","1","0","null","","","<img src = 'targets/44.png' width = '100%;'>","null","","","","","","","","","",""
"","html-keyboard-response","239","611466","0.0-12.0-3.0","mkfk8l3zcd","many_one","0","direct_first","1","nn06er03","0","19","1","1","3","1","sehr interessant!","0","1","0","1945.900000166148","","","<img src = 'targets/mask.png' width = '100%;'>","75","pos","GS","abstract","1","category1/ma.png","","targets/44.png","indirect","1","24"
"","html-keyboard-response","240","612972","0.0-12.0-0.1","mkfk8l3zcd","many_one","0","direct_first","1","nn06er03","0","19","1","1","3","1","sehr interessant!","0","1","0","null","","","<div style=""font-size:60px;"">+</div>","null","","","","","","","","","",""
"","html-keyboard-response","241","613067","0.0-12.0-1.1","mkfk8l3zcd","many_one","0","direct_first","1","nn06er03","0","19","1","1","3","1","sehr interessant!","0","1","0","null","","","<img src = 'category3/CS10.png' width = '100%;'>","null","","","","","","","","","",""
"","html-keyboard-response","242","613326","0.0-12.0-2.1","mkfk8l3zcd","many_one","0","direct_first","1","nn06er03","0","19","1","1","3","1","sehr interessant!","0","1","0","null","","","<img src = 'targets/41.png' width = '100%;'>","null","","","","","","","","","",""
"","html-keyboard-response","243","613799","0.0-12.0-3.1","mkfk8l3zcd","many_one","0","direct_first","1","nn06er03","0","19","1","1","3","1","sehr interessant!","0","1","0","466.00000001490116","","","<img src = 'targets/mask.png' width = '100%;'>","68","neg","GS","GSold","3","category3/CS10.png","","targets/41.png","indirect","0","25"
"","html-keyboard-response","244","615303","0.0-12.0-0.2","mkfk8l3zcd","many_one","0","direct_first","1","nn06er03","0","19","1","1","3","1","sehr interessant!","0","1","0","null","","","<div style=""font-size:60px;"">+</div>","null","","","","","","","","","",""
"","html-keyboard-response","245","615402","0.0-12.0-1.2","mkfk8l3zcd","many_one","0","direct_first","1","nn06er03","0","19","1","1","3","1","sehr interessant!","0","1","0","null","","","<img src = 'category4/GS2.png' width = '100%;'>","null","","","","","","","","","",""
"","html-keyboard-response","246","615660","0.0-12.0-2.2","mkfk8l3zcd","many_one","0","direct_first","1","nn06er03","0","19","1","1","3","1","sehr interessant!","0","1","0","null","","","<img src = 'targets/36.png' width = '100%;'>","null","","","","","","","","","",""
"","html-keyboard-response","247","616236","0.0-12.0-3.2","mkfk8l3zcd","many_one","0","direct_first","1","nn06er03","0","19","1","1","3","1","sehr interessant!","0","1","0","562.3999999370426","","","<img src = 'targets/mask.png' width = '100%;'>","68","pos","GS","GSnew","4","category4/GS2.png","","targets/36.png","indirect","0","26"
"","html-keyboard-response","248","617741","0.0-12.0-0.3","mkfk8l3zcd","many_one","0","direct_first","1","nn06er03","0","19","1","1","3","1","sehr interessant!","0","1","0","null","","","<div style=""font-size:60px;"">+</div>","null","","","","","","","","","",""
"","html-keyboard-response","249","617840","0.0-12.0-1.3","mkfk8l3zcd","many_one","0","direct_first","1","nn06er03","0","19","1","1","3","1","sehr interessant!","0","1","0","null","","","<img src = 'category1/GS2.png' width = '100%;'>","null","","","","","","","","","",""
"","html-keyboard-response","250","618099","0.0-12.0-2.3","mkfk8l3zcd","many_one","0","direct_first","1","nn06er03","0","19","1","1","3","1","sehr interessant!","0","1","0","null","","","<img src = 'targets/7.png' width = '100%;'>","null","","","","","","","","","",""
"","html-keyboard-response","251","618486","0.0-12.0-3.3","mkfk8l3zcd","many_one","0","direct_first","1","nn06er03","0","19","1","1","3","1","sehr interessant!","0","1","0","377.09999992512167","","","<img src = 'targets/mask.png' width = '100%;'>","75","pos","GS","GSnew","1","category1/GS2.png","","targets/7.png","indirect","1","27"
"","html-keyboard-response","252","619990","0.0-12.0-0.4","mkfk8l3zcd","many_one","0","direct_first","1","nn06er03","0","19","1","1","3","1","sehr interessant!","0","1","0","null","","","<div style=""font-size:60px;"">+</div>","null","","","","","","","","","",""
"","html-keyboard-response","253","620084","0.0-12.0-1.4","mkfk8l3zcd","many_one","0","direct_first","1","nn06er03","0","19","1","1","3","1","sehr interessant!","0","1","0","null","","","<img src = 'category4/CS7.png' width = '100%;'>","null","","","","","","","","","",""
"","html-keyboard-response","254","620338","0.0-12.0-2.4","mkfk8l3zcd","many_one","0","direct_first","1","nn06er03","0","19","1","1","3","1","sehr interessant!","0","1","0","null","","","<img src = 'targets/48.png' width = '100%;'>","null","","","","","","","","","",""
"","html-keyboard-response","255","620758","0.0-12.0-3.4","mkfk8l3zcd","many_one","0","direct_first","1","nn06er03","0","19","1","1","3","1","sehr interessant!","0","1","0","415.49999988637865","","","<img src = 'targets/mask.png' width = '100%;'>","68","pos","GS","GSold","4","category4/CS7.png","","targets/48.png","indirect","0","28"
"","html-keyboard-response","256","622263","0.0-12.0-0.5","mkfk8l3zcd","many_one","0","direct_first","1","nn06er03","0","19","1","1","3","1","sehr interessant!","0","1","0","null","","","<div style=""font-size:60px;"">+</div>","null","","","","","","","","","",""
"","html-keyboard-response","257","622363","0.0-12.0-1.5","mkfk8l3zcd","many_one","0","direct_first","1","nn06er03","0","19","1","1","3","1","sehr interessant!","0","1","0","null","","","<img src = 'category3/GS3.png' width = '100%;'>","null","","","","","","","","","",""
"","html-keyboard-response","258","622621","0.0-12.0-2.5","mkfk8l3zcd","many_one","0","direct_first","1","nn06er03","0","19","1","1","3","1","sehr interessant!","0","1","0","null","","","<img src = 'targets/28.png' width = '100%;'>","null","","","","","","","","","",""
"","html-keyboard-response","259","623052","0.0-12.0-3.5","mkfk8l3zcd","many_one","0","direct_first","1","nn06er03","0","19","1","1","3","1","sehr interessant!","0","1","0","423.5000000335276","","","<img src = 'targets/mask.png' width = '100%;'>","75","neg","GS","GSnew","3","category3/GS3.png","","targets/28.png","indirect","1","29"
"","html-keyboard-response","260","624557","0.0-12.0-0.6","mkfk8l3zcd","many_one","0","direct_first","1","nn06er03","0","19","1","1","3","1","sehr interessant!","0","1","0","null","","","<div style=""font-size:60px;"">+</div>","null","","","","","","","","","",""
"","html-keyboard-response","261","624655","0.0-12.0-1.6","mkfk8l3zcd","many_one","0","direct_first","1","nn06er03","0","19","1","1","3","1","sehr interessant!","0","1","0","null","","","<img src = 'category4/CS3.png' width = '100%;'>","null","","","","","","","","","",""
"","html-keyboard-response","262","624914","0.0-12.0-2.6","mkfk8l3zcd","many_one","0","direct_first","1","nn06er03","0","19","1","1","3","1","sehr interessant!","0","1","0","null","","","<img src = 'targets/29.png' width = '100%;'>","null","","","","","","","","","",""
"","html-keyboard-response","263","625302","0.0-12.0-3.6","mkfk8l3zcd","many_one","0","direct_first","1","nn06er03","0","19","1","1","3","1","sehr interessant!","0","1","0","378.9000001270324","","","<img src = 'targets/mask.png' width = '100%;'>","75","pos","GS","GSold","4","category4/CS3.png","","targets/29.png","indirect","1","30"
"","html-keyboard-response","264","626805","0.0-12.0-0.7","mkfk8l3zcd","many_one","0","direct_first","1","nn06er03","0","19","1","1","3","1","sehr interessant!","0","1","0","null","","","<div style=""font-size:60px;"">+</div>","null","","","","","","","","","",""
"","html-keyboard-response","265","626910","0.0-12.0-1.7","mkfk8l3zcd","many_one","0","direct_first","1","nn06er03","0","19","1","1","3","1","sehr interessant!","0","1","0","null","","","<img src = 'category2/men.png' width = '100%;'>","null","","","","","","","","","",""
"","html-keyboard-response","266","627168","0.0-12.0-2.7","mkfk8l3zcd","many_one","0","direct_first","1","nn06er03","0","19","1","1","3","1","sehr interessant!","0","1","0","null","","","<img src = 'targets/9.png' width = '100%;'>","null","","","","","","","","","",""
"","html-keyboard-response","267","627756","0.0-12.0-3.7","mkfk8l3zcd","many_one","0","direct_first","1","nn06er03","0","19","1","1","3","1","sehr interessant!","0","1","0","576.500000199303","","","<img src = 'targets/mask.png' width = '100%;'>","75","neg","GS","abstract","2","category2/men.png","","targets/9.png","indirect","1","31"
"","html-keyboard-response","268","629262","0.0-12.0-0.8","mkfk8l3zcd","many_one","0","direct_first","1","nn06er03","0","19","1","1","3","1","sehr interessant!","0","1","0","null","","","<div style=""font-size:60px;"">+</div>","null","","","","","","","","","",""
"","html-keyboard-response","269","629359","0.0-12.0-1.8","mkfk8l3zcd","many_one","0","direct_first","1","nn06er03","0","19","1","1","3","1","sehr interessant!","0","1","0","null","","","<img src = 'category1/CS10.png' width = '100%;'>","null","","","","","","","","","",""
"","html-keyboard-response","270","629616","0.0-12.0-2.8","mkfk8l3zcd","many_one","0","direct_first","1","nn06er03","0","19","1","1","3","1","sehr interessant!","0","1","0","null","","","<img src = 'targets/45.png' width = '100%;'>","null","","","","","","","","","",""
"","html-keyboard-response","271","630413","0.0-12.0-3.8","mkfk8l3zcd","many_one","0","direct_first","1","nn06er03","0","19","1","1","3","1","sehr interessant!","0","1","0","787.6999999862164","","","<img src = 'targets/mask.png' width = '100%;'>","68","pos","GS","GSold","1","category1/CS10.png","","targets/45.png","indirect","0","32"
"","html-keyboard-response","272","631918","0.0-12.0-0.9","mkfk8l3zcd","many_one","0","direct_first","1","nn06er03","0","19","1","1","3","1","sehr interessant!","0","1","0","null","","","<div style=""font-size:60px;"">+</div>","null","","","","","","","","","",""
"","html-keyboard-response","273","632013","0.0-12.0-1.9","mkfk8l3zcd","many_one","0","direct_first","1","nn06er03","0","19","1","1","3","1","sehr interessant!","0","1","0","null","","","<img src = 'category1/GS1.png' width = '100%;'>","null","","","","","","","","","",""
"","html-keyboard-response","274","632268","0.0-12.0-2.9","mkfk8l3zcd","many_one","0","direct_first","1","nn06er03","0","19","1","1","3","1","sehr interessant!","0","1","0","null","","","<img src = 'targets/3.png' width = '100%;'>","null","","","","","","","","","",""
"","html-keyboard-response","275","632834","0.0-12.0-3.9","mkfk8l3zcd","many_one","0","direct_first","1","nn06er03","0","19","1","1","3","1","sehr interessant!","0","1","0","560.9999999869615","","","<img src = 'targets/mask.png' width = '100%;'>","75","pos","GS","GSnew","1","category1/GS1.png","","targets/3.png","indirect","1","33"
"","html-keyboard-response","276","634339","0.0-12.0-0.10","mkfk8l3zcd","many_one","0","direct_first","1","nn06er03","0","19","1","1","3","1","sehr interessant!","0","1","0","null","","","<div style=""font-size:60px;"">+</div>","null","","","","","","","","","",""
"","html-keyboard-response","277","634438","0.0-12.0-1.10","mkfk8l3zcd","many_one","0","direct_first","1","nn06er03","0","19","1","1","3","1","sehr interessant!","0","1","0","null","","","<img src = 'category4/GS3.png' width = '100%;'>","null","","","","","","","","","",""
"","html-keyboard-response","278","634697","0.0-12.0-2.10","mkfk8l3zcd","many_one","0","direct_first","1","nn06er03","0","19","1","1","3","1","sehr interessant!","0","1","0","null","","","<img src = 'targets/12.png' width = '100%;'>","null","","","","","","","","","",""
"","html-keyboard-response","279","635337","0.0-12.0-3.10","mkfk8l3zcd","many_one","0","direct_first","1","nn06er03","0","19","1","1","3","1","sehr interessant!","0","1","0","634.7999998833984","","","<img src = 'targets/mask.png' width = '100%;'>","68","pos","GS","GSnew","4","category4/GS3.png","","targets/12.png","indirect","0","34"
"","html-keyboard-response","280","636843","0.0-12.0-0.11","mkfk8l3zcd","many_one","0","direct_first","1","nn06er03","0","19","1","1","3","1","sehr interessant!","0","1","0","null","","","<div style=""font-size:60px;"">+</div>","null","","","","","","","","","",""
"","html-keyboard-response","281","636942","0.0-12.0-1.11","mkfk8l3zcd","many_one","0","direct_first","1","nn06er03","0","19","1","1","3","1","sehr interessant!","0","1","0","null","","","<img src = 'category2/GS2.png' width = '100%;'>","null","","","","","","","","","",""
"","html-keyboard-response","282","637199","0.0-12.0-2.11","mkfk8l3zcd","many_one","0","direct_first","1","nn06er03","0","19","1","1","3","1","sehr interessant!","0","1","0","null","","","<img src = 'targets/25.png' width = '100%;'>","null","","","","","","","","","",""
"","html-keyboard-response","283","637678","0.0-12.0-3.11","mkfk8l3zcd","many_one","0","direct_first","1","nn06er03","0","19","1","1","3","1","sehr interessant!","0","1","0","469.5000001229346","","","<img src = 'targets/mask.png' width = '100%;'>","75","neg","GS","GSnew","2","category2/GS2.png","","targets/25.png","indirect","1","35"
"","html-keyboard-response","284","639183","0.0-12.0-0.12","mkfk8l3zcd","many_one","0","direct_first","1","nn06er03","0","19","1","1","3","1","sehr interessant!","0","1","0","null","","","<div style=""font-size:60px;"">+</div>","null","","","","","","","","","",""
"","html-keyboard-response","285","639281","0.0-12.0-1.12","mkfk8l3zcd","many_one","0","direct_first","1","nn06er03","0","19","1","1","3","1","sehr interessant!","0","1","0","null","","","<img src = 'category3/GS2.png' width = '100%;'>","null","","","","","","","","","",""
"","html-keyboard-response","286","639538","0.0-12.0-2.12","mkfk8l3zcd","many_one","0","direct_first","1","nn06er03","0","19","1","1","3","1","sehr interessant!","0","1","0","null","","","<img src = 'targets/5.png' width = '100%;'>","null","","","","","","","","","",""
"","html-keyboard-response","287","640670","0.0-12.0-3.12","mkfk8l3zcd","many_one","0","direct_first","1","nn06er03","0","19","1","1","3","1","sehr interessant!","0","1","0","1125.1999998930842","","","<img src = 'targets/mask.png' width = '100%;'>","68","neg","GS","GSnew","3","category3/GS2.png","","targets/5.png","indirect","0","36"
"","html-keyboard-response","288","642175","0.0-12.0-0.13","mkfk8l3zcd","many_one","0","direct_first","1","nn06er03","0","19","1","1","3","1","sehr interessant!","0","1","0","null","","","<div style=""font-size:60px;"">+</div>","null","","","","","","","","","",""
"","html-keyboard-response","289","642274","0.0-12.0-1.13","mkfk8l3zcd","many_one","0","direct_first","1","nn06er03","0","19","1","1","3","1","sehr interessant!","0","1","0","null","","","<img src = 'category1/GS3.png' width = '100%;'>","null","","","","","","","","","",""
"","html-keyboard-response","290","642531","0.0-12.0-2.13","mkfk8l3zcd","many_one","0","direct_first","1","nn06er03","0","19","1","1","3","1","sehr interessant!","0","1","0","null","","","<img src = 'targets/6.png' width = '100%;'>","null","","","","","","","","","",""
"","html-keyboard-response","291","643011","0.0-12.0-3.13","mkfk8l3zcd","many_one","0","direct_first","1","nn06er03","0","19","1","1","3","1","sehr interessant!","0","1","0","467.39999996498227","","","<img src = 'targets/mask.png' width = '100%;'>","68","pos","GS","GSnew","1","category1/GS3.png","","targets/6.png","indirect","0","37"
"","html-keyboard-response","292","644515","0.0-12.0-0.14","mkfk8l3zcd","many_one","0","direct_first","1","nn06er03","0","19","1","1","3","1","sehr interessant!","0","1","0","null","","","<div style=""font-size:60px;"">+</div>","null","","","","","","","","","",""
"","html-keyboard-response","293","644610","0.0-12.0-1.14","mkfk8l3zcd","many_one","0","direct_first","1","nn06er03","0","19","1","1","3","1","sehr interessant!","0","1","0","null","","","<img src = 'category3/GS1.png' width = '100%;'>","null","","","","","","","","","",""
"","html-keyboard-response","294","644864","0.0-12.0-2.14","mkfk8l3zcd","many_one","0","direct_first","1","nn06er03","0","19","1","1","3","1","sehr interessant!","0","1","0","null","","","<img src = 'targets/13.png' width = '100%;'>","null","","","","","","","","","",""
"","html-keyboard-response","295","645508","0.0-12.0-3.14","mkfk8l3zcd","many_one","0","direct_first","1","nn06er03","0","19","1","1","3","1","sehr interessant!","0","1","0","639.6999999415129","","","<img src = 'targets/mask.png' width = '100%;'>","75","neg","GS","GSnew","3","category3/GS1.png","","targets/13.png","indirect","1","38"
"","html-keyboard-response","296","647023","0.0-12.0-0.15","mkfk8l3zcd","many_one","0","direct_first","1","nn06er03","0","19","1","1","3","1","sehr interessant!","0","1","0","null","","","<div style=""font-size:60px;"">+</div>","null","","","","","","","","","",""
"","html-keyboard-response","297","647123","0.0-12.0-1.15","mkfk8l3zcd","many_one","0","direct_first","1","nn06er03","0","19","1","1","3","1","sehr interessant!","0","1","0","null","","","<img src = 'category3/CS3.png' width = '100%;'>","null","","","","","","","","","",""
"","html-keyboard-response","298","647380","0.0-12.0-2.15","mkfk8l3zcd","many_one","0","direct_first","1","nn06er03","0","19","1","1","3","1","sehr interessant!","0","1","0","null","","","<img src = 'targets/4.png' width = '100%;'>","null","","","","","","","","","",""
"","html-keyboard-response","299","647826","0.0-12.0-3.15","mkfk8l3zcd","many_one","0","direct_first","1","nn06er03","0","19","1","1","3","1","sehr interessant!","0","1","0","436.90000008791685","","","<img src = 'targets/mask.png' width = '100%;'>","75","neg","GS","GSold","3","category3/CS3.png","","targets/4.png","indirect","1","39"
"","html-keyboard-response","300","649331","0.0-12.0-0.16","mkfk8l3zcd","many_one","0","direct_first","1","nn06er03","0","19","1","1","3","1","sehr interessant!","0","1","0","null","","","<div style=""font-size:60px;"">+</div>","null","","","","","","","","","",""
"","html-keyboard-response","301","649430","0.0-12.0-1.16","mkfk8l3zcd","many_one","0","direct_first","1","nn06er03","0","19","1","1","3","1","sehr interessant!","0","1","0","null","","","<img src = 'category2/GS3.png' width = '100%;'>","null","","","","","","","","","",""
"","html-keyboard-response","302","649687","0.0-12.0-2.16","mkfk8l3zcd","many_one","0","direct_first","1","nn06er03","0","19","1","1","3","1","sehr interessant!","0","1","0","null","","","<img src = 'targets/37.png' width = '100%;'>","null","","","","","","","","","",""
"","html-keyboard-response","303","650270","0.0-12.0-3.16","mkfk8l3zcd","many_one","0","direct_first","1","nn06er03","0","19","1","1","3","1","sehr interessant!","0","1","0","576.100000180304","","","<img src = 'targets/mask.png' width = '100%;'>","75","neg","GS","GSnew","2","category2/GS3.png","","targets/37.png","indirect","1","40"
"","html-keyboard-response","304","651774","0.0-12.0-0.17","mkfk8l3zcd","many_one","0","direct_first","1","nn06er03","0","19","1","1","3","1","sehr interessant!","0","1","0","null","","","<div style=""font-size:60px;"">+</div>","null","","","","","","","","","",""
"","html-keyboard-response","305","651872","0.0-12.0-1.17","mkfk8l3zcd","many_one","0","direct_first","1","nn06er03","0","19","1","1","3","1","sehr interessant!","0","1","0","null","","","<img src = 'category1/CS2.png' width = '100%;'>","null","","","","","","","","","",""
"","html-keyboard-response","306","652130","0.0-12.0-2.17","mkfk8l3zcd","many_one","0","direct_first","1","nn06er03","0","19","1","1","3","1","sehr interessant!","0","1","0","null","","","<img src = 'targets/42.png' width = '100%;'>","null","","","","","","","","","",""
"","html-keyboard-response","307","652977","0.0-12.0-3.17","mkfk8l3zcd","many_one","0","direct_first","1","nn06er03","0","19","1","1","3","1","sehr interessant!","0","1","0","838.5999999009073","","","<img src = 'targets/mask.png' width = '100%;'>","68","pos","GS","GSold","1","category1/CS2.png","","targets/42.png","indirect","0","41"
