"success","trial_type","trial_index","time_elapsed","internal_node_id","subject","condition","condition_code","measure","measure_code","codeword","gender","age","education","chinese","fach","handedness","comment","hinschauen","ablenkung","gewissenhaft","rt","url","responses","stimulus","key_press","val","type","type_specific","category","cs_selected","response","target","task","indirect","nr_pres"
"true","fullscreen","0","33588","0.0-0.0","vxn9hs7gxn","many_one","0","direct_first","1","kinaen04","0","20","1","1","3","1","Mir ist aufgefallen, dass vermutlich die verschiedenen Hirnhälften angesprochen wurden (Logik, Kreativität)","0","1","0","","","","","","","","","","","","","","",""
"","external-html","1","79643","0.0-1.0","vxn9hs7gxn","many_one","0","direct_first","1","kinaen04","0","20","1","1","3","1","Mir ist aufgefallen, dass vermutlich die verschiedenen Hirnhälften angesprochen wurden (Logik, Kreativität)","0","1","0","45986.55500006862","text/information.html","","","","","","","","","","","","",""
"","external-html","2","110810","0.0-2.0","vxn9hs7gxn","many_one","0","direct_first","1","kinaen04","0","20","1","1","3","1","Mir ist aufgefallen, dass vermutlich die verschiedenen Hirnhälften angesprochen wurden (Logik, Kreativität)","0","1","0","31087.704999838024","text/consent.html","","","","","","","","","","","","",""
"","survey-html-form","3","158732","0.0-3.0","vxn9hs7gxn","many_one","0","direct_first","1","kinaen04","0","20","1","1","3","1","Mir ist aufgefallen, dass vermutlich die verschiedenen Hirnhälften angesprochen wurden (Logik, Kreativität)","0","1","0","47915.40000005625","","{""codeword_enter"":""kinaen04""}","","","","","","","","","","","",""
"","survey-html-form","4","184193","0.0-4.0","vxn9hs7gxn","many_one","0","direct_first","1","kinaen04","0","20","1","1","3","1","Mir ist aufgefallen, dass vermutlich die verschiedenen Hirnhälften angesprochen wurden (Logik, Kreativität)","0","1","0","25450.355000095442","","{""age"":""20"",""education"":""1"",""subject"":""3"",""gender"":""0"",""handedness"":""1"",""chinese"":""1""}","","","","","","","","","","","",""
"","survey-html-form","5","188427","0.0-5.0","vxn9hs7gxn","many_one","0","direct_first","1","kinaen04","0","20","1","1","3","1","Mir ist aufgefallen, dass vermutlich die verschiedenen Hirnhälften angesprochen wurden (Logik, Kreativität)","0","1","0","4227.610000176355","","{}","","","","","","","","","","","",""
"","html-keyboard-response","6","192439","0.0-6.0-0.0-0.0","vxn9hs7gxn","many_one","0","direct_first","1","kinaen04","0","20","1","1","3","1","Mir ist aufgefallen, dass vermutlich die verschiedenen Hirnhälften angesprochen wurden (Logik, Kreativität)","0","1","0","null","","","<div class = 'row'><div class = 'column'><img src = 'usneg/9000.bmp' width = '100%;'></div><div class = 'column'><img src = 'category1/CS8.png' width = '70%;'></div></div>","null","neg","CS","CS","1","category1/CS8.png","","","","",""
"","html-keyboard-response","7","194945","0.0-6.0-0.0-0.1","vxn9hs7gxn","many_one","0","direct_first","1","kinaen04","0","20","1","1","3","1","Mir ist aufgefallen, dass vermutlich die verschiedenen Hirnhälften angesprochen wurden (Logik, Kreativität)","0","1","0","null","","","<div class = 'row'><div class = 'column'><img src = 'category4/CS5.png' width = '70%;'></div><div class = 'column'><img src = 'usneg/6020.bmp' width = '100%;'></div></div>","null","neg","CS","CS","4","category4/CS5.png","","","","",""
"","html-keyboard-response","8","197452","0.0-6.0-0.0-0.2","vxn9hs7gxn","many_one","0","direct_first","1","kinaen04","0","20","1","1","3","1","Mir ist aufgefallen, dass vermutlich die verschiedenen Hirnhälften angesprochen wurden (Logik, Kreativität)","0","1","0","null","","","<div class = 'row'><div class = 'column'><img src = 'category3/CS3.png' width = '70%;'></div><div class = 'column'><img src = 'uspos/8540.bmp' width = '100%;'></div></div>","null","pos","CS","CS","3","category3/CS3.png","","","","",""
"","html-keyboard-response","9","199956","0.0-6.0-0.0-0.3","vxn9hs7gxn","many_one","0","direct_first","1","kinaen04","0","20","1","1","3","1","Mir ist aufgefallen, dass vermutlich die verschiedenen Hirnhälften angesprochen wurden (Logik, Kreativität)","0","1","0","null","","","<div class = 'row'><div class = 'column'><img src = 'uspos/2058.bmp' width = '100%;'></div><div class = 'column'><img src = 'category3/CS9.png' width = '70%;'></div></div>","null","pos","CS","CS","3","category3/CS9.png","","","","",""
"","html-keyboard-response","10","202462","0.0-6.0-0.0-0.4","vxn9hs7gxn","many_one","0","direct_first","1","kinaen04","0","20","1","1","3","1","Mir ist aufgefallen, dass vermutlich die verschiedenen Hirnhälften angesprochen wurden (Logik, Kreativität)","0","1","0","null","","","<div class = 'row'><div class = 'column'><img src = 'category2/CS1.png' width = '70%;'></div><div class = 'column'><img src = 'uspos/5470.bmp' width = '100%;'></div></div>","null","pos","CS","CS","2","category2/CS1.png","","","","",""
"","html-keyboard-response","11","204969","0.0-6.0-0.0-0.5","vxn9hs7gxn","many_one","0","direct_first","1","kinaen04","0","20","1","1","3","1","Mir ist aufgefallen, dass vermutlich die verschiedenen Hirnhälften angesprochen wurden (Logik, Kreativität)","0","1","0","null","","","<div class = 'row'><div class = 'column'><img src = 'uspos/2340.bmp' width = '100%;'></div><div class = 'column'><img src = 'category2/CS6.png' width = '70%;'></div></div>","null","pos","CS","CS","2","category2/CS6.png","","","","",""
"","html-keyboard-response","12","207475","0.0-6.0-0.0-0.6","vxn9hs7gxn","many_one","0","direct_first","1","kinaen04","0","20","1","1","3","1","Mir ist aufgefallen, dass vermutlich die verschiedenen Hirnhälften angesprochen wurden (Logik, Kreativität)","0","1","0","null","","","<div class = 'row'><div class = 'column'><img src = 'category3/CS1.png' width = '70%;'></div><div class = 'column'><img src = 'uspos/5830.bmp' width = '100%;'></div></div>","null","pos","CS","CS","3","category3/CS1.png","","","","",""
"","html-keyboard-response","13","209981","0.0-6.0-0.0-0.7","vxn9hs7gxn","many_one","0","direct_first","1","kinaen04","0","20","1","1","3","1","Mir ist aufgefallen, dass vermutlich die verschiedenen Hirnhälften angesprochen wurden (Logik, Kreativität)","0","1","0","null","","","<div class = 'row'><div class = 'column'><img src = 'category2/CS2.png' width = '70%;'></div><div class = 'column'><img src = 'uspos/2165.bmp' width = '100%;'></div></div>","null","pos","CS","CS","2","category2/CS2.png","","","","",""
"","html-keyboard-response","14","212488","0.0-6.0-0.0-0.8","vxn9hs7gxn","many_one","0","direct_first","1","kinaen04","0","20","1","1","3","1","Mir ist aufgefallen, dass vermutlich die verschiedenen Hirnhälften angesprochen wurden (Logik, Kreativität)","0","1","0","null","","","<div class = 'row'><div class = 'column'><img src = 'usneg/9041.bmp' width = '100%;'></div><div class = 'column'><img src = 'category4/CS1.png' width = '70%;'></div></div>","null","neg","CS","CS","4","category4/CS1.png","","","","",""
"","html-keyboard-response","15","214993","0.0-6.0-0.0-0.9","vxn9hs7gxn","many_one","0","direct_first","1","kinaen04","0","20","1","1","3","1","Mir ist aufgefallen, dass vermutlich die verschiedenen Hirnhälften angesprochen wurden (Logik, Kreativität)","0","1","0","null","","","<div class = 'row'><div class = 'column'><img src = 'uspos/8080.bmp' width = '100%;'></div><div class = 'column'><img src = 'category2/CS8.png' width = '70%;'></div></div>","null","pos","CS","CS","2","category2/CS8.png","","","","",""
"","html-keyboard-response","16","217498","0.0-6.0-0.0-0.10","vxn9hs7gxn","many_one","0","direct_first","1","kinaen04","0","20","1","1","3","1","Mir ist aufgefallen, dass vermutlich die verschiedenen Hirnhälften angesprochen wurden (Logik, Kreativität)","0","1","0","null","","","<div class = 'row'><div class = 'column'><img src = 'category3/CS2.png' width = '70%;'></div><div class = 'column'><img src = 'uspos/1460.bmp' width = '100%;'></div></div>","null","pos","CS","CS","3","category3/CS2.png","","","","",""
"","html-keyboard-response","17","220006","0.0-6.0-0.0-0.11","vxn9hs7gxn","many_one","0","direct_first","1","kinaen04","0","20","1","1","3","1","Mir ist aufgefallen, dass vermutlich die verschiedenen Hirnhälften angesprochen wurden (Logik, Kreativität)","0","1","0","null","","","<div class = 'row'><div class = 'column'><img src = 'category4/CS7.png' width = '70%;'></div><div class = 'column'><img src = 'usneg/9520.bmp' width = '100%;'></div></div>","null","neg","CS","CS","4","category4/CS7.png","","","","",""
"","html-keyboard-response","18","222512","0.0-6.0-0.0-0.12","vxn9hs7gxn","many_one","0","direct_first","1","kinaen04","0","20","1","1","3","1","Mir ist aufgefallen, dass vermutlich die verschiedenen Hirnhälften angesprochen wurden (Logik, Kreativität)","0","1","0","null","","","<div class = 'row'><div class = 'column'><img src = 'category4/CS8.png' width = '70%;'></div><div class = 'column'><img src = 'usneg/9290.bmp' width = '100%;'></div></div>","null","neg","CS","CS","4","category4/CS8.png","","","","",""
"","html-keyboard-response","19","225019","0.0-6.0-0.0-0.13","vxn9hs7gxn","many_one","0","direct_first","1","kinaen04","0","20","1","1","3","1","Mir ist aufgefallen, dass vermutlich die verschiedenen Hirnhälften angesprochen wurden (Logik, Kreativität)","0","1","0","null","","","<div class = 'row'><div class = 'column'><img src = 'uspos/7325.bmp' width = '100%;'></div><div class = 'column'><img src = 'category2/CS4.png' width = '70%;'></div></div>","null","pos","CS","CS","2","category2/CS4.png","","","","",""
"","html-keyboard-response","20","227526","0.0-6.0-0.0-0.14","vxn9hs7gxn","many_one","0","direct_first","1","kinaen04","0","20","1","1","3","1","Mir ist aufgefallen, dass vermutlich die verschiedenen Hirnhälften angesprochen wurden (Logik, Kreativität)","0","1","0","null","","","<div class = 'row'><div class = 'column'><img src = 'category1/CS7.png' width = '70%;'></div><div class = 'column'><img src = 'usneg/9050.bmp' width = '100%;'></div></div>","null","neg","CS","CS","1","category1/CS7.png","","","","",""
"","html-keyboard-response","21","230030","0.0-6.0-0.0-0.15","vxn9hs7gxn","many_one","0","direct_first","1","kinaen04","0","20","1","1","3","1","Mir ist aufgefallen, dass vermutlich die verschiedenen Hirnhälften angesprochen wurden (Logik, Kreativität)","0","1","0","null","","","<div class = 'row'><div class = 'column'><img src = 'usneg/3160.bmp' width = '100%;'></div><div class = 'column'><img src = 'category1/CS10.png' width = '70%;'></div></div>","null","neg","CS","CS","1","category1/CS10.png","","","","",""
"","html-keyboard-response","22","232538","0.0-6.0-0.0-0.16","vxn9hs7gxn","many_one","0","direct_first","1","kinaen04","0","20","1","1","3","1","Mir ist aufgefallen, dass vermutlich die verschiedenen Hirnhälften angesprochen wurden (Logik, Kreativität)","0","1","0","null","","","<div class = 'row'><div class = 'column'><img src = 'usneg/9220.bmp' width = '100%;'></div><div class = 'column'><img src = 'category4/CS3.png' width = '70%;'></div></div>","null","neg","CS","CS","4","category4/CS3.png","","","","",""
"","html-keyboard-response","23","235044","0.0-6.0-0.0-0.17","vxn9hs7gxn","many_one","0","direct_first","1","kinaen04","0","20","1","1","3","1","Mir ist aufgefallen, dass vermutlich die verschiedenen Hirnhälften angesprochen wurden (Logik, Kreativität)","0","1","0","null","","","<div class = 'row'><div class = 'column'><img src = 'usneg/2205.bmp' width = '100%;'></div><div class = 'column'><img src = 'category1/CS2.png' width = '70%;'></div></div>","null","neg","CS","CS","1","category1/CS2.png","","","","",""
"","html-keyboard-response","24","237552","0.0-6.0-0.0-0.18","vxn9hs7gxn","many_one","0","direct_first","1","kinaen04","0","20","1","1","3","1","Mir ist aufgefallen, dass vermutlich die verschiedenen Hirnhälften angesprochen wurden (Logik, Kreativität)","0","1","0","null","","","<div class = 'row'><div class = 'column'><img src = 'category1/CS4.png' width = '70%;'></div><div class = 'column'><img src = 'usneg/9560.bmp' width = '100%;'></div></div>","null","neg","CS","CS","1","category1/CS4.png","","","","",""
"","html-keyboard-response","25","240060","0.0-6.0-0.0-0.19","vxn9hs7gxn","many_one","0","direct_first","1","kinaen04","0","20","1","1","3","1","Mir ist aufgefallen, dass vermutlich die verschiedenen Hirnhälften angesprochen wurden (Logik, Kreativität)","0","1","0","null","","","<div class = 'row'><div class = 'column'><img src = 'category3/CS6.png' width = '70%;'></div><div class = 'column'><img src = 'uspos/2030.bmp' width = '100%;'></div></div>","null","pos","CS","CS","3","category3/CS6.png","","","","",""
"","survey-html-form","26","244052","0.0-6.0-1.0","vxn9hs7gxn","many_one","0","direct_first","1","kinaen04","0","20","1","1","3","1","Mir ist aufgefallen, dass vermutlich die verschiedenen Hirnhälften angesprochen wurden (Logik, Kreativität)","0","1","0","3490.4849999584258","","{}","","","","","","","","","","","",""
"","html-keyboard-response","27","248059","0.0-6.0-2.0-0.0","vxn9hs7gxn","many_one","0","direct_first","1","kinaen04","0","20","1","1","3","1","Mir ist aufgefallen, dass vermutlich die verschiedenen Hirnhälften angesprochen wurden (Logik, Kreativität)","0","1","0","null","","","<div class = 'row'><div class = 'column'><img src = 'category1/CS7.png' width = '70%;'></div><div class = 'column'><img src = 'usneg/9050.bmp' width = '100%;'></div></div>","null","neg","CS","CS","1","category1/CS7.png","","","","",""
"","html-keyboard-response","28","250566","0.0-6.0-2.0-0.1","vxn9hs7gxn","many_one","0","direct_first","1","kinaen04","0","20","1","1","3","1","Mir ist aufgefallen, dass vermutlich die verschiedenen Hirnhälften angesprochen wurden (Logik, Kreativität)","0","1","0","null","","","<div class = 'row'><div class = 'column'><img src = 'uspos/8540.bmp' width = '100%;'></div><div class = 'column'><img src = 'category3/CS3.png' width = '70%;'></div></div>","null","pos","CS","CS","3","category3/CS3.png","","","","",""
"","html-keyboard-response","29","253072","0.0-6.0-2.0-0.2","vxn9hs7gxn","many_one","0","direct_first","1","kinaen04","0","20","1","1","3","1","Mir ist aufgefallen, dass vermutlich die verschiedenen Hirnhälften angesprochen wurden (Logik, Kreativität)","0","1","0","null","","","<div class = 'row'><div class = 'column'><img src = 'category4/CS8.png' width = '70%;'></div><div class = 'column'><img src = 'usneg/9290.bmp' width = '100%;'></div></div>","null","neg","CS","CS","4","category4/CS8.png","","","","",""
"","html-keyboard-response","30","255577","0.0-6.0-2.0-0.3","vxn9hs7gxn","many_one","0","direct_first","1","kinaen04","0","20","1","1","3","1","Mir ist aufgefallen, dass vermutlich die verschiedenen Hirnhälften angesprochen wurden (Logik, Kreativität)","0","1","0","null","","","<div class = 'row'><div class = 'column'><img src = 'usneg/9000.bmp' width = '100%;'></div><div class = 'column'><img src = 'category1/CS8.png' width = '70%;'></div></div>","null","neg","CS","CS","1","category1/CS8.png","","","","",""
"","html-keyboard-response","31","258083","0.0-6.0-2.0-0.4","vxn9hs7gxn","many_one","0","direct_first","1","kinaen04","0","20","1","1","3","1","Mir ist aufgefallen, dass vermutlich die verschiedenen Hirnhälften angesprochen wurden (Logik, Kreativität)","0","1","0","null","","","<div class = 'row'><div class = 'column'><img src = 'usneg/9520.bmp' width = '100%;'></div><div class = 'column'><img src = 'category4/CS7.png' width = '70%;'></div></div>","null","neg","CS","CS","4","category4/CS7.png","","","","",""
"","html-keyboard-response","32","260589","0.0-6.0-2.0-0.5","vxn9hs7gxn","many_one","0","direct_first","1","kinaen04","0","20","1","1","3","1","Mir ist aufgefallen, dass vermutlich die verschiedenen Hirnhälften angesprochen wurden (Logik, Kreativität)","0","1","0","null","","","<div class = 'row'><div class = 'column'><img src = 'category2/CS8.png' width = '70%;'></div><div class = 'column'><img src = 'uspos/8080.bmp' width = '100%;'></div></div>","null","pos","CS","CS","2","category2/CS8.png","","","","",""
"","html-keyboard-response","33","263096","0.0-6.0-2.0-0.6","vxn9hs7gxn","many_one","0","direct_first","1","kinaen04","0","20","1","1","3","1","Mir ist aufgefallen, dass vermutlich die verschiedenen Hirnhälften angesprochen wurden (Logik, Kreativität)","0","1","0","null","","","<div class = 'row'><div class = 'column'><img src = 'usneg/3160.bmp' width = '100%;'></div><div class = 'column'><img src = 'category1/CS10.png' width = '70%;'></div></div>","null","neg","CS","CS","1","category1/CS10.png","","","","",""
"","html-keyboard-response","34","265601","0.0-6.0-2.0-0.7","vxn9hs7gxn","many_one","0","direct_first","1","kinaen04","0","20","1","1","3","1","Mir ist aufgefallen, dass vermutlich die verschiedenen Hirnhälften angesprochen wurden (Logik, Kreativität)","0","1","0","null","","","<div class = 'row'><div class = 'column'><img src = 'category1/CS2.png' width = '70%;'></div><div class = 'column'><img src = 'usneg/2205.bmp' width = '100%;'></div></div>","null","neg","CS","CS","1","category1/CS2.png","","","","",""
"","html-keyboard-response","35","268108","0.0-6.0-2.0-0.8","vxn9hs7gxn","many_one","0","direct_first","1","kinaen04","0","20","1","1","3","1","Mir ist aufgefallen, dass vermutlich die verschiedenen Hirnhälften angesprochen wurden (Logik, Kreativität)","0","1","0","null","","","<div class = 'row'><div class = 'column'><img src = 'category2/CS6.png' width = '70%;'></div><div class = 'column'><img src = 'uspos/2340.bmp' width = '100%;'></div></div>","null","pos","CS","CS","2","category2/CS6.png","","","","",""
"","html-keyboard-response","36","270614","0.0-6.0-2.0-0.9","vxn9hs7gxn","many_one","0","direct_first","1","kinaen04","0","20","1","1","3","1","Mir ist aufgefallen, dass vermutlich die verschiedenen Hirnhälften angesprochen wurden (Logik, Kreativität)","0","1","0","null","","","<div class = 'row'><div class = 'column'><img src = 'category3/CS1.png' width = '70%;'></div><div class = 'column'><img src = 'uspos/5830.bmp' width = '100%;'></div></div>","null","pos","CS","CS","3","category3/CS1.png","","","","",""
"","html-keyboard-response","37","273119","0.0-6.0-2.0-0.10","vxn9hs7gxn","many_one","0","direct_first","1","kinaen04","0","20","1","1","3","1","Mir ist aufgefallen, dass vermutlich die verschiedenen Hirnhälften angesprochen wurden (Logik, Kreativität)","0","1","0","null","","","<div class = 'row'><div class = 'column'><img src = 'category2/CS4.png' width = '70%;'></div><div class = 'column'><img src = 'uspos/7325.bmp' width = '100%;'></div></div>","null","pos","CS","CS","2","category2/CS4.png","","","","",""
"","html-keyboard-response","38","275625","0.0-6.0-2.0-0.11","vxn9hs7gxn","many_one","0","direct_first","1","kinaen04","0","20","1","1","3","1","Mir ist aufgefallen, dass vermutlich die verschiedenen Hirnhälften angesprochen wurden (Logik, Kreativität)","0","1","0","null","","","<div class = 'row'><div class = 'column'><img src = 'usneg/9560.bmp' width = '100%;'></div><div class = 'column'><img src = 'category1/CS4.png' width = '70%;'></div></div>","null","neg","CS","CS","1","category1/CS4.png","","","","",""
"","html-keyboard-response","39","278131","0.0-6.0-2.0-0.12","vxn9hs7gxn","many_one","0","direct_first","1","kinaen04","0","20","1","1","3","1","Mir ist aufgefallen, dass vermutlich die verschiedenen Hirnhälften angesprochen wurden (Logik, Kreativität)","0","1","0","null","","","<div class = 'row'><div class = 'column'><img src = 'uspos/1460.bmp' width = '100%;'></div><div class = 'column'><img src = 'category3/CS2.png' width = '70%;'></div></div>","null","pos","CS","CS","3","category3/CS2.png","","","","",""
"","html-keyboard-response","40","280639","0.0-6.0-2.0-0.13","vxn9hs7gxn","many_one","0","direct_first","1","kinaen04","0","20","1","1","3","1","Mir ist aufgefallen, dass vermutlich die verschiedenen Hirnhälften angesprochen wurden (Logik, Kreativität)","0","1","0","null","","","<div class = 'row'><div class = 'column'><img src = 'category3/CS6.png' width = '70%;'></div><div class = 'column'><img src = 'uspos/2030.bmp' width = '100%;'></div></div>","null","pos","CS","CS","3","category3/CS6.png","","","","",""
"","html-keyboard-response","41","283144","0.0-6.0-2.0-0.14","vxn9hs7gxn","many_one","0","direct_first","1","kinaen04","0","20","1","1","3","1","Mir ist aufgefallen, dass vermutlich die verschiedenen Hirnhälften angesprochen wurden (Logik, Kreativität)","0","1","0","null","","","<div class = 'row'><div class = 'column'><img src = 'category2/CS2.png' width = '70%;'></div><div class = 'column'><img src = 'uspos/2165.bmp' width = '100%;'></div></div>","null","pos","CS","CS","2","category2/CS2.png","","","","",""
"","html-keyboard-response","42","285650","0.0-6.0-2.0-0.15","vxn9hs7gxn","many_one","0","direct_first","1","kinaen04","0","20","1","1","3","1","Mir ist aufgefallen, dass vermutlich die verschiedenen Hirnhälften angesprochen wurden (Logik, Kreativität)","0","1","0","null","","","<div class = 'row'><div class = 'column'><img src = 'uspos/2058.bmp' width = '100%;'></div><div class = 'column'><img src = 'category3/CS9.png' width = '70%;'></div></div>","null","pos","CS","CS","3","category3/CS9.png","","","","",""
"","html-keyboard-response","43","288168","0.0-6.0-2.0-0.16","vxn9hs7gxn","many_one","0","direct_first","1","kinaen04","0","20","1","1","3","1","Mir ist aufgefallen, dass vermutlich die verschiedenen Hirnhälften angesprochen wurden (Logik, Kreativität)","0","1","0","null","","","<div class = 'row'><div class = 'column'><img src = 'category4/CS3.png' width = '70%;'></div><div class = 'column'><img src = 'usneg/9220.bmp' width = '100%;'></div></div>","null","neg","CS","CS","4","category4/CS3.png","","","","",""
"","html-keyboard-response","44","290676","0.0-6.0-2.0-0.17","vxn9hs7gxn","many_one","0","direct_first","1","kinaen04","0","20","1","1","3","1","Mir ist aufgefallen, dass vermutlich die verschiedenen Hirnhälften angesprochen wurden (Logik, Kreativität)","0","1","0","null","","","<div class = 'row'><div class = 'column'><img src = 'usneg/9041.bmp' width = '100%;'></div><div class = 'column'><img src = 'category4/CS1.png' width = '70%;'></div></div>","null","neg","CS","CS","4","category4/CS1.png","","","","",""
"","html-keyboard-response","45","293182","0.0-6.0-2.0-0.18","vxn9hs7gxn","many_one","0","direct_first","1","kinaen04","0","20","1","1","3","1","Mir ist aufgefallen, dass vermutlich die verschiedenen Hirnhälften angesprochen wurden (Logik, Kreativität)","0","1","0","null","","","<div class = 'row'><div class = 'column'><img src = 'usneg/6020.bmp' width = '100%;'></div><div class = 'column'><img src = 'category4/CS5.png' width = '70%;'></div></div>","null","neg","CS","CS","4","category4/CS5.png","","","","",""
"","html-keyboard-response","46","295689","0.0-6.0-2.0-0.19","vxn9hs7gxn","many_one","0","direct_first","1","kinaen04","0","20","1","1","3","1","Mir ist aufgefallen, dass vermutlich die verschiedenen Hirnhälften angesprochen wurden (Logik, Kreativität)","0","1","0","null","","","<div class = 'row'><div class = 'column'><img src = 'category2/CS1.png' width = '70%;'></div><div class = 'column'><img src = 'uspos/5470.bmp' width = '100%;'></div></div>","null","pos","CS","CS","2","category2/CS1.png","","","","",""
"","survey-html-form","47","299293","0.0-6.0-3.0","vxn9hs7gxn","many_one","0","direct_first","1","kinaen04","0","20","1","1","3","1","Mir ist aufgefallen, dass vermutlich die verschiedenen Hirnhälften angesprochen wurden (Logik, Kreativität)","0","1","0","3101.52000002563","","{}","","","","","","","","","","","",""
"","html-keyboard-response","48","303297","0.0-6.0-4.0-0.0","vxn9hs7gxn","many_one","0","direct_first","1","kinaen04","0","20","1","1","3","1","Mir ist aufgefallen, dass vermutlich die verschiedenen Hirnhälften angesprochen wurden (Logik, Kreativität)","0","1","0","null","","","<div class = 'row'><div class = 'column'><img src = 'category1/CS8.png' width = '70%;'></div><div class = 'column'><img src = 'usneg/9000.bmp' width = '100%;'></div></div>","null","neg","CS","CS","1","category1/CS8.png","","","","",""
"","html-keyboard-response","49","305803","0.0-6.0-4.0-0.1","vxn9hs7gxn","many_one","0","direct_first","1","kinaen04","0","20","1","1","3","1","Mir ist aufgefallen, dass vermutlich die verschiedenen Hirnhälften angesprochen wurden (Logik, Kreativität)","0","1","0","null","","","<div class = 'row'><div class = 'column'><img src = 'category4/CS8.png' width = '70%;'></div><div class = 'column'><img src = 'usneg/9290.bmp' width = '100%;'></div></div>","null","neg","CS","CS","4","category4/CS8.png","","","","",""
"","html-keyboard-response","50","308308","0.0-6.0-4.0-0.2","vxn9hs7gxn","many_one","0","direct_first","1","kinaen04","0","20","1","1","3","1","Mir ist aufgefallen, dass vermutlich die verschiedenen Hirnhälften angesprochen wurden (Logik, Kreativität)","0","1","0","null","","","<div class = 'row'><div class = 'column'><img src = 'uspos/5470.bmp' width = '100%;'></div><div class = 'column'><img src = 'category2/CS1.png' width = '70%;'></div></div>","null","pos","CS","CS","2","category2/CS1.png","","","","",""
"","html-keyboard-response","51","310814","0.0-6.0-4.0-0.3","vxn9hs7gxn","many_one","0","direct_first","1","kinaen04","0","20","1","1","3","1","Mir ist aufgefallen, dass vermutlich die verschiedenen Hirnhälften angesprochen wurden (Logik, Kreativität)","0","1","0","null","","","<div class = 'row'><div class = 'column'><img src = 'uspos/8540.bmp' width = '100%;'></div><div class = 'column'><img src = 'category3/CS3.png' width = '70%;'></div></div>","null","pos","CS","CS","3","category3/CS3.png","","","","",""
"","html-keyboard-response","52","313321","0.0-6.0-4.0-0.4","vxn9hs7gxn","many_one","0","direct_first","1","kinaen04","0","20","1","1","3","1","Mir ist aufgefallen, dass vermutlich die verschiedenen Hirnhälften angesprochen wurden (Logik, Kreativität)","0","1","0","null","","","<div class = 'row'><div class = 'column'><img src = 'uspos/1460.bmp' width = '100%;'></div><div class = 'column'><img src = 'category3/CS2.png' width = '70%;'></div></div>","null","pos","CS","CS","3","category3/CS2.png","","","","",""
"","html-keyboard-response","53","315827","0.0-6.0-4.0-0.5","vxn9hs7gxn","many_one","0","direct_first","1","kinaen04","0","20","1","1","3","1","Mir ist aufgefallen, dass vermutlich die verschiedenen Hirnhälften angesprochen wurden (Logik, Kreativität)","0","1","0","null","","","<div class = 'row'><div class = 'column'><img src = 'category4/CS3.png' width = '70%;'></div><div class = 'column'><img src = 'usneg/9220.bmp' width = '100%;'></div></div>","null","neg","CS","CS","4","category4/CS3.png","","","","",""
"","html-keyboard-response","54","318333","0.0-6.0-4.0-0.6","vxn9hs7gxn","many_one","0","direct_first","1","kinaen04","0","20","1","1","3","1","Mir ist aufgefallen, dass vermutlich die verschiedenen Hirnhälften angesprochen wurden (Logik, Kreativität)","0","1","0","null","","","<div class = 'row'><div class = 'column'><img src = 'category1/CS7.png' width = '70%;'></div><div class = 'column'><img src = 'usneg/9050.bmp' width = '100%;'></div></div>","null","neg","CS","CS","1","category1/CS7.png","","","","",""
"","html-keyboard-response","55","320839","0.0-6.0-4.0-0.7","vxn9hs7gxn","many_one","0","direct_first","1","kinaen04","0","20","1","1","3","1","Mir ist aufgefallen, dass vermutlich die verschiedenen Hirnhälften angesprochen wurden (Logik, Kreativität)","0","1","0","null","","","<div class = 'row'><div class = 'column'><img src = 'category4/CS1.png' width = '70%;'></div><div class = 'column'><img src = 'usneg/9041.bmp' width = '100%;'></div></div>","null","neg","CS","CS","4","category4/CS1.png","","","","",""
"","html-keyboard-response","56","323345","0.0-6.0-4.0-0.8","vxn9hs7gxn","many_one","0","direct_first","1","kinaen04","0","20","1","1","3","1","Mir ist aufgefallen, dass vermutlich die verschiedenen Hirnhälften angesprochen wurden (Logik, Kreativität)","0","1","0","null","","","<div class = 'row'><div class = 'column'><img src = 'category4/CS7.png' width = '70%;'></div><div class = 'column'><img src = 'usneg/9520.bmp' width = '100%;'></div></div>","null","neg","CS","CS","4","category4/CS7.png","","","","",""
"","html-keyboard-response","57","325849","0.0-6.0-4.0-0.9","vxn9hs7gxn","many_one","0","direct_first","1","kinaen04","0","20","1","1","3","1","Mir ist aufgefallen, dass vermutlich die verschiedenen Hirnhälften angesprochen wurden (Logik, Kreativität)","0","1","0","null","","","<div class = 'row'><div class = 'column'><img src = 'category2/CS2.png' width = '70%;'></div><div class = 'column'><img src = 'uspos/2165.bmp' width = '100%;'></div></div>","null","pos","CS","CS","2","category2/CS2.png","","","","",""
"","html-keyboard-response","58","328355","0.0-6.0-4.0-0.10","vxn9hs7gxn","many_one","0","direct_first","1","kinaen04","0","20","1","1","3","1","Mir ist aufgefallen, dass vermutlich die verschiedenen Hirnhälften angesprochen wurden (Logik, Kreativität)","0","1","0","null","","","<div class = 'row'><div class = 'column'><img src = 'usneg/6020.bmp' width = '100%;'></div><div class = 'column'><img src = 'category4/CS5.png' width = '70%;'></div></div>","null","neg","CS","CS","4","category4/CS5.png","","","","",""
"","html-keyboard-response","59","330861","0.0-6.0-4.0-0.11","vxn9hs7gxn","many_one","0","direct_first","1","kinaen04","0","20","1","1","3","1","Mir ist aufgefallen, dass vermutlich die verschiedenen Hirnhälften angesprochen wurden (Logik, Kreativität)","0","1","0","null","","","<div class = 'row'><div class = 'column'><img src = 'category1/CS10.png' width = '70%;'></div><div class = 'column'><img src = 'usneg/3160.bmp' width = '100%;'></div></div>","null","neg","CS","CS","1","category1/CS10.png","","","","",""
"","html-keyboard-response","60","333369","0.0-6.0-4.0-0.12","vxn9hs7gxn","many_one","0","direct_first","1","kinaen04","0","20","1","1","3","1","Mir ist aufgefallen, dass vermutlich die verschiedenen Hirnhälften angesprochen wurden (Logik, Kreativität)","0","1","0","null","","","<div class = 'row'><div class = 'column'><img src = 'category3/CS1.png' width = '70%;'></div><div class = 'column'><img src = 'uspos/5830.bmp' width = '100%;'></div></div>","null","pos","CS","CS","3","category3/CS1.png","","","","",""
"","html-keyboard-response","61","335875","0.0-6.0-4.0-0.13","vxn9hs7gxn","many_one","0","direct_first","1","kinaen04","0","20","1","1","3","1","Mir ist aufgefallen, dass vermutlich die verschiedenen Hirnhälften angesprochen wurden (Logik, Kreativität)","0","1","0","null","","","<div class = 'row'><div class = 'column'><img src = 'uspos/7325.bmp' width = '100%;'></div><div class = 'column'><img src = 'category2/CS4.png' width = '70%;'></div></div>","null","pos","CS","CS","2","category2/CS4.png","","","","",""
"","html-keyboard-response","62","338380","0.0-6.0-4.0-0.14","vxn9hs7gxn","many_one","0","direct_first","1","kinaen04","0","20","1","1","3","1","Mir ist aufgefallen, dass vermutlich die verschiedenen Hirnhälften angesprochen wurden (Logik, Kreativität)","0","1","0","null","","","<div class = 'row'><div class = 'column'><img src = 'category3/CS6.png' width = '70%;'></div><div class = 'column'><img src = 'uspos/2030.bmp' width = '100%;'></div></div>","null","pos","CS","CS","3","category3/CS6.png","","","","",""
"","html-keyboard-response","63","340887","0.0-6.0-4.0-0.15","vxn9hs7gxn","many_one","0","direct_first","1","kinaen04","0","20","1","1","3","1","Mir ist aufgefallen, dass vermutlich die verschiedenen Hirnhälften angesprochen wurden (Logik, Kreativität)","0","1","0","null","","","<div class = 'row'><div class = 'column'><img src = 'usneg/2205.bmp' width = '100%;'></div><div class = 'column'><img src = 'category1/CS2.png' width = '70%;'></div></div>","null","neg","CS","CS","1","category1/CS2.png","","","","",""
"","html-keyboard-response","64","343392","0.0-6.0-4.0-0.16","vxn9hs7gxn","many_one","0","direct_first","1","kinaen04","0","20","1","1","3","1","Mir ist aufgefallen, dass vermutlich die verschiedenen Hirnhälften angesprochen wurden (Logik, Kreativität)","0","1","0","null","","","<div class = 'row'><div class = 'column'><img src = 'uspos/2340.bmp' width = '100%;'></div><div class = 'column'><img src = 'category2/CS6.png' width = '70%;'></div></div>","null","pos","CS","CS","2","category2/CS6.png","","","","",""
"","html-keyboard-response","65","345898","0.0-6.0-4.0-0.17","vxn9hs7gxn","many_one","0","direct_first","1","kinaen04","0","20","1","1","3","1","Mir ist aufgefallen, dass vermutlich die verschiedenen Hirnhälften angesprochen wurden (Logik, Kreativität)","0","1","0","null","","","<div class = 'row'><div class = 'column'><img src = 'category1/CS4.png' width = '70%;'></div><div class = 'column'><img src = 'usneg/9560.bmp' width = '100%;'></div></div>","null","neg","CS","CS","1","category1/CS4.png","","","","",""
"","html-keyboard-response","66","348403","0.0-6.0-4.0-0.18","vxn9hs7gxn","many_one","0","direct_first","1","kinaen04","0","20","1","1","3","1","Mir ist aufgefallen, dass vermutlich die verschiedenen Hirnhälften angesprochen wurden (Logik, Kreativität)","0","1","0","null","","","<div class = 'row'><div class = 'column'><img src = 'uspos/2058.bmp' width = '100%;'></div><div class = 'column'><img src = 'category3/CS9.png' width = '70%;'></div></div>","null","pos","CS","CS","3","category3/CS9.png","","","","",""
"","html-keyboard-response","67","350910","0.0-6.0-4.0-0.19","vxn9hs7gxn","many_one","0","direct_first","1","kinaen04","0","20","1","1","3","1","Mir ist aufgefallen, dass vermutlich die verschiedenen Hirnhälften angesprochen wurden (Logik, Kreativität)","0","1","0","null","","","<div class = 'row'><div class = 'column'><img src = 'category2/CS8.png' width = '70%;'></div><div class = 'column'><img src = 'uspos/8080.bmp' width = '100%;'></div></div>","null","pos","CS","CS","2","category2/CS8.png","","","","",""
"","survey-html-form","68","354786","0.0-6.0-5.0","vxn9hs7gxn","many_one","0","direct_first","1","kinaen04","0","20","1","1","3","1","Mir ist aufgefallen, dass vermutlich die verschiedenen Hirnhälften angesprochen wurden (Logik, Kreativität)","0","1","0","3373.494999948889","","{}","","","","","","","","","","","",""
"","html-keyboard-response","69","358796","0.0-6.0-6.0-0.0","vxn9hs7gxn","many_one","0","direct_first","1","kinaen04","0","20","1","1","3","1","Mir ist aufgefallen, dass vermutlich die verschiedenen Hirnhälften angesprochen wurden (Logik, Kreativität)","0","1","0","null","","","<div class = 'row'><div class = 'column'><img src = 'uspos/1460.bmp' width = '100%;'></div><div class = 'column'><img src = 'category3/CS2.png' width = '70%;'></div></div>","null","pos","CS","CS","3","category3/CS2.png","","","","",""
"","html-keyboard-response","70","361299","0.0-6.0-6.0-0.1","vxn9hs7gxn","many_one","0","direct_first","1","kinaen04","0","20","1","1","3","1","Mir ist aufgefallen, dass vermutlich die verschiedenen Hirnhälften angesprochen wurden (Logik, Kreativität)","0","1","0","null","","","<div class = 'row'><div class = 'column'><img src = 'usneg/9041.bmp' width = '100%;'></div><div class = 'column'><img src = 'category4/CS1.png' width = '70%;'></div></div>","null","neg","CS","CS","4","category4/CS1.png","","","","",""
"","html-keyboard-response","71","363806","0.0-6.0-6.0-0.2","vxn9hs7gxn","many_one","0","direct_first","1","kinaen04","0","20","1","1","3","1","Mir ist aufgefallen, dass vermutlich die verschiedenen Hirnhälften angesprochen wurden (Logik, Kreativität)","0","1","0","null","","","<div class = 'row'><div class = 'column'><img src = 'usneg/9520.bmp' width = '100%;'></div><div class = 'column'><img src = 'category4/CS7.png' width = '70%;'></div></div>","null","neg","CS","CS","4","category4/CS7.png","","","","",""
"","html-keyboard-response","72","366314","0.0-6.0-6.0-0.3","vxn9hs7gxn","many_one","0","direct_first","1","kinaen04","0","20","1","1","3","1","Mir ist aufgefallen, dass vermutlich die verschiedenen Hirnhälften angesprochen wurden (Logik, Kreativität)","0","1","0","null","","","<div class = 'row'><div class = 'column'><img src = 'category2/CS6.png' width = '70%;'></div><div class = 'column'><img src = 'uspos/2340.bmp' width = '100%;'></div></div>","null","pos","CS","CS","2","category2/CS6.png","","","","",""
"","html-keyboard-response","73","368820","0.0-6.0-6.0-0.4","vxn9hs7gxn","many_one","0","direct_first","1","kinaen04","0","20","1","1","3","1","Mir ist aufgefallen, dass vermutlich die verschiedenen Hirnhälften angesprochen wurden (Logik, Kreativität)","0","1","0","null","","","<div class = 'row'><div class = 'column'><img src = 'category4/CS8.png' width = '70%;'></div><div class = 'column'><img src = 'usneg/9290.bmp' width = '100%;'></div></div>","null","neg","CS","CS","4","category4/CS8.png","","","","",""
"","html-keyboard-response","74","371324","0.0-6.0-6.0-0.5","vxn9hs7gxn","many_one","0","direct_first","1","kinaen04","0","20","1","1","3","1","Mir ist aufgefallen, dass vermutlich die verschiedenen Hirnhälften angesprochen wurden (Logik, Kreativität)","0","1","0","null","","","<div class = 'row'><div class = 'column'><img src = 'category3/CS6.png' width = '70%;'></div><div class = 'column'><img src = 'uspos/2030.bmp' width = '100%;'></div></div>","null","pos","CS","CS","3","category3/CS6.png","","","","",""
"","html-keyboard-response","75","373830","0.0-6.0-6.0-0.6","vxn9hs7gxn","many_one","0","direct_first","1","kinaen04","0","20","1","1","3","1","Mir ist aufgefallen, dass vermutlich die verschiedenen Hirnhälften angesprochen wurden (Logik, Kreativität)","0","1","0","null","","","<div class = 'row'><div class = 'column'><img src = 'usneg/9050.bmp' width = '100%;'></div><div class = 'column'><img src = 'category1/CS7.png' width = '70%;'></div></div>","null","neg","CS","CS","1","category1/CS7.png","","","","",""
"","html-keyboard-response","76","376337","0.0-6.0-6.0-0.7","vxn9hs7gxn","many_one","0","direct_first","1","kinaen04","0","20","1","1","3","1","Mir ist aufgefallen, dass vermutlich die verschiedenen Hirnhälften angesprochen wurden (Logik, Kreativität)","0","1","0","null","","","<div class = 'row'><div class = 'column'><img src = 'uspos/2165.bmp' width = '100%;'></div><div class = 'column'><img src = 'category2/CS2.png' width = '70%;'></div></div>","null","pos","CS","CS","2","category2/CS2.png","","","","",""
"","html-keyboard-response","77","378842","0.0-6.0-6.0-0.8","vxn9hs7gxn","many_one","0","direct_first","1","kinaen04","0","20","1","1","3","1","Mir ist aufgefallen, dass vermutlich die verschiedenen Hirnhälften angesprochen wurden (Logik, Kreativität)","0","1","0","null","","","<div class = 'row'><div class = 'column'><img src = 'category2/CS1.png' width = '70%;'></div><div class = 'column'><img src = 'uspos/5470.bmp' width = '100%;'></div></div>","null","pos","CS","CS","2","category2/CS1.png","","","","",""
"","html-keyboard-response","78","381347","0.0-6.0-6.0-0.9","vxn9hs7gxn","many_one","0","direct_first","1","kinaen04","0","20","1","1","3","1","Mir ist aufgefallen, dass vermutlich die verschiedenen Hirnhälften angesprochen wurden (Logik, Kreativität)","0","1","0","null","","","<div class = 'row'><div class = 'column'><img src = 'uspos/7325.bmp' width = '100%;'></div><div class = 'column'><img src = 'category2/CS4.png' width = '70%;'></div></div>","null","pos","CS","CS","2","category2/CS4.png","","","","",""
"","html-keyboard-response","79","383852","0.0-6.0-6.0-0.10","vxn9hs7gxn","many_one","0","direct_first","1","kinaen04","0","20","1","1","3","1","Mir ist aufgefallen, dass vermutlich die verschiedenen Hirnhälften angesprochen wurden (Logik, Kreativität)","0","1","0","null","","","<div class = 'row'><div class = 'column'><img src = 'usneg/2205.bmp' width = '100%;'></div><div class = 'column'><img src = 'category1/CS2.png' width = '70%;'></div></div>","null","neg","CS","CS","1","category1/CS2.png","","","","",""
"","html-keyboard-response","80","386358","0.0-6.0-6.0-0.11","vxn9hs7gxn","many_one","0","direct_first","1","kinaen04","0","20","1","1","3","1","Mir ist aufgefallen, dass vermutlich die verschiedenen Hirnhälften angesprochen wurden (Logik, Kreativität)","0","1","0","null","","","<div class = 'row'><div class = 'column'><img src = 'usneg/3160.bmp' width = '100%;'></div><div class = 'column'><img src = 'category1/CS10.png' width = '70%;'></div></div>","null","neg","CS","CS","1","category1/CS10.png","","","","",""
"","html-keyboard-response","81","388865","0.0-6.0-6.0-0.12","vxn9hs7gxn","many_one","0","direct_first","1","kinaen04","0","20","1","1","3","1","Mir ist aufgefallen, dass vermutlich die verschiedenen Hirnhälften angesprochen wurden (Logik, Kreativität)","0","1","0","null","","","<div class = 'row'><div class = 'column'><img src = 'category1/CS4.png' width = '70%;'></div><div class = 'column'><img src = 'usneg/9560.bmp' width = '100%;'></div></div>","null","neg","CS","CS","1","category1/CS4.png","","","","",""
"","html-keyboard-response","82","391381","0.0-6.0-6.0-0.13","vxn9hs7gxn","many_one","0","direct_first","1","kinaen04","0","20","1","1","3","1","Mir ist aufgefallen, dass vermutlich die verschiedenen Hirnhälften angesprochen wurden (Logik, Kreativität)","0","1","0","null","","","<div class = 'row'><div class = 'column'><img src = 'uspos/2058.bmp' width = '100%;'></div><div class = 'column'><img src = 'category3/CS9.png' width = '70%;'></div></div>","null","pos","CS","CS","3","category3/CS9.png","","","","",""
"","html-keyboard-response","83","393887","0.0-6.0-6.0-0.14","vxn9hs7gxn","many_one","0","direct_first","1","kinaen04","0","20","1","1","3","1","Mir ist aufgefallen, dass vermutlich die verschiedenen Hirnhälften angesprochen wurden (Logik, Kreativität)","0","1","0","null","","","<div class = 'row'><div class = 'column'><img src = 'category4/CS5.png' width = '70%;'></div><div class = 'column'><img src = 'usneg/6020.bmp' width = '100%;'></div></div>","null","neg","CS","CS","4","category4/CS5.png","","","","",""
"","html-keyboard-response","84","396393","0.0-6.0-6.0-0.15","vxn9hs7gxn","many_one","0","direct_first","1","kinaen04","0","20","1","1","3","1","Mir ist aufgefallen, dass vermutlich die verschiedenen Hirnhälften angesprochen wurden (Logik, Kreativität)","0","1","0","null","","","<div class = 'row'><div class = 'column'><img src = 'category3/CS1.png' width = '70%;'></div><div class = 'column'><img src = 'uspos/5830.bmp' width = '100%;'></div></div>","null","pos","CS","CS","3","category3/CS1.png","","","","",""
"","html-keyboard-response","85","398897","0.0-6.0-6.0-0.16","vxn9hs7gxn","many_one","0","direct_first","1","kinaen04","0","20","1","1","3","1","Mir ist aufgefallen, dass vermutlich die verschiedenen Hirnhälften angesprochen wurden (Logik, Kreativität)","0","1","0","null","","","<div class = 'row'><div class = 'column'><img src = 'uspos/8080.bmp' width = '100%;'></div><div class = 'column'><img src = 'category2/CS8.png' width = '70%;'></div></div>","null","pos","CS","CS","2","category2/CS8.png","","","","",""
"","html-keyboard-response","86","401402","0.0-6.0-6.0-0.17","vxn9hs7gxn","many_one","0","direct_first","1","kinaen04","0","20","1","1","3","1","Mir ist aufgefallen, dass vermutlich die verschiedenen Hirnhälften angesprochen wurden (Logik, Kreativität)","0","1","0","null","","","<div class = 'row'><div class = 'column'><img src = 'usneg/9000.bmp' width = '100%;'></div><div class = 'column'><img src = 'category1/CS8.png' width = '70%;'></div></div>","null","neg","CS","CS","1","category1/CS8.png","","","","",""
"","html-keyboard-response","87","403909","0.0-6.0-6.0-0.18","vxn9hs7gxn","many_one","0","direct_first","1","kinaen04","0","20","1","1","3","1","Mir ist aufgefallen, dass vermutlich die verschiedenen Hirnhälften angesprochen wurden (Logik, Kreativität)","0","1","0","null","","","<div class = 'row'><div class = 'column'><img src = 'category3/CS3.png' width = '70%;'></div><div class = 'column'><img src = 'uspos/8540.bmp' width = '100%;'></div></div>","null","pos","CS","CS","3","category3/CS3.png","","","","",""
"","html-keyboard-response","88","406415","0.0-6.0-6.0-0.19","vxn9hs7gxn","many_one","0","direct_first","1","kinaen04","0","20","1","1","3","1","Mir ist aufgefallen, dass vermutlich die verschiedenen Hirnhälften angesprochen wurden (Logik, Kreativität)","0","1","0","null","","","<div class = 'row'><div class = 'column'><img src = 'category4/CS3.png' width = '70%;'></div><div class = 'column'><img src = 'usneg/9220.bmp' width = '100%;'></div></div>","null","neg","CS","CS","4","category4/CS3.png","","","","",""
"","survey-html-form","89","417492","0.0-7.0","vxn9hs7gxn","many_one","0","direct_first","1","kinaen04","0","20","1","1","3","1","Mir ist aufgefallen, dass vermutlich die verschiedenen Hirnhälften angesprochen wurden (Logik, Kreativität)","0","1","0","10574.705000035465","","{}","","","","","","","","","","","",""
"","image-slider-response","90","427140","0.0-8.0-0.0","vxn9hs7gxn","many_one","0","direct_first","1","kinaen04","0","20","1","1","3","1","Mir ist aufgefallen, dass vermutlich die verschiedenen Hirnhälften angesprochen wurden (Logik, Kreativität)","0","1","0","7639.479999896139","","","","","neg","CS","CS","4","category4/CS5.png","-65","targets/42.png","direct","",""
"","image-slider-response","91","432513","0.0-8.0-0.1","vxn9hs7gxn","many_one","0","direct_first","1","kinaen04","0","20","1","1","3","1","Mir ist aufgefallen, dass vermutlich die verschiedenen Hirnhälften angesprochen wurden (Logik, Kreativität)","0","1","0","5368.419999955222","","","","","pos","GS","GSold","3","category3/CS7.png","-48","targets/14.png","direct","",""
"","image-slider-response","92","436806","0.0-8.0-0.2","vxn9hs7gxn","many_one","0","direct_first","1","kinaen04","0","20","1","1","3","1","Mir ist aufgefallen, dass vermutlich die verschiedenen Hirnhälften angesprochen wurden (Logik, Kreativität)","0","1","0","4286.390000022948","","","","","neg","CS","CS","1","category1/CS4.png","18","targets/18.png","direct","",""
"","image-slider-response","93","440346","0.0-8.0-0.3","vxn9hs7gxn","many_one","0","direct_first","1","kinaen04","0","20","1","1","3","1","Mir ist aufgefallen, dass vermutlich die verschiedenen Hirnhälften angesprochen wurden (Logik, Kreativität)","0","1","0","3536.145000020042","","","","","pos","GS","GSnew","2","category2/GS2.png","22","targets/3.png","direct","",""
"","image-slider-response","94","443834","0.0-8.0-0.4","vxn9hs7gxn","many_one","0","direct_first","1","kinaen04","0","20","1","1","3","1","Mir ist aufgefallen, dass vermutlich die verschiedenen Hirnhälften angesprochen wurden (Logik, Kreativität)","0","1","0","3485.714999958873","","","","","pos","GS","abstract","3","category3/wang.png","35","targets/41.png","direct","",""
"","image-slider-response","95","447236","0.0-8.0-0.5","vxn9hs7gxn","many_one","0","direct_first","1","kinaen04","0","20","1","1","3","1","Mir ist aufgefallen, dass vermutlich die verschiedenen Hirnhälften angesprochen wurden (Logik, Kreativität)","0","1","0","3396.2199999950826","","","","","neg","CS","CS","1","category1/CS10.png","22","targets/44.png","direct","",""
"","image-slider-response","96","450593","0.0-8.0-0.6","vxn9hs7gxn","many_one","0","direct_first","1","kinaen04","0","20","1","1","3","1","Mir ist aufgefallen, dass vermutlich die verschiedenen Hirnhälften angesprochen wurden (Logik, Kreativität)","0","1","0","3351.890000049025","","","","","neg","GS","GSnew","4","category4/GS2.png","-45","targets/40.png","direct","",""
"","image-slider-response","97","453759","0.0-8.0-0.7","vxn9hs7gxn","many_one","0","direct_first","1","kinaen04","0","20","1","1","3","1","Mir ist aufgefallen, dass vermutlich die verschiedenen Hirnhälften angesprochen wurden (Logik, Kreativität)","0","1","0","3160.7500000391155","","","","","pos","GS","abstract","2","category2/men.png","32","targets/8.png","direct","",""
"","image-slider-response","98","457813","0.0-8.0-0.8","vxn9hs7gxn","many_one","0","direct_first","1","kinaen04","0","20","1","1","3","1","Mir ist aufgefallen, dass vermutlich die verschiedenen Hirnhälften angesprochen wurden (Logik, Kreativität)","0","1","0","4050.105000147596","","","","","pos","GS","GSnew","3","category3/GS1.png","-23","targets/33.png","direct","",""
"","image-slider-response","99","461333","0.0-8.0-0.9","vxn9hs7gxn","many_one","0","direct_first","1","kinaen04","0","20","1","1","3","1","Mir ist aufgefallen, dass vermutlich die verschiedenen Hirnhälften angesprochen wurden (Logik, Kreativität)","0","1","0","3516.1450000014156","","","","","pos","CS","CS","3","category3/CS2.png","20","targets/48.png","direct","",""
"","image-slider-response","100","464040","0.0-8.0-0.10","vxn9hs7gxn","many_one","0","direct_first","1","kinaen04","0","20","1","1","3","1","Mir ist aufgefallen, dass vermutlich die verschiedenen Hirnhälften angesprochen wurden (Logik, Kreativität)","0","1","0","2703.715000068769","","","","","neg","CS","CS","1","category1/CS2.png","-16","targets/6.png","direct","",""
"","image-slider-response","101","467452","0.0-8.0-0.11","vxn9hs7gxn","many_one","0","direct_first","1","kinaen04","0","20","1","1","3","1","Mir ist aufgefallen, dass vermutlich die verschiedenen Hirnhälften angesprochen wurden (Logik, Kreativität)","0","1","0","3406.4549999311566","","","","","pos","GS","GSnew","2","category2/GS1.png","-29","targets/5.png","direct","",""
"","image-slider-response","102","470445","0.0-8.0-0.12","vxn9hs7gxn","many_one","0","direct_first","1","kinaen04","0","20","1","1","3","1","Mir ist aufgefallen, dass vermutlich die verschiedenen Hirnhälften angesprochen wurden (Logik, Kreativität)","0","1","0","2987.6899998635054","","","","","neg","GS","GSnew","1","category1/GS2.png","-32","targets/11.png","direct","",""
"","image-slider-response","103","473216","0.0-8.0-0.13","vxn9hs7gxn","many_one","0","direct_first","1","kinaen04","0","20","1","1","3","1","Mir ist aufgefallen, dass vermutlich die verschiedenen Hirnhälften angesprochen wurden (Logik, Kreativität)","0","1","0","2765.254999976605","","","","","pos","GS","GSnew","2","category2/GS3.png","27","targets/26.png","direct","",""
"","image-slider-response","104","475959","0.0-8.0-0.14","vxn9hs7gxn","many_one","0","direct_first","1","kinaen04","0","20","1","1","3","1","Mir ist aufgefallen, dass vermutlich die verschiedenen Hirnhälften angesprochen wurden (Logik, Kreativität)","0","1","0","2738.840000005439","","","","","pos","CS","CS","3","category3/CS9.png","22","targets/43.png","direct","",""
"","image-slider-response","105","478929","0.0-8.0-0.15","vxn9hs7gxn","many_one","0","direct_first","1","kinaen04","0","20","1","1","3","1","Mir ist aufgefallen, dass vermutlich die verschiedenen Hirnhälften angesprochen wurden (Logik, Kreativität)","0","1","0","2967.869999818504","","","","","neg","CS","CS","4","category4/CS8.png","-28","targets/28.png","direct","",""
"","image-slider-response","106","481763","0.0-8.0-0.16","vxn9hs7gxn","many_one","0","direct_first","1","kinaen04","0","20","1","1","3","1","Mir ist aufgefallen, dass vermutlich die verschiedenen Hirnhälften angesprochen wurden (Logik, Kreativität)","0","1","0","2830.924999900162","","","","","neg","GS","abstract","1","category1/ma.png","16","targets/31.png","direct","",""
"","image-slider-response","107","484618","0.0-8.0-0.17","vxn9hs7gxn","many_one","0","direct_first","1","kinaen04","0","20","1","1","3","1","Mir ist aufgefallen, dass vermutlich die verschiedenen Hirnhälften angesprochen wurden (Logik, Kreativität)","0","1","0","2850.214999867603","","","","","neg","CS","CS","1","category1/CS7.png","14","targets/34.png","direct","",""
"","image-slider-response","108","488791","0.0-8.0-0.18","vxn9hs7gxn","many_one","0","direct_first","1","kinaen04","0","20","1","1","3","1","Mir ist aufgefallen, dass vermutlich die verschiedenen Hirnhälften angesprochen wurden (Logik, Kreativität)","0","1","0","4169.470000080764","","","","","pos","GS","GSold","3","category3/CS8.png","31","targets/38.png","direct","",""
"","image-slider-response","109","491727","0.0-8.0-0.19","vxn9hs7gxn","many_one","0","direct_first","1","kinaen04","0","20","1","1","3","1","Mir ist aufgefallen, dass vermutlich die verschiedenen Hirnhälften angesprochen wurden (Logik, Kreativität)","0","1","0","2930.339999962598","","","","","pos","CS","CS","2","category2/CS4.png","-17","targets/29.png","direct","",""
"","image-slider-response","110","495003","0.0-8.0-0.20","vxn9hs7gxn","many_one","0","direct_first","1","kinaen04","0","20","1","1","3","1","Mir ist aufgefallen, dass vermutlich die verschiedenen Hirnhälften angesprochen wurden (Logik, Kreativität)","0","1","0","3272.2950000315905","","","","","neg","CS","CS","4","category4/CS7.png","-14","targets/2.png","direct","",""
"","image-slider-response","111","498530","0.0-8.0-0.21","vxn9hs7gxn","many_one","0","direct_first","1","kinaen04","0","20","1","1","3","1","Mir ist aufgefallen, dass vermutlich die verschiedenen Hirnhälften angesprochen wurden (Logik, Kreativität)","0","1","0","3522.944999858737","","","","","neg","CS","CS","4","category4/CS3.png","21","targets/39.png","direct","",""
"","image-slider-response","112","501688","0.0-8.0-0.22","vxn9hs7gxn","many_one","0","direct_first","1","kinaen04","0","20","1","1","3","1","Mir ist aufgefallen, dass vermutlich die verschiedenen Hirnhälften angesprochen wurden (Logik, Kreativität)","0","1","0","3154.7050001099706","","","","","pos","CS","CS","3","category3/CS3.png","19","targets/23.png","direct","",""
"","image-slider-response","113","504402","0.0-8.0-0.23","vxn9hs7gxn","many_one","0","direct_first","1","kinaen04","0","20","1","1","3","1","Mir ist aufgefallen, dass vermutlich die verschiedenen Hirnhälften angesprochen wurden (Logik, Kreativität)","0","1","0","2709.2599999159575","","","","","neg","GS","GSold","1","category1/CS1.png","-11","targets/19.png","direct","",""
"","image-slider-response","114","507307","0.0-8.0-0.24","vxn9hs7gxn","many_one","0","direct_first","1","kinaen04","0","20","1","1","3","1","Mir ist aufgefallen, dass vermutlich die verschiedenen Hirnhälften angesprochen wurden (Logik, Kreativität)","0","1","0","2902.174999937415","","","","","neg","GS","GSnew","1","category1/GS1.png","-16","targets/27.png","direct","",""
"","image-slider-response","115","510283","0.0-8.0-0.25","vxn9hs7gxn","many_one","0","direct_first","1","kinaen04","0","20","1","1","3","1","Mir ist aufgefallen, dass vermutlich die verschiedenen Hirnhälften angesprochen wurden (Logik, Kreativität)","0","1","0","2972.520000068471","","","","","pos","CS","CS","2","category2/CS6.png","29","targets/4.png","direct","",""
"","image-slider-response","116","513401","0.0-8.0-0.26","vxn9hs7gxn","many_one","0","direct_first","1","kinaen04","0","20","1","1","3","1","Mir ist aufgefallen, dass vermutlich die verschiedenen Hirnhälften angesprochen wurden (Logik, Kreativität)","0","1","0","3115.714999847114","","","","","pos","CS","CS","2","category2/CS8.png","-26","targets/46.png","direct","",""
"","image-slider-response","117","517082","0.0-8.0-0.27","vxn9hs7gxn","many_one","0","direct_first","1","kinaen04","0","20","1","1","3","1","Mir ist aufgefallen, dass vermutlich die verschiedenen Hirnhälften angesprochen wurden (Logik, Kreativität)","0","1","0","3676.435000030324","","","","","neg","GS","GSold","4","category4/CS4.png","27","targets/13.png","direct","",""
"","image-slider-response","118","521612","0.0-8.0-0.28","vxn9hs7gxn","many_one","0","direct_first","1","kinaen04","0","20","1","1","3","1","Mir ist aufgefallen, dass vermutlich die verschiedenen Hirnhälften angesprochen wurden (Logik, Kreativität)","0","1","0","4526.310000102967","","","","","neg","GS","abstract","4","category4/lin.png","-35","targets/25.png","direct","",""
"","image-slider-response","119","525630","0.0-8.0-0.29","vxn9hs7gxn","many_one","0","direct_first","1","kinaen04","0","20","1","1","3","1","Mir ist aufgefallen, dass vermutlich die verschiedenen Hirnhälften angesprochen wurden (Logik, Kreativität)","0","1","0","4011.824999935925","","","","","neg","CS","CS","4","category4/CS1.png","-52","targets/32.png","direct","",""
"","image-slider-response","120","529018","0.0-8.0-0.30","vxn9hs7gxn","many_one","0","direct_first","1","kinaen04","0","20","1","1","3","1","Mir ist aufgefallen, dass vermutlich die verschiedenen Hirnhälften angesprochen wurden (Logik, Kreativität)","0","1","0","3383.3000001031905","","","","","pos","CS","CS","2","category2/CS1.png","17","targets/15.png","direct","",""
"","image-slider-response","121","537137","0.0-8.0-0.31","vxn9hs7gxn","many_one","0","direct_first","1","kinaen04","0","20","1","1","3","1","Mir ist aufgefallen, dass vermutlich die verschiedenen Hirnhälften angesprochen wurden (Logik, Kreativität)","0","1","0","8114.980000071228","","","","","neg","GS","GSold","1","category1/CS9.png","-19","targets/35.png","direct","",""
"","image-slider-response","122","540858","0.0-8.0-0.32","vxn9hs7gxn","many_one","0","direct_first","1","kinaen04","0","20","1","1","3","1","Mir ist aufgefallen, dass vermutlich die verschiedenen Hirnhälften angesprochen wurden (Logik, Kreativität)","0","1","0","3716.1550000309944","","","","","neg","CS","CS","1","category1/CS8.png","-33","targets/16.png","direct","",""
"","image-slider-response","123","543652","0.0-8.0-0.33","vxn9hs7gxn","many_one","0","direct_first","1","kinaen04","0","20","1","1","3","1","Mir ist aufgefallen, dass vermutlich die verschiedenen Hirnhälften angesprochen wurden (Logik, Kreativität)","0","1","0","2789.894999936223","","","","","pos","CS","CS","3","category3/CS6.png","22","targets/17.png","direct","",""
"","image-slider-response","124","547127","0.0-8.0-0.34","vxn9hs7gxn","many_one","0","direct_first","1","kinaen04","0","20","1","1","3","1","Mir ist aufgefallen, dass vermutlich die verschiedenen Hirnhälften angesprochen wurden (Logik, Kreativität)","0","1","0","3470.224999822676","","","","","pos","GS","GSnew","3","category3/GS3.png","31","targets/36.png","direct","",""
"","image-slider-response","125","549725","0.0-8.0-0.35","vxn9hs7gxn","many_one","0","direct_first","1","kinaen04","0","20","1","1","3","1","Mir ist aufgefallen, dass vermutlich die verschiedenen Hirnhälften angesprochen wurden (Logik, Kreativität)","0","1","0","2593.669999856502","","","","","neg","GS","GSold","1","category1/CS5.png","-15","targets/47.png","direct","",""
"","image-slider-response","126","554322","0.0-8.0-0.36","vxn9hs7gxn","many_one","0","direct_first","1","kinaen04","0","20","1","1","3","1","Mir ist aufgefallen, dass vermutlich die verschiedenen Hirnhälften angesprochen wurden (Logik, Kreativität)","0","1","0","4592.285000020638","","","","","pos","CS","CS","3","category3/CS1.png","25","targets/21.png","direct","",""
"","image-slider-response","127","558084","0.0-8.0-0.37","vxn9hs7gxn","many_one","0","direct_first","1","kinaen04","0","20","1","1","3","1","Mir ist aufgefallen, dass vermutlich die verschiedenen Hirnhälften angesprochen wurden (Logik, Kreativität)","0","1","0","3757.0499998982996","","","","","neg","GS","GSold","4","category4/CS6.png","-39","targets/7.png","direct","",""
"","image-slider-response","128","561657","0.0-8.0-0.38","vxn9hs7gxn","many_one","0","direct_first","1","kinaen04","0","20","1","1","3","1","Mir ist aufgefallen, dass vermutlich die verschiedenen Hirnhälften angesprochen wurden (Logik, Kreativität)","0","1","0","3568.9599998295307","","","","","neg","GS","GSnew","4","category4/GS3.png","-46","targets/37.png","direct","",""
"","image-slider-response","129","564580","0.0-8.0-0.39","vxn9hs7gxn","many_one","0","direct_first","1","kinaen04","0","20","1","1","3","1","Mir ist aufgefallen, dass vermutlich die verschiedenen Hirnhälften angesprochen wurden (Logik, Kreativität)","0","1","0","2918.165000155568","","","","","neg","GS","GSold","4","category4/CS9.png","-54","targets/10.png","direct","",""
"","image-slider-response","130","567860","0.0-8.0-0.40","vxn9hs7gxn","many_one","0","direct_first","1","kinaen04","0","20","1","1","3","1","Mir ist aufgefallen, dass vermutlich die verschiedenen Hirnhälften angesprochen wurden (Logik, Kreativität)","0","1","0","3276.259999955073","","","","","pos","CS","CS","2","category2/CS2.png","23","targets/12.png","direct","",""
"","image-slider-response","131","571893","0.0-8.0-0.41","vxn9hs7gxn","many_one","0","direct_first","1","kinaen04","0","20","1","1","3","1","Mir ist aufgefallen, dass vermutlich die verschiedenen Hirnhälften angesprochen wurden (Logik, Kreativität)","0","1","0","4028.040000004694","","","","","pos","GS","GSold","3","category3/CS4.png","19","targets/9.png","direct","",""
"","image-slider-response","132","575333","0.0-8.0-0.42","vxn9hs7gxn","many_one","0","direct_first","1","kinaen04","0","20","1","1","3","1","Mir ist aufgefallen, dass vermutlich die verschiedenen Hirnhälften angesprochen wurden (Logik, Kreativität)","0","1","0","3434.9750000983477","","","","","neg","GS","GSnew","4","category4/GS1.png","-33","targets/30.png","direct","",""
"","image-slider-response","133","578192","0.0-8.0-0.43","vxn9hs7gxn","many_one","0","direct_first","1","kinaen04","0","20","1","1","3","1","Mir ist aufgefallen, dass vermutlich die verschiedenen Hirnhälften angesprochen wurden (Logik, Kreativität)","0","1","0","2852.9550000093877","","","","","neg","GS","GSnew","1","category1/GS3.png","-27","targets/20.png","direct","",""
"","image-slider-response","134","582628","0.0-8.0-0.44","vxn9hs7gxn","many_one","0","direct_first","1","kinaen04","0","20","1","1","3","1","Mir ist aufgefallen, dass vermutlich die verschiedenen Hirnhälften angesprochen wurden (Logik, Kreativität)","0","1","0","4432.79999983497","","","","","pos","GS","GSnew","3","category3/GS2.png","-18","targets/45.png","direct","",""
"","image-slider-response","135","585600","0.0-8.0-0.45","vxn9hs7gxn","many_one","0","direct_first","1","kinaen04","0","20","1","1","3","1","Mir ist aufgefallen, dass vermutlich die verschiedenen Hirnhälften angesprochen wurden (Logik, Kreativität)","0","1","0","2969.234999967739","","","","","pos","GS","GSold","2","category2/CS5.png","34","targets/24.png","direct","",""
"","image-slider-response","136","588635","0.0-8.0-0.46","vxn9hs7gxn","many_one","0","direct_first","1","kinaen04","0","20","1","1","3","1","Mir ist aufgefallen, dass vermutlich die verschiedenen Hirnhälften angesprochen wurden (Logik, Kreativität)","0","1","0","3030.915000010282","","","","","pos","GS","GSold","2","category2/CS3.png","33","targets/22.png","direct","",""
"","image-slider-response","137","592109","0.0-8.0-0.47","vxn9hs7gxn","many_one","0","direct_first","1","kinaen04","0","20","1","1","3","1","Mir ist aufgefallen, dass vermutlich die verschiedenen Hirnhälften angesprochen wurden (Logik, Kreativität)","0","1","0","3469.6100000292063","","","","","pos","GS","GSold","2","category2/CS10.png","2","targets/1.png","direct","",""
"","html-keyboard-response","138","635402","0.0-9.0","vxn9hs7gxn","many_one","0","direct_first","1","kinaen04","0","20","1","1","3","1","Mir ist aufgefallen, dass vermutlich die verschiedenen Hirnhälften angesprochen wurden (Logik, Kreativität)","0","1","0","43288.76999998465","","","<p>Sie sehen nun die chinesischen Zeichen nur ganz kurz. Danach sehen Sie die jeweilige Aussprache der Zeichen als Silbe auf dem Bildschrim. Ihre Aufgabe ist es, für jede Silbe anzugeben, ob diese etwas angenehmes, oder unangenehmes bedeuten könnte. Verlassen Sie sich hier vor allem auf Ihre Intuition.<br><br>Die Zeichen werden nur zur Orientierung dargestellt, beachten Sie sie deshalb nicht. Konzentrieren Sie sich vor allem auf die Silben. <br>Reagieren Sie mit folgenden zwei Tasten: <br><br><b>'D' </b> wenn die Silbe etwas <b>unangenehmes</b> bedeuten könnte. <br><b>'K'</b> wenn die Silbe etwas <b>angenehmes</b> bedeuten könnte. <br><br>Bitte legen Sie nun den Zeigefinger der linken Hand auf die Taste 'D' und den Zeigefinger der rechten Hand auf die Taste 'K'. <br>Reagieren Sie auf jede Silbe so schnell wie möglich. Uns interessiert Ihre spontane Reaktion. <br> <br> <br>Drücken Sie 'D' oder 'K', um die nächste Aufgabe zu starten. </p>","68","","","","","","","","","",""
"","html-keyboard-response","139","638409","0.0-10.0-0.0","vxn9hs7gxn","many_one","0","direct_first","1","kinaen04","0","20","1","1","3","1","Mir ist aufgefallen, dass vermutlich die verschiedenen Hirnhälften angesprochen wurden (Logik, Kreativität)","0","1","0","null","","","<div style=""font-size:60px;"">+</div>","null","","","","","","","","","",""
"","html-keyboard-response","140","638502","0.0-10.0-1.0","vxn9hs7gxn","many_one","0","direct_first","1","kinaen04","0","20","1","1","3","1","Mir ist aufgefallen, dass vermutlich die verschiedenen Hirnhälften angesprochen wurden (Logik, Kreativität)","0","1","0","null","","","<img src = 'category3/CS2.png' width = '100%;'>","null","","","","","","","","","",""
"","html-keyboard-response","141","638755","0.0-10.0-2.0","vxn9hs7gxn","many_one","0","direct_first","1","kinaen04","0","20","1","1","3","1","Mir ist aufgefallen, dass vermutlich die verschiedenen Hirnhälften angesprochen wurden (Logik, Kreativität)","0","1","0","null","","","<img src = 'targets/48.png' width = '100%;'>","null","","","","","","","","","",""
"","html-keyboard-response","142","641241","0.0-10.0-3.0","vxn9hs7gxn","many_one","0","direct_first","1","kinaen04","0","20","1","1","3","1","Mir ist aufgefallen, dass vermutlich die verschiedenen Hirnhälften angesprochen wurden (Logik, Kreativität)","0","1","0","2484.4249999150634","","","<img src = 'targets/mask.png' width = '100%;'>","75","pos","CS","CS","3","category3/CS2.png","","targets/48.png","indirect","1","0"
"","html-keyboard-response","143","642745","0.0-10.0-0.1","vxn9hs7gxn","many_one","0","direct_first","1","kinaen04","0","20","1","1","3","1","Mir ist aufgefallen, dass vermutlich die verschiedenen Hirnhälften angesprochen wurden (Logik, Kreativität)","0","1","0","null","","","<div style=""font-size:60px;"">+</div>","null","","","","","","","","","",""
"","html-keyboard-response","144","642837","0.0-10.0-1.1","vxn9hs7gxn","many_one","0","direct_first","1","kinaen04","0","20","1","1","3","1","Mir ist aufgefallen, dass vermutlich die verschiedenen Hirnhälften angesprochen wurden (Logik, Kreativität)","0","1","0","null","","","<img src = 'category4/CS8.png' width = '100%;'>","null","","","","","","","","","",""
"","html-keyboard-response","145","643091","0.0-10.0-2.1","vxn9hs7gxn","many_one","0","direct_first","1","kinaen04","0","20","1","1","3","1","Mir ist aufgefallen, dass vermutlich die verschiedenen Hirnhälften angesprochen wurden (Logik, Kreativität)","0","1","0","null","","","<img src = 'targets/28.png' width = '100%;'>","null","","","","","","","","","",""
"","html-keyboard-response","146","644033","0.0-10.0-3.1","vxn9hs7gxn","many_one","0","direct_first","1","kinaen04","0","20","1","1","3","1","Mir ist aufgefallen, dass vermutlich die verschiedenen Hirnhälften angesprochen wurden (Logik, Kreativität)","0","1","0","939.4199999514967","","","<img src = 'targets/mask.png' width = '100%;'>","75","neg","CS","CS","4","category4/CS8.png","","targets/28.png","indirect","1","1"
"","html-keyboard-response","147","645540","0.0-10.0-0.2","vxn9hs7gxn","many_one","0","direct_first","1","kinaen04","0","20","1","1","3","1","Mir ist aufgefallen, dass vermutlich die verschiedenen Hirnhälften angesprochen wurden (Logik, Kreativität)","0","1","0","null","","","<div style=""font-size:60px;"">+</div>","null","","","","","","","","","",""
"","html-keyboard-response","148","645632","0.0-10.0-1.2","vxn9hs7gxn","many_one","0","direct_first","1","kinaen04","0","20","1","1","3","1","Mir ist aufgefallen, dass vermutlich die verschiedenen Hirnhälften angesprochen wurden (Logik, Kreativität)","0","1","0","null","","","<img src = 'category4/CS5.png' width = '100%;'>","null","","","","","","","","","",""
"","html-keyboard-response","149","645885","0.0-10.0-2.2","vxn9hs7gxn","many_one","0","direct_first","1","kinaen04","0","20","1","1","3","1","Mir ist aufgefallen, dass vermutlich die verschiedenen Hirnhälften angesprochen wurden (Logik, Kreativität)","0","1","0","null","","","<img src = 'targets/42.png' width = '100%;'>","null","","","","","","","","","",""
"","html-keyboard-response","150","646435","0.0-10.0-3.2","vxn9hs7gxn","many_one","0","direct_first","1","kinaen04","0","20","1","1","3","1","Mir ist aufgefallen, dass vermutlich die verschiedenen Hirnhälften angesprochen wurden (Logik, Kreativität)","0","1","0","547.2300001420081","","","<img src = 'targets/mask.png' width = '100%;'>","68","neg","CS","CS","4","category4/CS5.png","","targets/42.png","indirect","0","2"
"","html-keyboard-response","151","647937","0.0-10.0-0.3","vxn9hs7gxn","many_one","0","direct_first","1","kinaen04","0","20","1","1","3","1","Mir ist aufgefallen, dass vermutlich die verschiedenen Hirnhälften angesprochen wurden (Logik, Kreativität)","0","1","0","null","","","<div style=""font-size:60px;"">+</div>","null","","","","","","","","","",""
"","html-keyboard-response","152","648030","0.0-10.0-1.3","vxn9hs7gxn","many_one","0","direct_first","1","kinaen04","0","20","1","1","3","1","Mir ist aufgefallen, dass vermutlich die verschiedenen Hirnhälften angesprochen wurden (Logik, Kreativität)","0","1","0","null","","","<img src = 'category2/CS1.png' width = '100%;'>","null","","","","","","","","","",""
"","html-keyboard-response","153","648283","0.0-10.0-2.3","vxn9hs7gxn","many_one","0","direct_first","1","kinaen04","0","20","1","1","3","1","Mir ist aufgefallen, dass vermutlich die verschiedenen Hirnhälften angesprochen wurden (Logik, Kreativität)","0","1","0","null","","","<img src = 'targets/15.png' width = '100%;'>","null","","","","","","","","","",""
"","html-keyboard-response","154","648915","0.0-10.0-3.3","vxn9hs7gxn","many_one","0","direct_first","1","kinaen04","0","20","1","1","3","1","Mir ist aufgefallen, dass vermutlich die verschiedenen Hirnhälften angesprochen wurden (Logik, Kreativität)","0","1","0","629.7450000420213","","","<img src = 'targets/mask.png' width = '100%;'>","75","pos","CS","CS","2","category2/CS1.png","","targets/15.png","indirect","1","3"
"","html-keyboard-response","155","650418","0.0-10.0-0.4","vxn9hs7gxn","many_one","0","direct_first","1","kinaen04","0","20","1","1","3","1","Mir ist aufgefallen, dass vermutlich die verschiedenen Hirnhälften angesprochen wurden (Logik, Kreativität)","0","1","0","null","","","<div style=""font-size:60px;"">+</div>","null","","","","","","","","","",""
"","html-keyboard-response","156","650510","0.0-10.0-1.4","vxn9hs7gxn","many_one","0","direct_first","1","kinaen04","0","20","1","1","3","1","Mir ist aufgefallen, dass vermutlich die verschiedenen Hirnhälften angesprochen wurden (Logik, Kreativität)","0","1","0","null","","","<img src = 'category4/CS1.png' width = '100%;'>","null","","","","","","","","","",""
"","html-keyboard-response","157","650764","0.0-10.0-2.4","vxn9hs7gxn","many_one","0","direct_first","1","kinaen04","0","20","1","1","3","1","Mir ist aufgefallen, dass vermutlich die verschiedenen Hirnhälften angesprochen wurden (Logik, Kreativität)","0","1","0","null","","","<img src = 'targets/32.png' width = '100%;'>","null","","","","","","","","","",""
"","html-keyboard-response","158","652105","0.0-10.0-3.4","vxn9hs7gxn","many_one","0","direct_first","1","kinaen04","0","20","1","1","3","1","Mir ist aufgefallen, dass vermutlich die verschiedenen Hirnhälften angesprochen wurden (Logik, Kreativität)","0","1","0","1337.959999917075","","","<img src = 'targets/mask.png' width = '100%;'>","75","neg","CS","CS","4","category4/CS1.png","","targets/32.png","indirect","1","4"
"","html-keyboard-response","159","653608","0.0-10.0-0.5","vxn9hs7gxn","many_one","0","direct_first","1","kinaen04","0","20","1","1","3","1","Mir ist aufgefallen, dass vermutlich die verschiedenen Hirnhälften angesprochen wurden (Logik, Kreativität)","0","1","0","null","","","<div style=""font-size:60px;"">+</div>","null","","","","","","","","","",""
"","html-keyboard-response","160","653701","0.0-10.0-1.5","vxn9hs7gxn","many_one","0","direct_first","1","kinaen04","0","20","1","1","3","1","Mir ist aufgefallen, dass vermutlich die verschiedenen Hirnhälften angesprochen wurden (Logik, Kreativität)","0","1","0","null","","","<img src = 'category1/CS2.png' width = '100%;'>","null","","","","","","","","","",""
"","html-keyboard-response","161","653954","0.0-10.0-2.5","vxn9hs7gxn","many_one","0","direct_first","1","kinaen04","0","20","1","1","3","1","Mir ist aufgefallen, dass vermutlich die verschiedenen Hirnhälften angesprochen wurden (Logik, Kreativität)","0","1","0","null","","","<img src = 'targets/6.png' width = '100%;'>","null","","","","","","","","","",""
"","html-keyboard-response","162","654361","0.0-10.0-3.5","vxn9hs7gxn","many_one","0","direct_first","1","kinaen04","0","20","1","1","3","1","Mir ist aufgefallen, dass vermutlich die verschiedenen Hirnhälften angesprochen wurden (Logik, Kreativität)","0","1","0","404.16999999433756","","","<img src = 'targets/mask.png' width = '100%;'>","68","neg","CS","CS","1","category1/CS2.png","","targets/6.png","indirect","0","5"
"","html-keyboard-response","163","655864","0.0-10.0-0.6","vxn9hs7gxn","many_one","0","direct_first","1","kinaen04","0","20","1","1","3","1","Mir ist aufgefallen, dass vermutlich die verschiedenen Hirnhälften angesprochen wurden (Logik, Kreativität)","0","1","0","null","","","<div style=""font-size:60px;"">+</div>","null","","","","","","","","","",""
"","html-keyboard-response","164","655955","0.0-10.0-1.6","vxn9hs7gxn","many_one","0","direct_first","1","kinaen04","0","20","1","1","3","1","Mir ist aufgefallen, dass vermutlich die verschiedenen Hirnhälften angesprochen wurden (Logik, Kreativität)","0","1","0","null","","","<img src = 'category4/CS6.png' width = '100%;'>","null","","","","","","","","","",""
"","html-keyboard-response","165","656210","0.0-10.0-2.6","vxn9hs7gxn","many_one","0","direct_first","1","kinaen04","0","20","1","1","3","1","Mir ist aufgefallen, dass vermutlich die verschiedenen Hirnhälften angesprochen wurden (Logik, Kreativität)","0","1","0","null","","","<img src = 'targets/7.png' width = '100%;'>","null","","","","","","","","","",""
"","html-keyboard-response","166","657679","0.0-10.0-3.6","vxn9hs7gxn","many_one","0","direct_first","1","kinaen04","0","20","1","1","3","1","Mir ist aufgefallen, dass vermutlich die verschiedenen Hirnhälften angesprochen wurden (Logik, Kreativität)","0","1","0","1467.1399998478591","","","<img src = 'targets/mask.png' width = '100%;'>","68","neg","GS","GSold","4","category4/CS6.png","","targets/7.png","indirect","0","6"
"","html-keyboard-response","167","659181","0.0-10.0-0.7","vxn9hs7gxn","many_one","0","direct_first","1","kinaen04","0","20","1","1","3","1","Mir ist aufgefallen, dass vermutlich die verschiedenen Hirnhälften angesprochen wurden (Logik, Kreativität)","0","1","0","null","","","<div style=""font-size:60px;"">+</div>","null","","","","","","","","","",""
"","html-keyboard-response","168","659274","0.0-10.0-1.7","vxn9hs7gxn","many_one","0","direct_first","1","kinaen04","0","20","1","1","3","1","Mir ist aufgefallen, dass vermutlich die verschiedenen Hirnhälften angesprochen wurden (Logik, Kreativität)","0","1","0","null","","","<img src = 'category3/CS6.png' width = '100%;'>","null","","","","","","","","","",""
"","html-keyboard-response","169","659527","0.0-10.0-2.7","vxn9hs7gxn","many_one","0","direct_first","1","kinaen04","0","20","1","1","3","1","Mir ist aufgefallen, dass vermutlich die verschiedenen Hirnhälften angesprochen wurden (Logik, Kreativität)","0","1","0","null","","","<img src = 'targets/17.png' width = '100%;'>","null","","","","","","","","","",""
"","html-keyboard-response","170","660402","0.0-10.0-3.7","vxn9hs7gxn","many_one","0","direct_first","1","kinaen04","0","20","1","1","3","1","Mir ist aufgefallen, dass vermutlich die verschiedenen Hirnhälften angesprochen wurden (Logik, Kreativität)","0","1","0","872.1100001130253","","","<img src = 'targets/mask.png' width = '100%;'>","75","pos","CS","CS","3","category3/CS6.png","","targets/17.png","indirect","1","7"
"","html-keyboard-response","171","661905","0.0-10.0-0.8","vxn9hs7gxn","many_one","0","direct_first","1","kinaen04","0","20","1","1","3","1","Mir ist aufgefallen, dass vermutlich die verschiedenen Hirnhälften angesprochen wurden (Logik, Kreativität)","0","1","0","null","","","<div style=""font-size:60px;"">+</div>","null","","","","","","","","","",""
"","html-keyboard-response","172","661997","0.0-10.0-1.8","vxn9hs7gxn","many_one","0","direct_first","1","kinaen04","0","20","1","1","3","1","Mir ist aufgefallen, dass vermutlich die verschiedenen Hirnhälften angesprochen wurden (Logik, Kreativität)","0","1","0","null","","","<img src = 'category1/CS8.png' width = '100%;'>","null","","","","","","","","","",""
"","html-keyboard-response","173","662250","0.0-10.0-2.8","vxn9hs7gxn","many_one","0","direct_first","1","kinaen04","0","20","1","1","3","1","Mir ist aufgefallen, dass vermutlich die verschiedenen Hirnhälften angesprochen wurden (Logik, Kreativität)","0","1","0","null","","","<img src = 'targets/16.png' width = '100%;'>","null","","","","","","","","","",""
"","html-keyboard-response","174","663089","0.0-10.0-3.8","vxn9hs7gxn","many_one","0","direct_first","1","kinaen04","0","20","1","1","3","1","Mir ist aufgefallen, dass vermutlich die verschiedenen Hirnhälften angesprochen wurden (Logik, Kreativität)","0","1","0","836.9650000240654","","","<img src = 'targets/mask.png' width = '100%;'>","75","neg","CS","CS","1","category1/CS8.png","","targets/16.png","indirect","1","8"
"","html-keyboard-response","175","664592","0.0-10.0-0.9","vxn9hs7gxn","many_one","0","direct_first","1","kinaen04","0","20","1","1","3","1","Mir ist aufgefallen, dass vermutlich die verschiedenen Hirnhälften angesprochen wurden (Logik, Kreativität)","0","1","0","null","","","<div style=""font-size:60px;"">+</div>","null","","","","","","","","","",""
"","html-keyboard-response","176","664685","0.0-10.0-1.9","vxn9hs7gxn","many_one","0","direct_first","1","kinaen04","0","20","1","1","3","1","Mir ist aufgefallen, dass vermutlich die verschiedenen Hirnhälften angesprochen wurden (Logik, Kreativität)","0","1","0","null","","","<img src = 'category4/CS3.png' width = '100%;'>","null","","","","","","","","","",""
"","html-keyboard-response","177","664938","0.0-10.0-2.9","vxn9hs7gxn","many_one","0","direct_first","1","kinaen04","0","20","1","1","3","1","Mir ist aufgefallen, dass vermutlich die verschiedenen Hirnhälften angesprochen wurden (Logik, Kreativität)","0","1","0","null","","","<img src = 'targets/39.png' width = '100%;'>","null","","","","","","","","","",""
"","html-keyboard-response","178","666157","0.0-10.0-3.9","vxn9hs7gxn","many_one","0","direct_first","1","kinaen04","0","20","1","1","3","1","Mir ist aufgefallen, dass vermutlich die verschiedenen Hirnhälften angesprochen wurden (Logik, Kreativität)","0","1","0","1216.9099999591708","","","<img src = 'targets/mask.png' width = '100%;'>","68","neg","CS","CS","4","category4/CS3.png","","targets/39.png","indirect","0","9"
"","html-keyboard-response","179","667666","0.0-10.0-0.10","vxn9hs7gxn","many_one","0","direct_first","1","kinaen04","0","20","1","1","3","1","Mir ist aufgefallen, dass vermutlich die verschiedenen Hirnhälften angesprochen wurden (Logik, Kreativität)","0","1","0","null","","","<div style=""font-size:60px;"">+</div>","null","","","","","","","","","",""
"","html-keyboard-response","180","667759","0.0-10.0-1.10","vxn9hs7gxn","many_one","0","direct_first","1","kinaen04","0","20","1","1","3","1","Mir ist aufgefallen, dass vermutlich die verschiedenen Hirnhälften angesprochen wurden (Logik, Kreativität)","0","1","0","null","","","<img src = 'category1/CS4.png' width = '100%;'>","null","","","","","","","","","",""
"","html-keyboard-response","181","668012","0.0-10.0-2.10","vxn9hs7gxn","many_one","0","direct_first","1","kinaen04","0","20","1","1","3","1","Mir ist aufgefallen, dass vermutlich die verschiedenen Hirnhälften angesprochen wurden (Logik, Kreativität)","0","1","0","null","","","<img src = 'targets/18.png' width = '100%;'>","null","","","","","","","","","",""
"","html-keyboard-response","182","669198","0.0-10.0-3.10","vxn9hs7gxn","many_one","0","direct_first","1","kinaen04","0","20","1","1","3","1","Mir ist aufgefallen, dass vermutlich die verschiedenen Hirnhälften angesprochen wurden (Logik, Kreativität)","0","1","0","1182.9199998173863","","","<img src = 'targets/mask.png' width = '100%;'>","68","neg","CS","CS","1","category1/CS4.png","","targets/18.png","indirect","0","10"
"","html-keyboard-response","183","670701","0.0-10.0-0.11","vxn9hs7gxn","many_one","0","direct_first","1","kinaen04","0","20","1","1","3","1","Mir ist aufgefallen, dass vermutlich die verschiedenen Hirnhälften angesprochen wurden (Logik, Kreativität)","0","1","0","null","","","<div style=""font-size:60px;"">+</div>","null","","","","","","","","","",""
"","html-keyboard-response","184","670794","0.0-10.0-1.11","vxn9hs7gxn","many_one","0","direct_first","1","kinaen04","0","20","1","1","3","1","Mir ist aufgefallen, dass vermutlich die verschiedenen Hirnhälften angesprochen wurden (Logik, Kreativität)","0","1","0","null","","","<img src = 'category1/CS7.png' width = '100%;'>","null","","","","","","","","","",""
"","html-keyboard-response","185","671047","0.0-10.0-2.11","vxn9hs7gxn","many_one","0","direct_first","1","kinaen04","0","20","1","1","3","1","Mir ist aufgefallen, dass vermutlich die verschiedenen Hirnhälften angesprochen wurden (Logik, Kreativität)","0","1","0","null","","","<img src = 'targets/34.png' width = '100%;'>","null","","","","","","","","","",""
"","html-keyboard-response","186","673658","0.0-10.0-3.11","vxn9hs7gxn","many_one","0","direct_first","1","kinaen04","0","20","1","1","3","1","Mir ist aufgefallen, dass vermutlich die verschiedenen Hirnhälften angesprochen wurden (Logik, Kreativität)","0","1","0","2608.385000145063","","","<img src = 'targets/mask.png' width = '100%;'>","75","neg","CS","CS","1","category1/CS7.png","","targets/34.png","indirect","1","11"
"","html-keyboard-response","187","675161","0.0-10.0-0.12","vxn9hs7gxn","many_one","0","direct_first","1","kinaen04","0","20","1","1","3","1","Mir ist aufgefallen, dass vermutlich die verschiedenen Hirnhälften angesprochen wurden (Logik, Kreativität)","0","1","0","null","","","<div style=""font-size:60px;"">+</div>","null","","","","","","","","","",""
"","html-keyboard-response","188","675254","0.0-10.0-1.12","vxn9hs7gxn","many_one","0","direct_first","1","kinaen04","0","20","1","1","3","1","Mir ist aufgefallen, dass vermutlich die verschiedenen Hirnhälften angesprochen wurden (Logik, Kreativität)","0","1","0","null","","","<img src = 'category2/CS6.png' width = '100%;'>","null","","","","","","","","","",""
"","html-keyboard-response","189","675506","0.0-10.0-2.12","vxn9hs7gxn","many_one","0","direct_first","1","kinaen04","0","20","1","1","3","1","Mir ist aufgefallen, dass vermutlich die verschiedenen Hirnhälften angesprochen wurden (Logik, Kreativität)","0","1","0","null","","","<img src = 'targets/4.png' width = '100%;'>","null","","","","","","","","","",""
"","html-keyboard-response","190","677828","0.0-10.0-3.12","vxn9hs7gxn","many_one","0","direct_first","1","kinaen04","0","20","1","1","3","1","Mir ist aufgefallen, dass vermutlich die verschiedenen Hirnhälften angesprochen wurden (Logik, Kreativität)","0","1","0","2319.1700000315905","","","<img src = 'targets/mask.png' width = '100%;'>","68","pos","CS","CS","2","category2/CS6.png","","targets/4.png","indirect","0","12"
"","html-keyboard-response","191","679331","0.0-10.0-0.13","vxn9hs7gxn","many_one","0","direct_first","1","kinaen04","0","20","1","1","3","1","Mir ist aufgefallen, dass vermutlich die verschiedenen Hirnhälften angesprochen wurden (Logik, Kreativität)","0","1","0","null","","","<div style=""font-size:60px;"">+</div>","null","","","","","","","","","",""
"","html-keyboard-response","192","679424","0.0-10.0-1.13","vxn9hs7gxn","many_one","0","direct_first","1","kinaen04","0","20","1","1","3","1","Mir ist aufgefallen, dass vermutlich die verschiedenen Hirnhälften angesprochen wurden (Logik, Kreativität)","0","1","0","null","","","<img src = 'category4/CS9.png' width = '100%;'>","null","","","","","","","","","",""
"","html-keyboard-response","193","679677","0.0-10.0-2.13","vxn9hs7gxn","many_one","0","direct_first","1","kinaen04","0","20","1","1","3","1","Mir ist aufgefallen, dass vermutlich die verschiedenen Hirnhälften angesprochen wurden (Logik, Kreativität)","0","1","0","null","","","<img src = 'targets/10.png' width = '100%;'>","null","","","","","","","","","",""
"","html-keyboard-response","194","680697","0.0-10.0-3.13","vxn9hs7gxn","many_one","0","direct_first","1","kinaen04","0","20","1","1","3","1","Mir ist aufgefallen, dass vermutlich die verschiedenen Hirnhälften angesprochen wurden (Logik, Kreativität)","0","1","0","1017.0899999793619","","","<img src = 'targets/mask.png' width = '100%;'>","75","neg","GS","GSold","4","category4/CS9.png","","targets/10.png","indirect","1","13"
"","html-keyboard-response","195","682200","0.0-10.0-0.14","vxn9hs7gxn","many_one","0","direct_first","1","kinaen04","0","20","1","1","3","1","Mir ist aufgefallen, dass vermutlich die verschiedenen Hirnhälften angesprochen wurden (Logik, Kreativität)","0","1","0","null","","","<div style=""font-size:60px;"">+</div>","null","","","","","","","","","",""
"","html-keyboard-response","196","682292","0.0-10.0-1.14","vxn9hs7gxn","many_one","0","direct_first","1","kinaen04","0","20","1","1","3","1","Mir ist aufgefallen, dass vermutlich die verschiedenen Hirnhälften angesprochen wurden (Logik, Kreativität)","0","1","0","null","","","<img src = 'category3/CS3.png' width = '100%;'>","null","","","","","","","","","",""
"","html-keyboard-response","197","682545","0.0-10.0-2.14","vxn9hs7gxn","many_one","0","direct_first","1","kinaen04","0","20","1","1","3","1","Mir ist aufgefallen, dass vermutlich die verschiedenen Hirnhälften angesprochen wurden (Logik, Kreativität)","0","1","0","null","","","<img src = 'targets/23.png' width = '100%;'>","null","","","","","","","","","",""
"","html-keyboard-response","198","683580","0.0-10.0-3.14","vxn9hs7gxn","many_one","0","direct_first","1","kinaen04","0","20","1","1","3","1","Mir ist aufgefallen, dass vermutlich die verschiedenen Hirnhälften angesprochen wurden (Logik, Kreativität)","0","1","0","1032.2050000540912","","","<img src = 'targets/mask.png' width = '100%;'>","68","pos","CS","CS","3","category3/CS3.png","","targets/23.png","indirect","0","14"
"","html-keyboard-response","199","685082","0.0-10.0-0.15","vxn9hs7gxn","many_one","0","direct_first","1","kinaen04","0","20","1","1","3","1","Mir ist aufgefallen, dass vermutlich die verschiedenen Hirnhälften angesprochen wurden (Logik, Kreativität)","0","1","0","null","","","<div style=""font-size:60px;"">+</div>","null","","","","","","","","","",""
"","html-keyboard-response","200","685176","0.0-10.0-1.15","vxn9hs7gxn","many_one","0","direct_first","1","kinaen04","0","20","1","1","3","1","Mir ist aufgefallen, dass vermutlich die verschiedenen Hirnhälften angesprochen wurden (Logik, Kreativität)","0","1","0","null","","","<img src = 'category2/CS4.png' width = '100%;'>","null","","","","","","","","","",""
"","html-keyboard-response","201","685429","0.0-10.0-2.15","vxn9hs7gxn","many_one","0","direct_first","1","kinaen04","0","20","1","1","3","1","Mir ist aufgefallen, dass vermutlich die verschiedenen Hirnhälften angesprochen wurden (Logik, Kreativität)","0","1","0","null","","","<img src = 'targets/29.png' width = '100%;'>","null","","","","","","","","","",""
"","html-keyboard-response","202","686038","0.0-10.0-3.15","vxn9hs7gxn","many_one","0","direct_first","1","kinaen04","0","20","1","1","3","1","Mir ist aufgefallen, dass vermutlich die verschiedenen Hirnhälften angesprochen wurden (Logik, Kreativität)","0","1","0","605.4999998304993","","","<img src = 'targets/mask.png' width = '100%;'>","75","pos","CS","CS","2","category2/CS4.png","","targets/29.png","indirect","1","15"
"","html-keyboard-response","203","687542","0.0-10.0-0.16","vxn9hs7gxn","many_one","0","direct_first","1","kinaen04","0","20","1","1","3","1","Mir ist aufgefallen, dass vermutlich die verschiedenen Hirnhälften angesprochen wurden (Logik, Kreativität)","0","1","0","null","","","<div style=""font-size:60px;"">+</div>","null","","","","","","","","","",""
"","html-keyboard-response","204","687634","0.0-10.0-1.16","vxn9hs7gxn","many_one","0","direct_first","1","kinaen04","0","20","1","1","3","1","Mir ist aufgefallen, dass vermutlich die verschiedenen Hirnhälften angesprochen wurden (Logik, Kreativität)","0","1","0","null","","","<img src = 'category2/CS2.png' width = '100%;'>","null","","","","","","","","","",""
"","html-keyboard-response","205","687888","0.0-10.0-2.16","vxn9hs7gxn","many_one","0","direct_first","1","kinaen04","0","20","1","1","3","1","Mir ist aufgefallen, dass vermutlich die verschiedenen Hirnhälften angesprochen wurden (Logik, Kreativität)","0","1","0","null","","","<img src = 'targets/12.png' width = '100%;'>","null","","","","","","","","","",""
"","html-keyboard-response","206","688771","0.0-10.0-3.16","vxn9hs7gxn","many_one","0","direct_first","1","kinaen04","0","20","1","1","3","1","Mir ist aufgefallen, dass vermutlich die verschiedenen Hirnhälften angesprochen wurden (Logik, Kreativität)","0","1","0","880.7949998881668","","","<img src = 'targets/mask.png' width = '100%;'>","75","pos","CS","CS","2","category2/CS2.png","","targets/12.png","indirect","1","16"
"","html-keyboard-response","207","690274","0.0-10.0-0.17","vxn9hs7gxn","many_one","0","direct_first","1","kinaen04","0","20","1","1","3","1","Mir ist aufgefallen, dass vermutlich die verschiedenen Hirnhälften angesprochen wurden (Logik, Kreativität)","0","1","0","null","","","<div style=""font-size:60px;"">+</div>","null","","","","","","","","","",""
"","html-keyboard-response","208","690366","0.0-10.0-1.17","vxn9hs7gxn","many_one","0","direct_first","1","kinaen04","0","20","1","1","3","1","Mir ist aufgefallen, dass vermutlich die verschiedenen Hirnhälften angesprochen wurden (Logik, Kreativität)","0","1","0","null","","","<img src = 'category1/CS10.png' width = '100%;'>","null","","","","","","","","","",""
"","html-keyboard-response","209","690619","0.0-10.0-2.17","vxn9hs7gxn","many_one","0","direct_first","1","kinaen04","0","20","1","1","3","1","Mir ist aufgefallen, dass vermutlich die verschiedenen Hirnhälften angesprochen wurden (Logik, Kreativität)","0","1","0","null","","","<img src = 'targets/44.png' width = '100%;'>","null","","","","","","","","","",""
"","html-keyboard-response","210","691040","0.0-10.0-3.17","vxn9hs7gxn","many_one","0","direct_first","1","kinaen04","0","20","1","1","3","1","Mir ist aufgefallen, dass vermutlich die verschiedenen Hirnhälften angesprochen wurden (Logik, Kreativität)","0","1","0","418.8850000500679","","","<img src = 'targets/mask.png' width = '100%;'>","68","neg","CS","CS","1","category1/CS10.png","","targets/44.png","indirect","0","17"
"","html-keyboard-response","211","692543","0.0-10.0-0.18","vxn9hs7gxn","many_one","0","direct_first","1","kinaen04","0","20","1","1","3","1","Mir ist aufgefallen, dass vermutlich die verschiedenen Hirnhälften angesprochen wurden (Logik, Kreativität)","0","1","0","null","","","<div style=""font-size:60px;"">+</div>","null","","","","","","","","","",""
"","html-keyboard-response","212","692635","0.0-10.0-1.18","vxn9hs7gxn","many_one","0","direct_first","1","kinaen04","0","20","1","1","3","1","Mir ist aufgefallen, dass vermutlich die verschiedenen Hirnhälften angesprochen wurden (Logik, Kreativität)","0","1","0","null","","","<img src = 'category4/CS7.png' width = '100%;'>","null","","","","","","","","","",""
"","html-keyboard-response","213","692890","0.0-10.0-2.18","vxn9hs7gxn","many_one","0","direct_first","1","kinaen04","0","20","1","1","3","1","Mir ist aufgefallen, dass vermutlich die verschiedenen Hirnhälften angesprochen wurden (Logik, Kreativität)","0","1","0","null","","","<img src = 'targets/2.png' width = '100%;'>","null","","","","","","","","","",""
"","html-keyboard-response","214","693859","0.0-10.0-3.18","vxn9hs7gxn","many_one","0","direct_first","1","kinaen04","0","20","1","1","3","1","Mir ist aufgefallen, dass vermutlich die verschiedenen Hirnhälften angesprochen wurden (Logik, Kreativität)","0","1","0","965.5649999622256","","","<img src = 'targets/mask.png' width = '100%;'>","68","neg","CS","CS","4","category4/CS7.png","","targets/2.png","indirect","0","18"
"","html-keyboard-response","215","695361","0.0-10.0-0.19","vxn9hs7gxn","many_one","0","direct_first","1","kinaen04","0","20","1","1","3","1","Mir ist aufgefallen, dass vermutlich die verschiedenen Hirnhälften angesprochen wurden (Logik, Kreativität)","0","1","0","null","","","<div style=""font-size:60px;"">+</div>","null","","","","","","","","","",""
"","html-keyboard-response","216","695453","0.0-10.0-1.19","vxn9hs7gxn","many_one","0","direct_first","1","kinaen04","0","20","1","1","3","1","Mir ist aufgefallen, dass vermutlich die verschiedenen Hirnhälften angesprochen wurden (Logik, Kreativität)","0","1","0","null","","","<img src = 'category2/CS5.png' width = '100%;'>","null","","","","","","","","","",""
"","html-keyboard-response","217","695707","0.0-10.0-2.19","vxn9hs7gxn","many_one","0","direct_first","1","kinaen04","0","20","1","1","3","1","Mir ist aufgefallen, dass vermutlich die verschiedenen Hirnhälften angesprochen wurden (Logik, Kreativität)","0","1","0","null","","","<img src = 'targets/24.png' width = '100%;'>","null","","","","","","","","","",""
"","html-keyboard-response","218","696603","0.0-10.0-3.19","vxn9hs7gxn","many_one","0","direct_first","1","kinaen04","0","20","1","1","3","1","Mir ist aufgefallen, dass vermutlich die verschiedenen Hirnhälften angesprochen wurden (Logik, Kreativität)","0","1","0","892.8849999792874","","","<img src = 'targets/mask.png' width = '100%;'>","68","pos","GS","GSold","2","category2/CS5.png","","targets/24.png","indirect","0","19"
"","html-keyboard-response","219","698106","0.0-10.0-0.20","vxn9hs7gxn","many_one","0","direct_first","1","kinaen04","0","20","1","1","3","1","Mir ist aufgefallen, dass vermutlich die verschiedenen Hirnhälften angesprochen wurden (Logik, Kreativität)","0","1","0","null","","","<div style=""font-size:60px;"">+</div>","null","","","","","","","","","",""
"","html-keyboard-response","220","698198","0.0-10.0-1.20","vxn9hs7gxn","many_one","0","direct_first","1","kinaen04","0","20","1","1","3","1","Mir ist aufgefallen, dass vermutlich die verschiedenen Hirnhälften angesprochen wurden (Logik, Kreativität)","0","1","0","null","","","<img src = 'category3/CS9.png' width = '100%;'>","null","","","","","","","","","",""
"","html-keyboard-response","221","698452","0.0-10.0-2.20","vxn9hs7gxn","many_one","0","direct_first","1","kinaen04","0","20","1","1","3","1","Mir ist aufgefallen, dass vermutlich die verschiedenen Hirnhälften angesprochen wurden (Logik, Kreativität)","0","1","0","null","","","<img src = 'targets/43.png' width = '100%;'>","null","","","","","","","","","",""
"","html-keyboard-response","222","699130","0.0-10.0-3.20","vxn9hs7gxn","many_one","0","direct_first","1","kinaen04","0","20","1","1","3","1","Mir ist aufgefallen, dass vermutlich die verschiedenen Hirnhälften angesprochen wurden (Logik, Kreativität)","0","1","0","675.6499998737127","","","<img src = 'targets/mask.png' width = '100%;'>","75","pos","CS","CS","3","category3/CS9.png","","targets/43.png","indirect","1","20"
"","html-keyboard-response","223","700632","0.0-10.0-0.21","vxn9hs7gxn","many_one","0","direct_first","1","kinaen04","0","20","1","1","3","1","Mir ist aufgefallen, dass vermutlich die verschiedenen Hirnhälften angesprochen wurden (Logik, Kreativität)","0","1","0","null","","","<div style=""font-size:60px;"">+</div>","null","","","","","","","","","",""
"","html-keyboard-response","224","700725","0.0-10.0-1.21","vxn9hs7gxn","many_one","0","direct_first","1","kinaen04","0","20","1","1","3","1","Mir ist aufgefallen, dass vermutlich die verschiedenen Hirnhälften angesprochen wurden (Logik, Kreativität)","0","1","0","null","","","<img src = 'category2/CS8.png' width = '100%;'>","null","","","","","","","","","",""
"","html-keyboard-response","225","700977","0.0-10.0-2.21","vxn9hs7gxn","many_one","0","direct_first","1","kinaen04","0","20","1","1","3","1","Mir ist aufgefallen, dass vermutlich die verschiedenen Hirnhälften angesprochen wurden (Logik, Kreativität)","0","1","0","null","","","<img src = 'targets/46.png' width = '100%;'>","null","","","","","","","","","",""
"","html-keyboard-response","226","702083","0.0-10.0-3.21","vxn9hs7gxn","many_one","0","direct_first","1","kinaen04","0","20","1","1","3","1","Mir ist aufgefallen, dass vermutlich die verschiedenen Hirnhälften angesprochen wurden (Logik, Kreativität)","0","1","0","1103.7900000810623","","","<img src = 'targets/mask.png' width = '100%;'>","75","pos","CS","CS","2","category2/CS8.png","","targets/46.png","indirect","1","21"
"","html-keyboard-response","227","703586","0.0-10.0-0.22","vxn9hs7gxn","many_one","0","direct_first","1","kinaen04","0","20","1","1","3","1","Mir ist aufgefallen, dass vermutlich die verschiedenen Hirnhälften angesprochen wurden (Logik, Kreativität)","0","1","0","null","","","<div style=""font-size:60px;"">+</div>","null","","","","","","","","","",""
"","html-keyboard-response","228","703678","0.0-10.0-1.22","vxn9hs7gxn","many_one","0","direct_first","1","kinaen04","0","20","1","1","3","1","Mir ist aufgefallen, dass vermutlich die verschiedenen Hirnhälften angesprochen wurden (Logik, Kreativität)","0","1","0","null","","","<img src = 'category4/CS4.png' width = '100%;'>","null","","","","","","","","","",""
"","html-keyboard-response","229","703932","0.0-10.0-2.22","vxn9hs7gxn","many_one","0","direct_first","1","kinaen04","0","20","1","1","3","1","Mir ist aufgefallen, dass vermutlich die verschiedenen Hirnhälften angesprochen wurden (Logik, Kreativität)","0","1","0","null","","","<img src = 'targets/13.png' width = '100%;'>","null","","","","","","","","","",""
"","html-keyboard-response","230","704934","0.0-10.0-3.22","vxn9hs7gxn","many_one","0","direct_first","1","kinaen04","0","20","1","1","3","1","Mir ist aufgefallen, dass vermutlich die verschiedenen Hirnhälften angesprochen wurden (Logik, Kreativität)","0","1","0","1000.6299999076873","","","<img src = 'targets/mask.png' width = '100%;'>","68","neg","GS","GSold","4","category4/CS4.png","","targets/13.png","indirect","0","22"
"","html-keyboard-response","231","706437","0.0-10.0-0.23","vxn9hs7gxn","many_one","0","direct_first","1","kinaen04","0","20","1","1","3","1","Mir ist aufgefallen, dass vermutlich die verschiedenen Hirnhälften angesprochen wurden (Logik, Kreativität)","0","1","0","null","","","<div style=""font-size:60px;"">+</div>","null","","","","","","","","","",""
"","html-keyboard-response","232","706529","0.0-10.0-1.23","vxn9hs7gxn","many_one","0","direct_first","1","kinaen04","0","20","1","1","3","1","Mir ist aufgefallen, dass vermutlich die verschiedenen Hirnhälften angesprochen wurden (Logik, Kreativität)","0","1","0","null","","","<img src = 'category3/CS1.png' width = '100%;'>","null","","","","","","","","","",""
"","html-keyboard-response","233","706783","0.0-10.0-2.23","vxn9hs7gxn","many_one","0","direct_first","1","kinaen04","0","20","1","1","3","1","Mir ist aufgefallen, dass vermutlich die verschiedenen Hirnhälften angesprochen wurden (Logik, Kreativität)","0","1","0","null","","","<img src = 'targets/21.png' width = '100%;'>","null","","","","","","","","","",""
