"success","trial_type","trial_index","time_elapsed","internal_node_id","subject","condition","condition_code","measure","measure_code","codeword","gender","age","education","chinese","fach","handedness","comment","hinschauen","ablenkung","gewissenhaft","rt","url","responses","stimulus","key_press","val","type","type_specific","category","cs_selected","target","indirect","task","nr_pres","response"
"true","fullscreen","0","72337","0.0-0.0","0yqabnq5mb","one_one","1","indirect_first","0","er04er24","1","27","1","0","3","1","","0","1","0","","","","","","","","","","","","","","",""
"","external-html","1","103483","0.0-1.0","0yqabnq5mb","one_one","1","indirect_first","0","er04er24","1","27","1","0","3","1","","0","1","0","31058","text/information.html","","","","","","","","","","","","",""
"","external-html","2","117157","0.0-2.0","0yqabnq5mb","one_one","1","indirect_first","0","er04er24","1","27","1","0","3","1","","0","1","0","13595","text/consent.html","","","","","","","","","","","","",""
"","survey-html-form","3","172053","0.0-3.0","0yqabnq5mb","one_one","1","indirect_first","0","er04er24","1","27","1","0","3","1","","0","1","0","54892","","{""codeword_enter"":""er04er24""}","","","","","","","","","","","",""
"","survey-html-form","4","190380","0.0-4.0","0yqabnq5mb","one_one","1","indirect_first","0","er04er24","1","27","1","0","3","1","","0","1","0","18323","","{""age"":""27"",""education"":""1"",""subject"":""3"",""gender"":""1"",""handedness"":""1"",""chinese"":""0""}","","","","","","","","","","","",""
"","survey-html-form","5","198434","0.0-5.0","0yqabnq5mb","one_one","1","indirect_first","0","er04er24","1","27","1","0","3","1","","0","1","0","8052","","{}","","","","","","","","","","","",""
"","html-keyboard-response","6","202441","0.0-6.0-0.0-0.0","0yqabnq5mb","one_one","1","indirect_first","0","er04er24","1","27","1","0","3","1","","0","1","0","null","","","<div class = 'row'><div class = 'column'><img src = 'usneg/9920.bmp' width = '100%;'></div><div class = 'column'><img src = 'category2/CS7.png' width = '70%;'></div></div>","null","neg","CS","CS","2","category2/CS7.png","","","","",""
"","html-keyboard-response","7","204951","0.0-6.0-0.0-0.1","0yqabnq5mb","one_one","1","indirect_first","0","er04er24","1","27","1","0","3","1","","0","1","0","null","","","<div class = 'row'><div class = 'column'><img src = 'usneg/2205.bmp' width = '100%;'></div><div class = 'column'><img src = 'category3/CS4.png' width = '70%;'></div></div>","null","neg","CS","CS","3","category3/CS4.png","","","","",""
"","html-keyboard-response","8","207462","0.0-6.0-0.0-0.2","0yqabnq5mb","one_one","1","indirect_first","0","er04er24","1","27","1","0","3","1","","0","1","0","null","","","<div class = 'row'><div class = 'column'><img src = 'category1/CS7.png' width = '70%;'></div><div class = 'column'><img src = 'uspos/1440.bmp' width = '100%;'></div></div>","null","pos","CS","CS","1","category1/CS7.png","","","","",""
"","html-keyboard-response","9","209973","0.0-6.0-0.0-0.3","0yqabnq5mb","one_one","1","indirect_first","0","er04er24","1","27","1","0","3","1","","0","1","0","null","","","<div class = 'row'><div class = 'column'><img src = 'category2/CS7.png' width = '70%;'></div><div class = 'column'><img src = 'usneg/9920.bmp' width = '100%;'></div></div>","null","neg","CS","CS","2","category2/CS7.png","","","","",""
"","html-keyboard-response","10","212484","0.0-6.0-0.0-0.4","0yqabnq5mb","one_one","1","indirect_first","0","er04er24","1","27","1","0","3","1","","0","1","0","null","","","<div class = 'row'><div class = 'column'><img src = 'category3/CS4.png' width = '70%;'></div><div class = 'column'><img src = 'usneg/2205.bmp' width = '100%;'></div></div>","null","neg","CS","CS","3","category3/CS4.png","","","","",""
"","html-keyboard-response","11","214995","0.0-6.0-0.0-0.5","0yqabnq5mb","one_one","1","indirect_first","0","er04er24","1","27","1","0","3","1","","0","1","0","null","","","<div class = 'row'><div class = 'column'><img src = 'category2/CS7.png' width = '70%;'></div><div class = 'column'><img src = 'usneg/9920.bmp' width = '100%;'></div></div>","null","neg","CS","CS","2","category2/CS7.png","","","","",""
"","html-keyboard-response","12","217505","0.0-6.0-0.0-0.6","0yqabnq5mb","one_one","1","indirect_first","0","er04er24","1","27","1","0","3","1","","0","1","0","null","","","<div class = 'row'><div class = 'column'><img src = 'category4/CS4.png' width = '70%;'></div><div class = 'column'><img src = 'uspos/2040.bmp' width = '100%;'></div></div>","null","pos","CS","CS","4","category4/CS4.png","","","","",""
"","html-keyboard-response","13","220015","0.0-6.0-0.0-0.7","0yqabnq5mb","one_one","1","indirect_first","0","er04er24","1","27","1","0","3","1","","0","1","0","null","","","<div class = 'row'><div class = 'column'><img src = 'usneg/2205.bmp' width = '100%;'></div><div class = 'column'><img src = 'category3/CS4.png' width = '70%;'></div></div>","null","neg","CS","CS","3","category3/CS4.png","","","","",""
"","html-keyboard-response","14","222522","0.0-6.0-0.0-0.8","0yqabnq5mb","one_one","1","indirect_first","0","er04er24","1","27","1","0","3","1","","0","1","0","null","","","<div class = 'row'><div class = 'column'><img src = 'category1/CS7.png' width = '70%;'></div><div class = 'column'><img src = 'uspos/1440.bmp' width = '100%;'></div></div>","null","pos","CS","CS","1","category1/CS7.png","","","","",""
"","html-keyboard-response","15","225032","0.0-6.0-0.0-0.9","0yqabnq5mb","one_one","1","indirect_first","0","er04er24","1","27","1","0","3","1","","0","1","0","null","","","<div class = 'row'><div class = 'column'><img src = 'uspos/2040.bmp' width = '100%;'></div><div class = 'column'><img src = 'category4/CS4.png' width = '70%;'></div></div>","null","pos","CS","CS","4","category4/CS4.png","","","","",""
"","html-keyboard-response","16","227542","0.0-6.0-0.0-0.10","0yqabnq5mb","one_one","1","indirect_first","0","er04er24","1","27","1","0","3","1","","0","1","0","null","","","<div class = 'row'><div class = 'column'><img src = 'category1/CS7.png' width = '70%;'></div><div class = 'column'><img src = 'uspos/1440.bmp' width = '100%;'></div></div>","null","pos","CS","CS","1","category1/CS7.png","","","","",""
"","html-keyboard-response","17","230051","0.0-6.0-0.0-0.11","0yqabnq5mb","one_one","1","indirect_first","0","er04er24","1","27","1","0","3","1","","0","1","0","null","","","<div class = 'row'><div class = 'column'><img src = 'category4/CS4.png' width = '70%;'></div><div class = 'column'><img src = 'uspos/2040.bmp' width = '100%;'></div></div>","null","pos","CS","CS","4","category4/CS4.png","","","","",""
"","html-keyboard-response","18","232561","0.0-6.0-0.0-0.12","0yqabnq5mb","one_one","1","indirect_first","0","er04er24","1","27","1","0","3","1","","0","1","0","null","","","<div class = 'row'><div class = 'column'><img src = 'category1/CS7.png' width = '70%;'></div><div class = 'column'><img src = 'uspos/1440.bmp' width = '100%;'></div></div>","null","pos","CS","CS","1","category1/CS7.png","","","","",""
"","html-keyboard-response","19","235071","0.0-6.0-0.0-0.13","0yqabnq5mb","one_one","1","indirect_first","0","er04er24","1","27","1","0","3","1","","0","1","0","null","","","<div class = 'row'><div class = 'column'><img src = 'usneg/2205.bmp' width = '100%;'></div><div class = 'column'><img src = 'category3/CS4.png' width = '70%;'></div></div>","null","neg","CS","CS","3","category3/CS4.png","","","","",""
"","html-keyboard-response","20","237580","0.0-6.0-0.0-0.14","0yqabnq5mb","one_one","1","indirect_first","0","er04er24","1","27","1","0","3","1","","0","1","0","null","","","<div class = 'row'><div class = 'column'><img src = 'usneg/9920.bmp' width = '100%;'></div><div class = 'column'><img src = 'category2/CS7.png' width = '70%;'></div></div>","null","neg","CS","CS","2","category2/CS7.png","","","","",""
"","html-keyboard-response","21","240088","0.0-6.0-0.0-0.15","0yqabnq5mb","one_one","1","indirect_first","0","er04er24","1","27","1","0","3","1","","0","1","0","null","","","<div class = 'row'><div class = 'column'><img src = 'category3/CS4.png' width = '70%;'></div><div class = 'column'><img src = 'usneg/2205.bmp' width = '100%;'></div></div>","null","neg","CS","CS","3","category3/CS4.png","","","","",""
"","html-keyboard-response","22","242596","0.0-6.0-0.0-0.16","0yqabnq5mb","one_one","1","indirect_first","0","er04er24","1","27","1","0","3","1","","0","1","0","null","","","<div class = 'row'><div class = 'column'><img src = 'usneg/9920.bmp' width = '100%;'></div><div class = 'column'><img src = 'category2/CS7.png' width = '70%;'></div></div>","null","neg","CS","CS","2","category2/CS7.png","","","","",""
"","html-keyboard-response","23","245106","0.0-6.0-0.0-0.17","0yqabnq5mb","one_one","1","indirect_first","0","er04er24","1","27","1","0","3","1","","0","1","0","null","","","<div class = 'row'><div class = 'column'><img src = 'category4/CS4.png' width = '70%;'></div><div class = 'column'><img src = 'uspos/2040.bmp' width = '100%;'></div></div>","null","pos","CS","CS","4","category4/CS4.png","","","","",""
"","html-keyboard-response","24","247616","0.0-6.0-0.0-0.18","0yqabnq5mb","one_one","1","indirect_first","0","er04er24","1","27","1","0","3","1","","0","1","0","null","","","<div class = 'row'><div class = 'column'><img src = 'uspos/1440.bmp' width = '100%;'></div><div class = 'column'><img src = 'category1/CS7.png' width = '70%;'></div></div>","null","pos","CS","CS","1","category1/CS7.png","","","","",""
"","html-keyboard-response","25","250125","0.0-6.0-0.0-0.19","0yqabnq5mb","one_one","1","indirect_first","0","er04er24","1","27","1","0","3","1","","0","1","0","null","","","<div class = 'row'><div class = 'column'><img src = 'category4/CS4.png' width = '70%;'></div><div class = 'column'><img src = 'uspos/2040.bmp' width = '100%;'></div></div>","null","pos","CS","CS","4","category4/CS4.png","","","","",""
"","survey-html-form","26","268139","0.0-6.0-1.0","0yqabnq5mb","one_one","1","indirect_first","0","er04er24","1","27","1","0","3","1","","0","1","0","17508","","{}","","","","","","","","","","","",""
"","html-keyboard-response","27","272147","0.0-6.0-2.0-0.0","0yqabnq5mb","one_one","1","indirect_first","0","er04er24","1","27","1","0","3","1","","0","1","0","null","","","<div class = 'row'><div class = 'column'><img src = 'usneg/9920.bmp' width = '100%;'></div><div class = 'column'><img src = 'category2/CS7.png' width = '70%;'></div></div>","null","neg","CS","CS","2","category2/CS7.png","","","","",""
"","html-keyboard-response","28","274657","0.0-6.0-2.0-0.1","0yqabnq5mb","one_one","1","indirect_first","0","er04er24","1","27","1","0","3","1","","0","1","0","null","","","<div class = 'row'><div class = 'column'><img src = 'category4/CS4.png' width = '70%;'></div><div class = 'column'><img src = 'uspos/2040.bmp' width = '100%;'></div></div>","null","pos","CS","CS","4","category4/CS4.png","","","","",""
"","html-keyboard-response","29","277162","0.0-6.0-2.0-0.2","0yqabnq5mb","one_one","1","indirect_first","0","er04er24","1","27","1","0","3","1","","0","1","0","null","","","<div class = 'row'><div class = 'column'><img src = 'usneg/9920.bmp' width = '100%;'></div><div class = 'column'><img src = 'category2/CS7.png' width = '70%;'></div></div>","null","neg","CS","CS","2","category2/CS7.png","","","","",""
"","html-keyboard-response","30","279670","0.0-6.0-2.0-0.3","0yqabnq5mb","one_one","1","indirect_first","0","er04er24","1","27","1","0","3","1","","0","1","0","null","","","<div class = 'row'><div class = 'column'><img src = 'uspos/2040.bmp' width = '100%;'></div><div class = 'column'><img src = 'category4/CS4.png' width = '70%;'></div></div>","null","pos","CS","CS","4","category4/CS4.png","","","","",""
"","html-keyboard-response","31","282181","0.0-6.0-2.0-0.4","0yqabnq5mb","one_one","1","indirect_first","0","er04er24","1","27","1","0","3","1","","0","1","0","null","","","<div class = 'row'><div class = 'column'><img src = 'category2/CS7.png' width = '70%;'></div><div class = 'column'><img src = 'usneg/9920.bmp' width = '100%;'></div></div>","null","neg","CS","CS","2","category2/CS7.png","","","","",""
"","html-keyboard-response","32","284689","0.0-6.0-2.0-0.5","0yqabnq5mb","one_one","1","indirect_first","0","er04er24","1","27","1","0","3","1","","0","1","0","null","","","<div class = 'row'><div class = 'column'><img src = 'usneg/2205.bmp' width = '100%;'></div><div class = 'column'><img src = 'category3/CS4.png' width = '70%;'></div></div>","null","neg","CS","CS","3","category3/CS4.png","","","","",""
"","html-keyboard-response","33","287199","0.0-6.0-2.0-0.6","0yqabnq5mb","one_one","1","indirect_first","0","er04er24","1","27","1","0","3","1","","0","1","0","null","","","<div class = 'row'><div class = 'column'><img src = 'uspos/1440.bmp' width = '100%;'></div><div class = 'column'><img src = 'category1/CS7.png' width = '70%;'></div></div>","null","pos","CS","CS","1","category1/CS7.png","","","","",""
"","html-keyboard-response","34","289708","0.0-6.0-2.0-0.7","0yqabnq5mb","one_one","1","indirect_first","0","er04er24","1","27","1","0","3","1","","0","1","0","null","","","<div class = 'row'><div class = 'column'><img src = 'uspos/2040.bmp' width = '100%;'></div><div class = 'column'><img src = 'category4/CS4.png' width = '70%;'></div></div>","null","pos","CS","CS","4","category4/CS4.png","","","","",""
"","html-keyboard-response","35","292218","0.0-6.0-2.0-0.8","0yqabnq5mb","one_one","1","indirect_first","0","er04er24","1","27","1","0","3","1","","0","1","0","null","","","<div class = 'row'><div class = 'column'><img src = 'uspos/1440.bmp' width = '100%;'></div><div class = 'column'><img src = 'category1/CS7.png' width = '70%;'></div></div>","null","pos","CS","CS","1","category1/CS7.png","","","","",""
"","html-keyboard-response","36","294726","0.0-6.0-2.0-0.9","0yqabnq5mb","one_one","1","indirect_first","0","er04er24","1","27","1","0","3","1","","0","1","0","null","","","<div class = 'row'><div class = 'column'><img src = 'usneg/2205.bmp' width = '100%;'></div><div class = 'column'><img src = 'category3/CS4.png' width = '70%;'></div></div>","null","neg","CS","CS","3","category3/CS4.png","","","","",""
"","html-keyboard-response","37","297237","0.0-6.0-2.0-0.10","0yqabnq5mb","one_one","1","indirect_first","0","er04er24","1","27","1","0","3","1","","0","1","0","null","","","<div class = 'row'><div class = 'column'><img src = 'category4/CS4.png' width = '70%;'></div><div class = 'column'><img src = 'uspos/2040.bmp' width = '100%;'></div></div>","null","pos","CS","CS","4","category4/CS4.png","","","","",""
"","html-keyboard-response","38","299748","0.0-6.0-2.0-0.11","0yqabnq5mb","one_one","1","indirect_first","0","er04er24","1","27","1","0","3","1","","0","1","0","null","","","<div class = 'row'><div class = 'column'><img src = 'usneg/2205.bmp' width = '100%;'></div><div class = 'column'><img src = 'category3/CS4.png' width = '70%;'></div></div>","null","neg","CS","CS","3","category3/CS4.png","","","","",""
"","html-keyboard-response","39","302258","0.0-6.0-2.0-0.12","0yqabnq5mb","one_one","1","indirect_first","0","er04er24","1","27","1","0","3","1","","0","1","0","null","","","<div class = 'row'><div class = 'column'><img src = 'usneg/9920.bmp' width = '100%;'></div><div class = 'column'><img src = 'category2/CS7.png' width = '70%;'></div></div>","null","neg","CS","CS","2","category2/CS7.png","","","","",""
"","html-keyboard-response","40","304766","0.0-6.0-2.0-0.13","0yqabnq5mb","one_one","1","indirect_first","0","er04er24","1","27","1","0","3","1","","0","1","0","null","","","<div class = 'row'><div class = 'column'><img src = 'category4/CS4.png' width = '70%;'></div><div class = 'column'><img src = 'uspos/2040.bmp' width = '100%;'></div></div>","null","pos","CS","CS","4","category4/CS4.png","","","","",""
"","html-keyboard-response","41","307274","0.0-6.0-2.0-0.14","0yqabnq5mb","one_one","1","indirect_first","0","er04er24","1","27","1","0","3","1","","0","1","0","null","","","<div class = 'row'><div class = 'column'><img src = 'uspos/1440.bmp' width = '100%;'></div><div class = 'column'><img src = 'category1/CS7.png' width = '70%;'></div></div>","null","pos","CS","CS","1","category1/CS7.png","","","","",""
"","html-keyboard-response","42","309785","0.0-6.0-2.0-0.15","0yqabnq5mb","one_one","1","indirect_first","0","er04er24","1","27","1","0","3","1","","0","1","0","null","","","<div class = 'row'><div class = 'column'><img src = 'usneg/2205.bmp' width = '100%;'></div><div class = 'column'><img src = 'category3/CS4.png' width = '70%;'></div></div>","null","neg","CS","CS","3","category3/CS4.png","","","","",""
"","html-keyboard-response","43","312293","0.0-6.0-2.0-0.16","0yqabnq5mb","one_one","1","indirect_first","0","er04er24","1","27","1","0","3","1","","0","1","0","null","","","<div class = 'row'><div class = 'column'><img src = 'category1/CS7.png' width = '70%;'></div><div class = 'column'><img src = 'uspos/1440.bmp' width = '100%;'></div></div>","null","pos","CS","CS","1","category1/CS7.png","","","","",""
"","html-keyboard-response","44","314803","0.0-6.0-2.0-0.17","0yqabnq5mb","one_one","1","indirect_first","0","er04er24","1","27","1","0","3","1","","0","1","0","null","","","<div class = 'row'><div class = 'column'><img src = 'category3/CS4.png' width = '70%;'></div><div class = 'column'><img src = 'usneg/2205.bmp' width = '100%;'></div></div>","null","neg","CS","CS","3","category3/CS4.png","","","","",""
"","html-keyboard-response","45","317313","0.0-6.0-2.0-0.18","0yqabnq5mb","one_one","1","indirect_first","0","er04er24","1","27","1","0","3","1","","0","1","0","null","","","<div class = 'row'><div class = 'column'><img src = 'category1/CS7.png' width = '70%;'></div><div class = 'column'><img src = 'uspos/1440.bmp' width = '100%;'></div></div>","null","pos","CS","CS","1","category1/CS7.png","","","","",""
"","html-keyboard-response","46","319821","0.0-6.0-2.0-0.19","0yqabnq5mb","one_one","1","indirect_first","0","er04er24","1","27","1","0","3","1","","0","1","0","null","","","<div class = 'row'><div class = 'column'><img src = 'usneg/9920.bmp' width = '100%;'></div><div class = 'column'><img src = 'category2/CS7.png' width = '70%;'></div></div>","null","neg","CS","CS","2","category2/CS7.png","","","","",""
"","survey-html-form","47","323000","0.0-6.0-3.0","0yqabnq5mb","one_one","1","indirect_first","0","er04er24","1","27","1","0","3","1","","0","1","0","2673","","{}","","","","","","","","","","","",""
"","html-keyboard-response","48","327003","0.0-6.0-4.0-0.0","0yqabnq5mb","one_one","1","indirect_first","0","er04er24","1","27","1","0","3","1","","0","1","0","null","","","<div class = 'row'><div class = 'column'><img src = 'category4/CS4.png' width = '70%;'></div><div class = 'column'><img src = 'uspos/2040.bmp' width = '100%;'></div></div>","null","pos","CS","CS","4","category4/CS4.png","","","","",""
"","html-keyboard-response","49","329513","0.0-6.0-4.0-0.1","0yqabnq5mb","one_one","1","indirect_first","0","er04er24","1","27","1","0","3","1","","0","1","0","null","","","<div class = 'row'><div class = 'column'><img src = 'usneg/2205.bmp' width = '100%;'></div><div class = 'column'><img src = 'category3/CS4.png' width = '70%;'></div></div>","null","neg","CS","CS","3","category3/CS4.png","","","","",""
"","html-keyboard-response","50","332015","0.0-6.0-4.0-0.2","0yqabnq5mb","one_one","1","indirect_first","0","er04er24","1","27","1","0","3","1","","0","1","0","null","","","<div class = 'row'><div class = 'column'><img src = 'category4/CS4.png' width = '70%;'></div><div class = 'column'><img src = 'uspos/2040.bmp' width = '100%;'></div></div>","null","pos","CS","CS","4","category4/CS4.png","","","","",""
"","html-keyboard-response","51","334524","0.0-6.0-4.0-0.3","0yqabnq5mb","one_one","1","indirect_first","0","er04er24","1","27","1","0","3","1","","0","1","0","null","","","<div class = 'row'><div class = 'column'><img src = 'usneg/2205.bmp' width = '100%;'></div><div class = 'column'><img src = 'category3/CS4.png' width = '70%;'></div></div>","null","neg","CS","CS","3","category3/CS4.png","","","","",""
"","html-keyboard-response","52","337035","0.0-6.0-4.0-0.4","0yqabnq5mb","one_one","1","indirect_first","0","er04er24","1","27","1","0","3","1","","0","1","0","null","","","<div class = 'row'><div class = 'column'><img src = 'uspos/1440.bmp' width = '100%;'></div><div class = 'column'><img src = 'category1/CS7.png' width = '70%;'></div></div>","null","pos","CS","CS","1","category1/CS7.png","","","","",""
"","html-keyboard-response","53","339545","0.0-6.0-4.0-0.5","0yqabnq5mb","one_one","1","indirect_first","0","er04er24","1","27","1","0","3","1","","0","1","0","null","","","<div class = 'row'><div class = 'column'><img src = 'usneg/9920.bmp' width = '100%;'></div><div class = 'column'><img src = 'category2/CS7.png' width = '70%;'></div></div>","null","neg","CS","CS","2","category2/CS7.png","","","","",""
"","html-keyboard-response","54","342055","0.0-6.0-4.0-0.6","0yqabnq5mb","one_one","1","indirect_first","0","er04er24","1","27","1","0","3","1","","0","1","0","null","","","<div class = 'row'><div class = 'column'><img src = 'category1/CS7.png' width = '70%;'></div><div class = 'column'><img src = 'uspos/1440.bmp' width = '100%;'></div></div>","null","pos","CS","CS","1","category1/CS7.png","","","","",""
"","html-keyboard-response","55","344564","0.0-6.0-4.0-0.7","0yqabnq5mb","one_one","1","indirect_first","0","er04er24","1","27","1","0","3","1","","0","1","0","null","","","<div class = 'row'><div class = 'column'><img src = 'category2/CS7.png' width = '70%;'></div><div class = 'column'><img src = 'usneg/9920.bmp' width = '100%;'></div></div>","null","neg","CS","CS","2","category2/CS7.png","","","","",""
"","html-keyboard-response","56","347073","0.0-6.0-4.0-0.8","0yqabnq5mb","one_one","1","indirect_first","0","er04er24","1","27","1","0","3","1","","0","1","0","null","","","<div class = 'row'><div class = 'column'><img src = 'category3/CS4.png' width = '70%;'></div><div class = 'column'><img src = 'usneg/2205.bmp' width = '100%;'></div></div>","null","neg","CS","CS","3","category3/CS4.png","","","","",""
"","html-keyboard-response","57","349583","0.0-6.0-4.0-0.9","0yqabnq5mb","one_one","1","indirect_first","0","er04er24","1","27","1","0","3","1","","0","1","0","null","","","<div class = 'row'><div class = 'column'><img src = 'uspos/1440.bmp' width = '100%;'></div><div class = 'column'><img src = 'category1/CS7.png' width = '70%;'></div></div>","null","pos","CS","CS","1","category1/CS7.png","","","","",""
"","html-keyboard-response","58","352093","0.0-6.0-4.0-0.10","0yqabnq5mb","one_one","1","indirect_first","0","er04er24","1","27","1","0","3","1","","0","1","0","null","","","<div class = 'row'><div class = 'column'><img src = 'usneg/2205.bmp' width = '100%;'></div><div class = 'column'><img src = 'category3/CS4.png' width = '70%;'></div></div>","null","neg","CS","CS","3","category3/CS4.png","","","","",""
"","html-keyboard-response","59","354601","0.0-6.0-4.0-0.11","0yqabnq5mb","one_one","1","indirect_first","0","er04er24","1","27","1","0","3","1","","0","1","0","null","","","<div class = 'row'><div class = 'column'><img src = 'category2/CS7.png' width = '70%;'></div><div class = 'column'><img src = 'usneg/9920.bmp' width = '100%;'></div></div>","null","neg","CS","CS","2","category2/CS7.png","","","","",""
"","html-keyboard-response","60","357109","0.0-6.0-4.0-0.12","0yqabnq5mb","one_one","1","indirect_first","0","er04er24","1","27","1","0","3","1","","0","1","0","null","","","<div class = 'row'><div class = 'column'><img src = 'category4/CS4.png' width = '70%;'></div><div class = 'column'><img src = 'uspos/2040.bmp' width = '100%;'></div></div>","null","pos","CS","CS","4","category4/CS4.png","","","","",""
"","html-keyboard-response","61","359619","0.0-6.0-4.0-0.13","0yqabnq5mb","one_one","1","indirect_first","0","er04er24","1","27","1","0","3","1","","0","1","0","null","","","<div class = 'row'><div class = 'column'><img src = 'uspos/1440.bmp' width = '100%;'></div><div class = 'column'><img src = 'category1/CS7.png' width = '70%;'></div></div>","null","pos","CS","CS","1","category1/CS7.png","","","","",""
"","html-keyboard-response","62","362129","0.0-6.0-4.0-0.14","0yqabnq5mb","one_one","1","indirect_first","0","er04er24","1","27","1","0","3","1","","0","1","0","null","","","<div class = 'row'><div class = 'column'><img src = 'usneg/2205.bmp' width = '100%;'></div><div class = 'column'><img src = 'category3/CS4.png' width = '70%;'></div></div>","null","neg","CS","CS","3","category3/CS4.png","","","","",""
"","html-keyboard-response","63","364637","0.0-6.0-4.0-0.15","0yqabnq5mb","one_one","1","indirect_first","0","er04er24","1","27","1","0","3","1","","0","1","0","null","","","<div class = 'row'><div class = 'column'><img src = 'usneg/9920.bmp' width = '100%;'></div><div class = 'column'><img src = 'category2/CS7.png' width = '70%;'></div></div>","null","neg","CS","CS","2","category2/CS7.png","","","","",""
"","html-keyboard-response","64","367146","0.0-6.0-4.0-0.16","0yqabnq5mb","one_one","1","indirect_first","0","er04er24","1","27","1","0","3","1","","0","1","0","null","","","<div class = 'row'><div class = 'column'><img src = 'category1/CS7.png' width = '70%;'></div><div class = 'column'><img src = 'uspos/1440.bmp' width = '100%;'></div></div>","null","pos","CS","CS","1","category1/CS7.png","","","","",""
"","html-keyboard-response","65","369656","0.0-6.0-4.0-0.17","0yqabnq5mb","one_one","1","indirect_first","0","er04er24","1","27","1","0","3","1","","0","1","0","null","","","<div class = 'row'><div class = 'column'><img src = 'uspos/2040.bmp' width = '100%;'></div><div class = 'column'><img src = 'category4/CS4.png' width = '70%;'></div></div>","null","pos","CS","CS","4","category4/CS4.png","","","","",""
"","html-keyboard-response","66","372166","0.0-6.0-4.0-0.18","0yqabnq5mb","one_one","1","indirect_first","0","er04er24","1","27","1","0","3","1","","0","1","0","null","","","<div class = 'row'><div class = 'column'><img src = 'usneg/9920.bmp' width = '100%;'></div><div class = 'column'><img src = 'category2/CS7.png' width = '70%;'></div></div>","null","neg","CS","CS","2","category2/CS7.png","","","","",""
"","html-keyboard-response","67","374676","0.0-6.0-4.0-0.19","0yqabnq5mb","one_one","1","indirect_first","0","er04er24","1","27","1","0","3","1","","0","1","0","null","","","<div class = 'row'><div class = 'column'><img src = 'uspos/2040.bmp' width = '100%;'></div><div class = 'column'><img src = 'category4/CS4.png' width = '70%;'></div></div>","null","pos","CS","CS","4","category4/CS4.png","","","","",""
"","survey-html-form","68","377455","0.0-6.0-5.0","0yqabnq5mb","one_one","1","indirect_first","0","er04er24","1","27","1","0","3","1","","0","1","0","2275","","{}","","","","","","","","","","","",""
"","html-keyboard-response","69","381463","0.0-6.0-6.0-0.0","0yqabnq5mb","one_one","1","indirect_first","0","er04er24","1","27","1","0","3","1","","0","1","0","null","","","<div class = 'row'><div class = 'column'><img src = 'category1/CS7.png' width = '70%;'></div><div class = 'column'><img src = 'uspos/1440.bmp' width = '100%;'></div></div>","null","pos","CS","CS","1","category1/CS7.png","","","","",""
"","html-keyboard-response","70","383972","0.0-6.0-6.0-0.1","0yqabnq5mb","one_one","1","indirect_first","0","er04er24","1","27","1","0","3","1","","0","1","0","null","","","<div class = 'row'><div class = 'column'><img src = 'usneg/2205.bmp' width = '100%;'></div><div class = 'column'><img src = 'category3/CS4.png' width = '70%;'></div></div>","null","neg","CS","CS","3","category3/CS4.png","","","","",""
"","html-keyboard-response","71","386475","0.0-6.0-6.0-0.2","0yqabnq5mb","one_one","1","indirect_first","0","er04er24","1","27","1","0","3","1","","0","1","0","null","","","<div class = 'row'><div class = 'column'><img src = 'category4/CS4.png' width = '70%;'></div><div class = 'column'><img src = 'uspos/2040.bmp' width = '100%;'></div></div>","null","pos","CS","CS","4","category4/CS4.png","","","","",""
"","html-keyboard-response","72","388984","0.0-6.0-6.0-0.3","0yqabnq5mb","one_one","1","indirect_first","0","er04er24","1","27","1","0","3","1","","0","1","0","null","","","<div class = 'row'><div class = 'column'><img src = 'category3/CS4.png' width = '70%;'></div><div class = 'column'><img src = 'usneg/2205.bmp' width = '100%;'></div></div>","null","neg","CS","CS","3","category3/CS4.png","","","","",""
"","html-keyboard-response","73","391493","0.0-6.0-6.0-0.4","0yqabnq5mb","one_one","1","indirect_first","0","er04er24","1","27","1","0","3","1","","0","1","0","null","","","<div class = 'row'><div class = 'column'><img src = 'category4/CS4.png' width = '70%;'></div><div class = 'column'><img src = 'uspos/2040.bmp' width = '100%;'></div></div>","null","pos","CS","CS","4","category4/CS4.png","","","","",""
"","html-keyboard-response","74","394003","0.0-6.0-6.0-0.5","0yqabnq5mb","one_one","1","indirect_first","0","er04er24","1","27","1","0","3","1","","0","1","0","null","","","<div class = 'row'><div class = 'column'><img src = 'category1/CS7.png' width = '70%;'></div><div class = 'column'><img src = 'uspos/1440.bmp' width = '100%;'></div></div>","null","pos","CS","CS","1","category1/CS7.png","","","","",""
"","html-keyboard-response","75","396508","0.0-6.0-6.0-0.6","0yqabnq5mb","one_one","1","indirect_first","0","er04er24","1","27","1","0","3","1","","0","1","0","null","","","<div class = 'row'><div class = 'column'><img src = 'category2/CS7.png' width = '70%;'></div><div class = 'column'><img src = 'usneg/9920.bmp' width = '100%;'></div></div>","null","neg","CS","CS","2","category2/CS7.png","","","","",""
"","html-keyboard-response","76","399018","0.0-6.0-6.0-0.7","0yqabnq5mb","one_one","1","indirect_first","0","er04er24","1","27","1","0","3","1","","0","1","0","null","","","<div class = 'row'><div class = 'column'><img src = 'usneg/2205.bmp' width = '100%;'></div><div class = 'column'><img src = 'category3/CS4.png' width = '70%;'></div></div>","null","neg","CS","CS","3","category3/CS4.png","","","","",""
"","html-keyboard-response","77","401527","0.0-6.0-6.0-0.8","0yqabnq5mb","one_one","1","indirect_first","0","er04er24","1","27","1","0","3","1","","0","1","0","null","","","<div class = 'row'><div class = 'column'><img src = 'category4/CS4.png' width = '70%;'></div><div class = 'column'><img src = 'uspos/2040.bmp' width = '100%;'></div></div>","null","pos","CS","CS","4","category4/CS4.png","","","","",""
"","html-keyboard-response","78","404035","0.0-6.0-6.0-0.9","0yqabnq5mb","one_one","1","indirect_first","0","er04er24","1","27","1","0","3","1","","0","1","0","null","","","<div class = 'row'><div class = 'column'><img src = 'category2/CS7.png' width = '70%;'></div><div class = 'column'><img src = 'usneg/9920.bmp' width = '100%;'></div></div>","null","neg","CS","CS","2","category2/CS7.png","","","","",""
"","html-keyboard-response","79","406541","0.0-6.0-6.0-0.10","0yqabnq5mb","one_one","1","indirect_first","0","er04er24","1","27","1","0","3","1","","0","1","0","null","","","<div class = 'row'><div class = 'column'><img src = 'category1/CS7.png' width = '70%;'></div><div class = 'column'><img src = 'uspos/1440.bmp' width = '100%;'></div></div>","null","pos","CS","CS","1","category1/CS7.png","","","","",""
"","html-keyboard-response","80","409050","0.0-6.0-6.0-0.11","0yqabnq5mb","one_one","1","indirect_first","0","er04er24","1","27","1","0","3","1","","0","1","0","null","","","<div class = 'row'><div class = 'column'><img src = 'category3/CS4.png' width = '70%;'></div><div class = 'column'><img src = 'usneg/2205.bmp' width = '100%;'></div></div>","null","neg","CS","CS","3","category3/CS4.png","","","","",""
"","html-keyboard-response","81","411557","0.0-6.0-6.0-0.12","0yqabnq5mb","one_one","1","indirect_first","0","er04er24","1","27","1","0","3","1","","0","1","0","null","","","<div class = 'row'><div class = 'column'><img src = 'category1/CS7.png' width = '70%;'></div><div class = 'column'><img src = 'uspos/1440.bmp' width = '100%;'></div></div>","null","pos","CS","CS","1","category1/CS7.png","","","","",""
"","html-keyboard-response","82","414067","0.0-6.0-6.0-0.13","0yqabnq5mb","one_one","1","indirect_first","0","er04er24","1","27","1","0","3","1","","0","1","0","null","","","<div class = 'row'><div class = 'column'><img src = 'category2/CS7.png' width = '70%;'></div><div class = 'column'><img src = 'usneg/9920.bmp' width = '100%;'></div></div>","null","neg","CS","CS","2","category2/CS7.png","","","","",""
"","html-keyboard-response","83","416576","0.0-6.0-6.0-0.14","0yqabnq5mb","one_one","1","indirect_first","0","er04er24","1","27","1","0","3","1","","0","1","0","null","","","<div class = 'row'><div class = 'column'><img src = 'category3/CS4.png' width = '70%;'></div><div class = 'column'><img src = 'usneg/2205.bmp' width = '100%;'></div></div>","null","neg","CS","CS","3","category3/CS4.png","","","","",""
"","html-keyboard-response","84","419080","0.0-6.0-6.0-0.15","0yqabnq5mb","one_one","1","indirect_first","0","er04er24","1","27","1","0","3","1","","0","1","0","null","","","<div class = 'row'><div class = 'column'><img src = 'category4/CS4.png' width = '70%;'></div><div class = 'column'><img src = 'uspos/2040.bmp' width = '100%;'></div></div>","null","pos","CS","CS","4","category4/CS4.png","","","","",""
"","html-keyboard-response","85","421587","0.0-6.0-6.0-0.16","0yqabnq5mb","one_one","1","indirect_first","0","er04er24","1","27","1","0","3","1","","0","1","0","null","","","<div class = 'row'><div class = 'column'><img src = 'category1/CS7.png' width = '70%;'></div><div class = 'column'><img src = 'uspos/1440.bmp' width = '100%;'></div></div>","null","pos","CS","CS","1","category1/CS7.png","","","","",""
"","html-keyboard-response","86","424094","0.0-6.0-6.0-0.17","0yqabnq5mb","one_one","1","indirect_first","0","er04er24","1","27","1","0","3","1","","0","1","0","null","","","<div class = 'row'><div class = 'column'><img src = 'category2/CS7.png' width = '70%;'></div><div class = 'column'><img src = 'usneg/9920.bmp' width = '100%;'></div></div>","null","neg","CS","CS","2","category2/CS7.png","","","","",""
"","html-keyboard-response","87","426602","0.0-6.0-6.0-0.18","0yqabnq5mb","one_one","1","indirect_first","0","er04er24","1","27","1","0","3","1","","0","1","0","null","","","<div class = 'row'><div class = 'column'><img src = 'uspos/2040.bmp' width = '100%;'></div><div class = 'column'><img src = 'category4/CS4.png' width = '70%;'></div></div>","null","pos","CS","CS","4","category4/CS4.png","","","","",""
"","html-keyboard-response","88","429112","0.0-6.0-6.0-0.19","0yqabnq5mb","one_one","1","indirect_first","0","er04er24","1","27","1","0","3","1","","0","1","0","null","","","<div class = 'row'><div class = 'column'><img src = 'usneg/9920.bmp' width = '100%;'></div><div class = 'column'><img src = 'category2/CS7.png' width = '70%;'></div></div>","null","neg","CS","CS","2","category2/CS7.png","","","","",""
"","html-keyboard-response","89","470023","0.0-7.0","0yqabnq5mb","one_one","1","indirect_first","0","er04er24","1","27","1","0","3","1","","0","1","0","40404","","","<p>Sie sehen nun die chinesischen Zeichen nur ganz kurz. Danach sehen Sie die jeweilige Aussprache der Zeichen als Silbe auf dem Bildschrim. Ihre Aufgabe ist es, für jede Silbe anzugeben, ob diese etwas angenehmes, oder unangenehmes bedeuten könnte. Verlassen Sie sich hier vor allem auf Ihre Intuition.<br><br>Die Zeichen werden nur zur Orientierung dargestellt, beachten Sie sie deshalb nicht. Konzentrieren Sie sich vor allem auf die Silben. <br>Reagieren Sie mit folgenden zwei Tasten: <br><br><b>'D' </b> wenn die Silbe etwas <b>unangenehmes</b> bedeuten könnte. <br><b>'K'</b> wenn die Silbe etwas <b>angenehmes</b> bedeuten könnte. <br><br>Bitte legen Sie nun den Zeigefinger der linken Hand auf die Taste 'D' und den Zeigefinger der rechten Hand auf die Taste 'K'. <br>Reagieren Sie auf jede Silbe so schnell wie möglich. Uns interessiert Ihre spontane Reaktion. <br> <br> <br>Drücken Sie 'D' oder 'K', um die nächste Aufgabe zu starten. </p>","68","","","","","","","","","",""
"","html-keyboard-response","90","473032","0.0-8.0-0.0","0yqabnq5mb","one_one","1","indirect_first","0","er04er24","1","27","1","0","3","1","","0","1","0","null","","","<div style=""font-size:60px;"">+</div>","null","","","","","","","","","",""
"","html-keyboard-response","91","473125","0.0-8.0-1.0","0yqabnq5mb","one_one","1","indirect_first","0","er04er24","1","27","1","0","3","1","","0","1","0","null","","","<img src = 'category3/CS5.png' width = '100%;'>","null","","","","","","","","","",""
"","html-keyboard-response","92","473383","0.0-8.0-2.0","0yqabnq5mb","one_one","1","indirect_first","0","er04er24","1","27","1","0","3","1","","0","1","0","null","","","<img src = 'targets/7.png' width = '100%;'>","null","","","","","","","","","",""
"","html-keyboard-response","93","479430","0.0-8.0-3.0","0yqabnq5mb","one_one","1","indirect_first","0","er04er24","1","27","1","0","3","1","","0","1","0","6046","","","<img src = 'targets/mask.png' width = '100%;'>","75","neg","GS","GSold","3","category3/CS5.png","targets/7.png","1","indirect","0",""
"","html-keyboard-response","94","480939","0.0-8.0-0.1","0yqabnq5mb","one_one","1","indirect_first","0","er04er24","1","27","1","0","3","1","","0","1","0","null","","","<div style=""font-size:60px;"">+</div>","null","","","","","","","","","",""
"","html-keyboard-response","95","481034","0.0-8.0-1.1","0yqabnq5mb","one_one","1","indirect_first","0","er04er24","1","27","1","0","3","1","","0","1","0","null","","","<img src = 'category1/CS2.png' width = '100%;'>","null","","","","","","","","","",""
"","html-keyboard-response","96","481292","0.0-8.0-2.1","0yqabnq5mb","one_one","1","indirect_first","0","er04er24","1","27","1","0","3","1","","0","1","0","null","","","<img src = 'targets/35.png' width = '100%;'>","null","","","","","","","","","",""
"","html-keyboard-response","97","485915","0.0-8.0-3.1","0yqabnq5mb","one_one","1","indirect_first","0","er04er24","1","27","1","0","3","1","","0","1","0","4623","","","<img src = 'targets/mask.png' width = '100%;'>","68","pos","GS","GSold","1","category1/CS2.png","targets/35.png","0","indirect","1",""
"","html-keyboard-response","98","487423","0.0-8.0-0.2","0yqabnq5mb","one_one","1","indirect_first","0","er04er24","1","27","1","0","3","1","","0","1","0","null","","","<div style=""font-size:60px;"">+</div>","null","","","","","","","","","",""
"","html-keyboard-response","99","487518","0.0-8.0-1.2","0yqabnq5mb","one_one","1","indirect_first","0","er04er24","1","27","1","0","3","1","","0","1","0","null","","","<img src = 'category1/CS10.png' width = '100%;'>","null","","","","","","","","","",""
"","html-keyboard-response","100","487778","0.0-8.0-2.2","0yqabnq5mb","one_one","1","indirect_first","0","er04er24","1","27","1","0","3","1","","0","1","0","null","","","<img src = 'targets/13.png' width = '100%;'>","null","","","","","","","","","",""
"","html-keyboard-response","101","491662","0.0-8.0-3.2","0yqabnq5mb","one_one","1","indirect_first","0","er04er24","1","27","1","0","3","1","","0","1","0","3886","","","<img src = 'targets/mask.png' width = '100%;'>","75","pos","GS","GSold","1","category1/CS10.png","targets/13.png","1","indirect","2",""
"","html-keyboard-response","102","493172","0.0-8.0-0.3","0yqabnq5mb","one_one","1","indirect_first","0","er04er24","1","27","1","0","3","1","","0","1","0","null","","","<div style=""font-size:60px;"">+</div>","null","","","","","","","","","",""
"","html-keyboard-response","103","493267","0.0-8.0-1.3","0yqabnq5mb","one_one","1","indirect_first","0","er04er24","1","27","1","0","3","1","","0","1","0","null","","","<img src = 'category2/CS1.png' width = '100%;'>","null","","","","","","","","","",""
"","html-keyboard-response","104","493526","0.0-8.0-2.3","0yqabnq5mb","one_one","1","indirect_first","0","er04er24","1","27","1","0","3","1","","0","1","0","null","","","<img src = 'targets/45.png' width = '100%;'>","null","","","","","","","","","",""
"","html-keyboard-response","105","495336","0.0-8.0-3.3","0yqabnq5mb","one_one","1","indirect_first","0","er04er24","1","27","1","0","3","1","","0","1","0","1808","","","<img src = 'targets/mask.png' width = '100%;'>","68","neg","GS","GSold","2","category2/CS1.png","targets/45.png","0","indirect","3",""
"","html-keyboard-response","106","496845","0.0-8.0-0.4","0yqabnq5mb","one_one","1","indirect_first","0","er04er24","1","27","1","0","3","1","","0","1","0","null","","","<div style=""font-size:60px;"">+</div>","null","","","","","","","","","",""
"","html-keyboard-response","107","496940","0.0-8.0-1.4","0yqabnq5mb","one_one","1","indirect_first","0","er04er24","1","27","1","0","3","1","","0","1","0","null","","","<img src = 'category4/CS1.png' width = '100%;'>","null","","","","","","","","","",""
"","html-keyboard-response","108","497198","0.0-8.0-2.4","0yqabnq5mb","one_one","1","indirect_first","0","er04er24","1","27","1","0","3","1","","0","1","0","null","","","<img src = 'targets/40.png' width = '100%;'>","null","","","","","","","","","",""
"","html-keyboard-response","109","499409","0.0-8.0-3.4","0yqabnq5mb","one_one","1","indirect_first","0","er04er24","1","27","1","0","3","1","","0","1","0","2210","","","<img src = 'targets/mask.png' width = '100%;'>","68","pos","GS","GSold","4","category4/CS1.png","targets/40.png","0","indirect","4",""
"","html-keyboard-response","110","500920","0.0-8.0-0.5","0yqabnq5mb","one_one","1","indirect_first","0","er04er24","1","27","1","0","3","1","","0","1","0","null","","","<div style=""font-size:60px;"">+</div>","null","","","","","","","","","",""
"","html-keyboard-response","111","501015","0.0-8.0-1.5","0yqabnq5mb","one_one","1","indirect_first","0","er04er24","1","27","1","0","3","1","","0","1","0","null","","","<img src = 'category4/CS2.png' width = '100%;'>","null","","","","","","","","","",""
"","html-keyboard-response","112","501274","0.0-8.0-2.5","0yqabnq5mb","one_one","1","indirect_first","0","er04er24","1","27","1","0","3","1","","0","1","0","null","","","<img src = 'targets/30.png' width = '100%;'>","null","","","","","","","","","",""
"","html-keyboard-response","113","502514","0.0-8.0-3.5","0yqabnq5mb","one_one","1","indirect_first","0","er04er24","1","27","1","0","3","1","","0","1","0","1239","","","<img src = 'targets/mask.png' width = '100%;'>","68","pos","GS","GSold","4","category4/CS2.png","targets/30.png","0","indirect","5",""
"","html-keyboard-response","114","504023","0.0-8.0-0.6","0yqabnq5mb","one_one","1","indirect_first","0","er04er24","1","27","1","0","3","1","","0","1","0","null","","","<div style=""font-size:60px;"">+</div>","null","","","","","","","","","",""
"","html-keyboard-response","115","504116","0.0-8.0-1.6","0yqabnq5mb","one_one","1","indirect_first","0","er04er24","1","27","1","0","3","1","","0","1","0","null","","","<img src = 'category3/CS1.png' width = '100%;'>","null","","","","","","","","","",""
"","html-keyboard-response","116","504373","0.0-8.0-2.6","0yqabnq5mb","one_one","1","indirect_first","0","er04er24","1","27","1","0","3","1","","0","1","0","null","","","<img src = 'targets/44.png' width = '100%;'>","null","","","","","","","","","",""
"","html-keyboard-response","117","505321","0.0-8.0-3.6","0yqabnq5mb","one_one","1","indirect_first","0","er04er24","1","27","1","0","3","1","","0","1","0","948","","","<img src = 'targets/mask.png' width = '100%;'>","68","neg","GS","GSold","3","category3/CS1.png","targets/44.png","0","indirect","6",""
"","html-keyboard-response","118","506829","0.0-8.0-0.7","0yqabnq5mb","one_one","1","indirect_first","0","er04er24","1","27","1","0","3","1","","0","1","0","null","","","<div style=""font-size:60px;"">+</div>","null","","","","","","","","","",""
"","html-keyboard-response","119","506924","0.0-8.0-1.7","0yqabnq5mb","one_one","1","indirect_first","0","er04er24","1","27","1","0","3","1","","0","1","0","null","","","<img src = 'category1/CS4.png' width = '100%;'>","null","","","","","","","","","",""
"","html-keyboard-response","120","507180","0.0-8.0-2.7","0yqabnq5mb","one_one","1","indirect_first","0","er04er24","1","27","1","0","3","1","","0","1","0","null","","","<img src = 'targets/3.png' width = '100%;'>","null","","","","","","","","","",""
"","html-keyboard-response","121","508265","0.0-8.0-3.7","0yqabnq5mb","one_one","1","indirect_first","0","er04er24","1","27","1","0","3","1","","0","1","0","1084","","","<img src = 'targets/mask.png' width = '100%;'>","68","pos","GS","GSold","1","category1/CS4.png","targets/3.png","0","indirect","7",""
"","html-keyboard-response","122","509773","0.0-8.0-0.8","0yqabnq5mb","one_one","1","indirect_first","0","er04er24","1","27","1","0","3","1","","0","1","0","null","","","<div style=""font-size:60px;"">+</div>","null","","","","","","","","","",""
"","html-keyboard-response","123","509868","0.0-8.0-1.8","0yqabnq5mb","one_one","1","indirect_first","0","er04er24","1","27","1","0","3","1","","0","1","0","null","","","<img src = 'category3/CS4.png' width = '100%;'>","null","","","","","","","","","",""
"","html-keyboard-response","124","510127","0.0-8.0-2.8","0yqabnq5mb","one_one","1","indirect_first","0","er04er24","1","27","1","0","3","1","","0","1","0","null","","","<img src = 'targets/18.png' width = '100%;'>","null","","","","","","","","","",""
"","html-keyboard-response","125","511534","0.0-8.0-3.8","0yqabnq5mb","one_one","1","indirect_first","0","er04er24","1","27","1","0","3","1","","0","1","0","1406","","","<img src = 'targets/mask.png' width = '100%;'>","68","neg","CS","CS","3","category3/CS4.png","targets/18.png","0","indirect","8",""
"","html-keyboard-response","126","513043","0.0-8.0-0.9","0yqabnq5mb","one_one","1","indirect_first","0","er04er24","1","27","1","0","3","1","","0","1","0","null","","","<div style=""font-size:60px;"">+</div>","null","","","","","","","","","",""
"","html-keyboard-response","127","513136","0.0-8.0-1.9","0yqabnq5mb","one_one","1","indirect_first","0","er04er24","1","27","1","0","3","1","","0","1","0","null","","","<img src = 'category2/CS5.png' width = '100%;'>","null","","","","","","","","","",""
"","html-keyboard-response","128","513392","0.0-8.0-2.9","0yqabnq5mb","one_one","1","indirect_first","0","er04er24","1","27","1","0","3","1","","0","1","0","null","","","<img src = 'targets/33.png' width = '100%;'>","null","","","","","","","","","",""
"","html-keyboard-response","129","513718","0.0-8.0-3.9","0yqabnq5mb","one_one","1","indirect_first","0","er04er24","1","27","1","0","3","1","","0","1","0","325","","","<img src = 'targets/mask.png' width = '100%;'>","75","neg","GS","GSold","2","category2/CS5.png","targets/33.png","1","indirect","9",""
"","html-keyboard-response","130","515229","0.0-8.0-0.10","0yqabnq5mb","one_one","1","indirect_first","0","er04er24","1","27","1","0","3","1","","0","1","0","null","","","<div style=""font-size:60px;"">+</div>","null","","","","","","","","","",""
"","html-keyboard-response","131","515323","0.0-8.0-1.10","0yqabnq5mb","one_one","1","indirect_first","0","er04er24","1","27","1","0","3","1","","0","1","0","null","","","<img src = 'category4/CS9.png' width = '100%;'>","null","","","","","","","","","",""
"","html-keyboard-response","132","515582","0.0-8.0-2.10","0yqabnq5mb","one_one","1","indirect_first","0","er04er24","1","27","1","0","3","1","","0","1","0","null","","","<img src = 'targets/28.png' width = '100%;'>","null","","","","","","","","","",""
"","html-keyboard-response","133","516702","0.0-8.0-3.10","0yqabnq5mb","one_one","1","indirect_first","0","er04er24","1","27","1","0","3","1","","0","1","0","1120","","","<img src = 'targets/mask.png' width = '100%;'>","75","pos","GS","GSold","4","category4/CS9.png","targets/28.png","1","indirect","10",""
"","html-keyboard-response","134","518213","0.0-8.0-0.11","0yqabnq5mb","one_one","1","indirect_first","0","er04er24","1","27","1","0","3","1","","0","1","0","null","","","<div style=""font-size:60px;"">+</div>","null","","","","","","","","","",""
"","html-keyboard-response","135","518305","0.0-8.0-1.11","0yqabnq5mb","one_one","1","indirect_first","0","er04er24","1","27","1","0","3","1","","0","1","0","null","","","<img src = 'category3/CS8.png' width = '100%;'>","null","","","","","","","","","",""
"","html-keyboard-response","136","518565","0.0-8.0-2.11","0yqabnq5mb","one_one","1","indirect_first","0","er04er24","1","27","1","0","3","1","","0","1","0","null","","","<img src = 'targets/47.png' width = '100%;'>","null","","","","","","","","","",""
"","html-keyboard-response","137","519318","0.0-8.0-3.11","0yqabnq5mb","one_one","1","indirect_first","0","er04er24","1","27","1","0","3","1","","0","1","0","754","","","<img src = 'targets/mask.png' width = '100%;'>","68","neg","GS","GSold","3","category3/CS8.png","targets/47.png","0","indirect","11",""
"","html-keyboard-response","138","520829","0.0-8.0-0.12","0yqabnq5mb","one_one","1","indirect_first","0","er04er24","1","27","1","0","3","1","","0","1","0","null","","","<div style=""font-size:60px;"">+</div>","null","","","","","","","","","",""
"","html-keyboard-response","139","520924","0.0-8.0-1.12","0yqabnq5mb","one_one","1","indirect_first","0","er04er24","1","27","1","0","3","1","","0","1","0","null","","","<img src = 'category1/CS7.png' width = '100%;'>","null","","","","","","","","","",""
"","html-keyboard-response","140","521182","0.0-8.0-2.12","0yqabnq5mb","one_one","1","indirect_first","0","er04er24","1","27","1","0","3","1","","0","1","0","null","","","<img src = 'targets/12.png' width = '100%;'>","null","","","","","","","","","",""
"","html-keyboard-response","141","522214","0.0-8.0-3.12","0yqabnq5mb","one_one","1","indirect_first","0","er04er24","1","27","1","0","3","1","","0","1","0","1032","","","<img src = 'targets/mask.png' width = '100%;'>","75","pos","CS","CS","1","category1/CS7.png","targets/12.png","1","indirect","12",""
"","html-keyboard-response","142","523723","0.0-8.0-0.13","0yqabnq5mb","one_one","1","indirect_first","0","er04er24","1","27","1","0","3","1","","0","1","0","null","","","<div style=""font-size:60px;"">+</div>","null","","","","","","","","","",""
"","html-keyboard-response","143","523818","0.0-8.0-1.13","0yqabnq5mb","one_one","1","indirect_first","0","er04er24","1","27","1","0","3","1","","0","1","0","null","","","<img src = 'category2/CS7.png' width = '100%;'>","null","","","","","","","","","",""
"","html-keyboard-response","144","524076","0.0-8.0-2.13","0yqabnq5mb","one_one","1","indirect_first","0","er04er24","1","27","1","0","3","1","","0","1","0","null","","","<img src = 'targets/23.png' width = '100%;'>","null","","","","","","","","","",""
"","html-keyboard-response","145","525215","0.0-8.0-3.13","0yqabnq5mb","one_one","1","indirect_first","0","er04er24","1","27","1","0","3","1","","0","1","0","1139","","","<img src = 'targets/mask.png' width = '100%;'>","75","neg","CS","CS","2","category2/CS7.png","targets/23.png","1","indirect","13",""
"","html-keyboard-response","146","526724","0.0-8.0-0.14","0yqabnq5mb","one_one","1","indirect_first","0","er04er24","1","27","1","0","3","1","","0","1","0","null","","","<div style=""font-size:60px;"">+</div>","null","","","","","","","","","",""
"","html-keyboard-response","147","526817","0.0-8.0-1.14","0yqabnq5mb","one_one","1","indirect_first","0","er04er24","1","27","1","0","3","1","","0","1","0","null","","","<img src = 'category2/CS3.png' width = '100%;'>","null","","","","","","","","","",""
"","html-keyboard-response","148","527076","0.0-8.0-2.14","0yqabnq5mb","one_one","1","indirect_first","0","er04er24","1","27","1","0","3","1","","0","1","0","null","","","<img src = 'targets/21.png' width = '100%;'>","null","","","","","","","","","",""
"","html-keyboard-response","149","528430","0.0-8.0-3.14","0yqabnq5mb","one_one","1","indirect_first","0","er04er24","1","27","1","0","3","1","","0","1","0","1354","","","<img src = 'targets/mask.png' width = '100%;'>","75","neg","GS","GSold","2","category2/CS3.png","targets/21.png","1","indirect","14",""
"","html-keyboard-response","150","529940","0.0-8.0-0.15","0yqabnq5mb","one_one","1","indirect_first","0","er04er24","1","27","1","0","3","1","","0","1","0","null","","","<div style=""font-size:60px;"">+</div>","null","","","","","","","","","",""
"","html-keyboard-response","151","530034","0.0-8.0-1.15","0yqabnq5mb","one_one","1","indirect_first","0","er04er24","1","27","1","0","3","1","","0","1","0","null","","","<img src = 'category4/CS4.png' width = '100%;'>","null","","","","","","","","","",""
"","html-keyboard-response","152","530294","0.0-8.0-2.15","0yqabnq5mb","one_one","1","indirect_first","0","er04er24","1","27","1","0","3","1","","0","1","0","null","","","<img src = 'targets/29.png' width = '100%;'>","null","","","","","","","","","",""
"","html-keyboard-response","153","531102","0.0-8.0-3.15","0yqabnq5mb","one_one","1","indirect_first","0","er04er24","1","27","1","0","3","1","","0","1","0","808","","","<img src = 'targets/mask.png' width = '100%;'>","75","pos","CS","CS","4","category4/CS4.png","targets/29.png","1","indirect","15",""
"","survey-html-form","154","534631","0.0-9.0","0yqabnq5mb","one_one","1","indirect_first","0","er04er24","1","27","1","0","3","1","","0","1","0","3023","","{}","","","","","","","","","","","",""
"","html-keyboard-response","155","537637","0.0-10.0-0.0","0yqabnq5mb","one_one","1","indirect_first","0","er04er24","1","27","1","0","3","1","","0","1","0","null","","","<div style=""font-size:60px;"">+</div>","null","","","","","","","","","",""
"","html-keyboard-response","156","537730","0.0-10.0-1.0","0yqabnq5mb","one_one","1","indirect_first","0","er04er24","1","27","1","0","3","1","","0","1","0","null","","","<img src = 'category4/lin.png' width = '100%;'>","null","","","","","","","","","",""
"","html-keyboard-response","157","537990","0.0-10.0-2.0","0yqabnq5mb","one_one","1","indirect_first","0","er04er24","1","27","1","0","3","1","","0","1","0","null","","","<img src = 'targets/39.png' width = '100%;'>","null","","","","","","","","","",""
"","html-keyboard-response","158","538924","0.0-10.0-3.0","0yqabnq5mb","one_one","1","indirect_first","0","er04er24","1","27","1","0","3","1","","0","1","0","933","","","<img src = 'targets/mask.png' width = '100%;'>","75","pos","GS","abstract","4","category4/lin.png","targets/39.png","1","indirect","16",""
"","html-keyboard-response","159","540433","0.0-10.0-0.1","0yqabnq5mb","one_one","1","indirect_first","0","er04er24","1","27","1","0","3","1","","0","1","0","null","","","<div style=""font-size:60px;"">+</div>","null","","","","","","","","","",""
"","html-keyboard-response","160","540528","0.0-10.0-1.1","0yqabnq5mb","one_one","1","indirect_first","0","er04er24","1","27","1","0","3","1","","0","1","0","null","","","<img src = 'category4/GS2.png' width = '100%;'>","null","","","","","","","","","",""
"","html-keyboard-response","161","540786","0.0-10.0-2.1","0yqabnq5mb","one_one","1","indirect_first","0","er04er24","1","27","1","0","3","1","","0","1","0","null","","","<img src = 'targets/14.png' width = '100%;'>","null","","","","","","","","","",""
"","html-keyboard-response","162","541491","0.0-10.0-3.1","0yqabnq5mb","one_one","1","indirect_first","0","er04er24","1","27","1","0","3","1","","0","1","0","706","","","<img src = 'targets/mask.png' width = '100%;'>","75","pos","GS","GSnew","4","category4/GS2.png","targets/14.png","1","indirect","17",""
"","html-keyboard-response","163","543002","0.0-10.0-0.2","0yqabnq5mb","one_one","1","indirect_first","0","er04er24","1","27","1","0","3","1","","0","1","0","null","","","<div style=""font-size:60px;"">+</div>","null","","","","","","","","","",""
"","html-keyboard-response","164","543095","0.0-10.0-1.2","0yqabnq5mb","one_one","1","indirect_first","0","er04er24","1","27","1","0","3","1","","0","1","0","null","","","<img src = 'category3/GS1.png' width = '100%;'>","null","","","","","","","","","",""
"","html-keyboard-response","165","543354","0.0-10.0-2.2","0yqabnq5mb","one_one","1","indirect_first","0","er04er24","1","27","1","0","3","1","","0","1","0","null","","","<img src = 'targets/42.png' width = '100%;'>","null","","","","","","","","","",""
"","html-keyboard-response","166","544396","0.0-10.0-3.2","0yqabnq5mb","one_one","1","indirect_first","0","er04er24","1","27","1","0","3","1","","0","1","0","1041","","","<img src = 'targets/mask.png' width = '100%;'>","75","neg","GS","GSnew","3","category3/GS1.png","targets/42.png","1","indirect","18",""
"","html-keyboard-response","167","545904","0.0-10.0-0.3","0yqabnq5mb","one_one","1","indirect_first","0","er04er24","1","27","1","0","3","1","","0","1","0","null","","","<div style=""font-size:60px;"">+</div>","null","","","","","","","","","",""
"","html-keyboard-response","168","546000","0.0-10.0-1.3","0yqabnq5mb","one_one","1","indirect_first","0","er04er24","1","27","1","0","3","1","","0","1","0","null","","","<img src = 'category1/ma.png' width = '100%;'>","null","","","","","","","","","",""
"","html-keyboard-response","169","546259","0.0-10.0-2.3","0yqabnq5mb","one_one","1","indirect_first","0","er04er24","1","27","1","0","3","1","","0","1","0","null","","","<img src = 'targets/27.png' width = '100%;'>","null","","","","","","","","","",""
"","html-keyboard-response","170","547140","0.0-10.0-3.3","0yqabnq5mb","one_one","1","indirect_first","0","er04er24","1","27","1","0","3","1","","0","1","0","881","","","<img src = 'targets/mask.png' width = '100%;'>","75","pos","GS","abstract","1","category1/ma.png","targets/27.png","1","indirect","19",""
"","html-keyboard-response","171","548644","0.0-10.0-0.4","0yqabnq5mb","one_one","1","indirect_first","0","er04er24","1","27","1","0","3","1","","0","1","0","null","","","<div style=""font-size:60px;"">+</div>","null","","","","","","","","","",""
"","html-keyboard-response","172","548737","0.0-10.0-1.4","0yqabnq5mb","one_one","1","indirect_first","0","er04er24","1","27","1","0","3","1","","0","1","0","null","","","<img src = 'category1/GS1.png' width = '100%;'>","null","","","","","","","","","",""
"","html-keyboard-response","173","548995","0.0-10.0-2.4","0yqabnq5mb","one_one","1","indirect_first","0","er04er24","1","27","1","0","3","1","","0","1","0","null","","","<img src = 'targets/25.png' width = '100%;'>","null","","","","","","","","","",""
"","html-keyboard-response","174","549500","0.0-10.0-3.4","0yqabnq5mb","one_one","1","indirect_first","0","er04er24","1","27","1","0","3","1","","0","1","0","505","","","<img src = 'targets/mask.png' width = '100%;'>","75","pos","GS","GSnew","1","category1/GS1.png","targets/25.png","1","indirect","20",""
"","html-keyboard-response","175","551009","0.0-10.0-0.5","0yqabnq5mb","one_one","1","indirect_first","0","er04er24","1","27","1","0","3","1","","0","1","0","null","","","<div style=""font-size:60px;"">+</div>","null","","","","","","","","","",""
"","html-keyboard-response","176","551101","0.0-10.0-1.5","0yqabnq5mb","one_one","1","indirect_first","0","er04er24","1","27","1","0","3","1","","0","1","0","null","","","<img src = 'category1/GS2.png' width = '100%;'>","null","","","","","","","","","",""
"","html-keyboard-response","177","551360","0.0-10.0-2.5","0yqabnq5mb","one_one","1","indirect_first","0","er04er24","1","27","1","0","3","1","","0","1","0","null","","","<img src = 'targets/16.png' width = '100%;'>","null","","","","","","","","","",""
"","html-keyboard-response","178","552059","0.0-10.0-3.5","0yqabnq5mb","one_one","1","indirect_first","0","er04er24","1","27","1","0","3","1","","0","1","0","699","","","<img src = 'targets/mask.png' width = '100%;'>","75","pos","GS","GSnew","1","category1/GS2.png","targets/16.png","1","indirect","21",""
"","html-keyboard-response","179","553570","0.0-10.0-0.6","0yqabnq5mb","one_one","1","indirect_first","0","er04er24","1","27","1","0","3","1","","0","1","0","null","","","<div style=""font-size:60px;"">+</div>","null","","","","","","","","","",""
"","html-keyboard-response","180","553665","0.0-10.0-1.6","0yqabnq5mb","one_one","1","indirect_first","0","er04er24","1","27","1","0","3","1","","0","1","0","null","","","<img src = 'category3/GS2.png' width = '100%;'>","null","","","","","","","","","",""
"","html-keyboard-response","181","553924","0.0-10.0-2.6","0yqabnq5mb","one_one","1","indirect_first","0","er04er24","1","27","1","0","3","1","","0","1","0","null","","","<img src = 'targets/5.png' width = '100%;'>","null","","","","","","","","","",""
"","html-keyboard-response","182","554620","0.0-10.0-3.6","0yqabnq5mb","one_one","1","indirect_first","0","er04er24","1","27","1","0","3","1","","0","1","0","696","","","<img src = 'targets/mask.png' width = '100%;'>","75","neg","GS","GSnew","3","category3/GS2.png","targets/5.png","1","indirect","22",""
"","html-keyboard-response","183","556129","0.0-10.0-0.7","0yqabnq5mb","one_one","1","indirect_first","0","er04er24","1","27","1","0","3","1","","0","1","0","null","","","<div style=""font-size:60px;"">+</div>","null","","","","","","","","","",""
"","html-keyboard-response","184","556222","0.0-10.0-1.7","0yqabnq5mb","one_one","1","indirect_first","0","er04er24","1","27","1","0","3","1","","0","1","0","null","","","<img src = 'category2/GS2.png' width = '100%;'>","null","","","","","","","","","",""
"","html-keyboard-response","185","556477","0.0-10.0-2.7","0yqabnq5mb","one_one","1","indirect_first","0","er04er24","1","27","1","0","3","1","","0","1","0","null","","","<img src = 'targets/15.png' width = '100%;'>","null","","","","","","","","","",""
"","html-keyboard-response","186","556965","0.0-10.0-3.7","0yqabnq5mb","one_one","1","indirect_first","0","er04er24","1","27","1","0","3","1","","0","1","0","486","","","<img src = 'targets/mask.png' width = '100%;'>","75","neg","GS","GSnew","2","category2/GS2.png","targets/15.png","1","indirect","23",""
"","html-keyboard-response","187","558473","0.0-10.0-0.8","0yqabnq5mb","one_one","1","indirect_first","0","er04er24","1","27","1","0","3","1","","0","1","0","null","","","<div style=""font-size:60px;"">+</div>","null","","","","","","","","","",""
"","html-keyboard-response","188","558567","0.0-10.0-1.8","0yqabnq5mb","one_one","1","indirect_first","0","er04er24","1","27","1","0","3","1","","0","1","0","null","","","<img src = 'category1/GS3.png' width = '100%;'>","null","","","","","","","","","",""
"","html-keyboard-response","189","558826","0.0-10.0-2.8","0yqabnq5mb","one_one","1","indirect_first","0","er04er24","1","27","1","0","3","1","","0","1","0","null","","","<img src = 'targets/20.png' width = '100%;'>","null","","","","","","","","","",""
"","html-keyboard-response","190","560341","0.0-10.0-3.8","0yqabnq5mb","one_one","1","indirect_first","0","er04er24","1","27","1","0","3","1","","0","1","0","1514","","","<img src = 'targets/mask.png' width = '100%;'>","75","pos","GS","GSnew","1","category1/GS3.png","targets/20.png","1","indirect","24",""
"","html-keyboard-response","191","561848","0.0-10.0-0.9","0yqabnq5mb","one_one","1","indirect_first","0","er04er24","1","27","1","0","3","1","","0","1","0","null","","","<div style=""font-size:60px;"">+</div>","null","","","","","","","","","",""
"","html-keyboard-response","192","561944","0.0-10.0-1.9","0yqabnq5mb","one_one","1","indirect_first","0","er04er24","1","27","1","0","3","1","","0","1","0","null","","","<img src = 'category4/GS1.png' width = '100%;'>","null","","","","","","","","","",""
"","html-keyboard-response","193","562204","0.0-10.0-2.9","0yqabnq5mb","one_one","1","indirect_first","0","er04er24","1","27","1","0","3","1","","0","1","0","null","","","<img src = 'targets/31.png' width = '100%;'>","null","","","","","","","","","",""
"","html-keyboard-response","194","563092","0.0-10.0-3.9","0yqabnq5mb","one_one","1","indirect_first","0","er04er24","1","27","1","0","3","1","","0","1","0","887","","","<img src = 'targets/mask.png' width = '100%;'>","75","pos","GS","GSnew","4","category4/GS1.png","targets/31.png","1","indirect","25",""
"","html-keyboard-response","195","564603","0.0-10.0-0.10","0yqabnq5mb","one_one","1","indirect_first","0","er04er24","1","27","1","0","3","1","","0","1","0","null","","","<div style=""font-size:60px;"">+</div>","null","","","","","","","","","",""
"","html-keyboard-response","196","564698","0.0-10.0-1.10","0yqabnq5mb","one_one","1","indirect_first","0","er04er24","1","27","1","0","3","1","","0","1","0","null","","","<img src = 'category3/wang.png' width = '100%;'>","null","","","","","","","","","",""
"","html-keyboard-response","197","564958","0.0-10.0-2.10","0yqabnq5mb","one_one","1","indirect_first","0","er04er24","1","27","1","0","3","1","","0","1","0","null","","","<img src = 'targets/36.png' width = '100%;'>","null","","","","","","","","","",""
"","html-keyboard-response","198","565565","0.0-10.0-3.10","0yqabnq5mb","one_one","1","indirect_first","0","er04er24","1","27","1","0","3","1","","0","1","0","607","","","<img src = 'targets/mask.png' width = '100%;'>","75","neg","GS","abstract","3","category3/wang.png","targets/36.png","1","indirect","26",""
"","html-keyboard-response","199","567076","0.0-10.0-0.11","0yqabnq5mb","one_one","1","indirect_first","0","er04er24","1","27","1","0","3","1","","0","1","0","null","","","<div style=""font-size:60px;"">+</div>","null","","","","","","","","","",""
"","html-keyboard-response","200","567170","0.0-10.0-1.11","0yqabnq5mb","one_one","1","indirect_first","0","er04er24","1","27","1","0","3","1","","0","1","0","null","","","<img src = 'category4/GS3.png' width = '100%;'>","null","","","","","","","","","",""
"","html-keyboard-response","201","567424","0.0-10.0-2.11","0yqabnq5mb","one_one","1","indirect_first","0","er04er24","1","27","1","0","3","1","","0","1","0","null","","","<img src = 'targets/41.png' width = '100%;'>","null","","","","","","","","","",""
"","html-keyboard-response","202","568084","0.0-10.0-3.11","0yqabnq5mb","one_one","1","indirect_first","0","er04er24","1","27","1","0","3","1","","0","1","0","660","","","<img src = 'targets/mask.png' width = '100%;'>","75","pos","GS","GSnew","4","category4/GS3.png","targets/41.png","1","indirect","27",""
"","html-keyboard-response","203","569586","0.0-10.0-0.12","0yqabnq5mb","one_one","1","indirect_first","0","er04er24","1","27","1","0","3","1","","0","1","0","null","","","<div style=""font-size:60px;"">+</div>","null","","","","","","","","","",""
"","html-keyboard-response","204","569681","0.0-10.0-1.12","0yqabnq5mb","one_one","1","indirect_first","0","er04er24","1","27","1","0","3","1","","0","1","0","null","","","<img src = 'category2/GS1.png' width = '100%;'>","null","","","","","","","","","",""
"","html-keyboard-response","205","569940","0.0-10.0-2.12","0yqabnq5mb","one_one","1","indirect_first","0","er04er24","1","27","1","0","3","1","","0","1","0","null","","","<img src = 'targets/1.png' width = '100%;'>","null","","","","","","","","","",""
"","html-keyboard-response","206","570773","0.0-10.0-3.12","0yqabnq5mb","one_one","1","indirect_first","0","er04er24","1","27","1","0","3","1","","0","1","0","833","","","<img src = 'targets/mask.png' width = '100%;'>","75","neg","GS","GSnew","2","category2/GS1.png","targets/1.png","1","indirect","28",""
"","html-keyboard-response","207","572283","0.0-10.0-0.13","0yqabnq5mb","one_one","1","indirect_first","0","er04er24","1","27","1","0","3","1","","0","1","0","null","","","<div style=""font-size:60px;"">+</div>","null","","","","","","","","","",""
"","html-keyboard-response","208","572377","0.0-10.0-1.13","0yqabnq5mb","one_one","1","indirect_first","0","er04er24","1","27","1","0","3","1","","0","1","0","null","","","<img src = 'category3/GS3.png' width = '100%;'>","null","","","","","","","","","",""
"","html-keyboard-response","209","572637","0.0-10.0-2.13","0yqabnq5mb","one_one","1","indirect_first","0","er04er24","1","27","1","0","3","1","","0","1","0","null","","","<img src = 'targets/6.png' width = '100%;'>","null","","","","","","","","","",""
"","html-keyboard-response","210","573749","0.0-10.0-3.13","0yqabnq5mb","one_one","1","indirect_first","0","er04er24","1","27","1","0","3","1","","0","1","0","1111","","","<img src = 'targets/mask.png' width = '100%;'>","68","neg","GS","GSnew","3","category3/GS3.png","targets/6.png","0","indirect","29",""
"","html-keyboard-response","211","575259","0.0-10.0-0.14","0yqabnq5mb","one_one","1","indirect_first","0","er04er24","1","27","1","0","3","1","","0","1","0","null","","","<div style=""font-size:60px;"">+</div>","null","","","","","","","","","",""
"","html-keyboard-response","212","575354","0.0-10.0-1.14","0yqabnq5mb","one_one","1","indirect_first","0","er04er24","1","27","1","0","3","1","","0","1","0","null","","","<img src = 'category2/GS3.png' width = '100%;'>","null","","","","","","","","","",""
"","html-keyboard-response","213","575612","0.0-10.0-2.14","0yqabnq5mb","one_one","1","indirect_first","0","er04er24","1","27","1","0","3","1","","0","1","0","null","","","<img src = 'targets/38.png' width = '100%;'>","null","","","","","","","","","",""
"","html-keyboard-response","214","577439","0.0-10.0-3.14","0yqabnq5mb","one_one","1","indirect_first","0","er04er24","1","27","1","0","3","1","","0","1","0","1827","","","<img src = 'targets/mask.png' width = '100%;'>","68","neg","GS","GSnew","2","category2/GS3.png","targets/38.png","0","indirect","30",""
"","html-keyboard-response","215","578947","0.0-10.0-0.15","0yqabnq5mb","one_one","1","indirect_first","0","er04er24","1","27","1","0","3","1","","0","1","0","null","","","<div style=""font-size:60px;"">+</div>","null","","","","","","","","","",""
"","html-keyboard-response","216","579043","0.0-10.0-1.15","0yqabnq5mb","one_one","1","indirect_first","0","er04er24","1","27","1","0","3","1","","0","1","0","null","","","<img src = 'category2/men.png' width = '100%;'>","null","","","","","","","","","",""
"","html-keyboard-response","217","579301","0.0-10.0-2.15","0yqabnq5mb","one_one","1","indirect_first","0","er04er24","1","27","1","0","3","1","","0","1","0","null","","","<img src = 'targets/32.png' width = '100%;'>","null","","","","","","","","","",""
"","html-keyboard-response","218","580007","0.0-10.0-3.15","0yqabnq5mb","one_one","1","indirect_first","0","er04er24","1","27","1","0","3","1","","0","1","0","705","","","<img src = 'targets/mask.png' width = '100%;'>","75","neg","GS","abstract","2","category2/men.png","targets/32.png","1","indirect","31",""
"","survey-html-form","219","588517","0.0-11.0","0yqabnq5mb","one_one","1","indirect_first","0","er04er24","1","27","1","0","3","1","","0","1","0","8003","","{}","","","","","","","","","","","",""
"","image-slider-response","220","594911","0.0-12.0-0.0","0yqabnq5mb","one_one","1","indirect_first","0","er04er24","1","27","1","0","3","1","","0","1","0","4390","","","","","neg","CS","CS","2","category2/CS7.png","targets/23.png","","direct","","72"
"","image-slider-response","221","597614","0.0-12.0-0.1","0yqabnq5mb","one_one","1","indirect_first","0","er04er24","1","27","1","0","3","1","","0","1","0","2702","","","","","pos","GS","GSnew","4","category4/GS2.png","targets/14.png","","direct","","89"
"","image-slider-response","222","600080","0.0-12.0-0.2","0yqabnq5mb","one_one","1","indirect_first","0","er04er24","1","27","1","0","3","1","","0","1","0","2465","","","","","neg","GS","GSold","2","category2/CS5.png","targets/33.png","","direct","","-52"
"","image-slider-response","223","603298","0.0-12.0-0.3","0yqabnq5mb","one_one","1","indirect_first","0","er04er24","1","27","1","0","3","1","","0","1","0","3216","","","","","pos","GS","GSnew","1","category1/GS3.png","targets/20.png","","direct","","100"
"","image-slider-response","224","608316","0.0-12.0-0.4","0yqabnq5mb","one_one","1","indirect_first","0","er04er24","1","27","1","0","3","1","","0","1","0","5016","","","","","pos","GS","GSold","4","category4/CS1.png","targets/40.png","","direct","","-45"
"","image-slider-response","225","610714","0.0-12.0-0.5","0yqabnq5mb","one_one","1","indirect_first","0","er04er24","1","27","1","0","3","1","","0","1","0","2396","","","","","neg","GS","GSnew","3","category3/GS3.png","targets/6.png","","direct","","-56"
"","image-slider-response","226","613501","0.0-12.0-0.6","0yqabnq5mb","one_one","1","indirect_first","0","er04er24","1","27","1","0","3","1","","0","1","0","2785","","","","","neg","GS","GSnew","2","category2/GS2.png","targets/15.png","","direct","","-53"
"","image-slider-response","227","615762","0.0-12.0-0.7","0yqabnq5mb","one_one","1","indirect_first","0","er04er24","1","27","1","0","3","1","","0","1","0","2261","","","","","pos","CS","CS","4","category4/CS4.png","targets/29.png","","direct","","-100"
"","image-slider-response","228","618454","0.0-12.0-0.8","0yqabnq5mb","one_one","1","indirect_first","0","er04er24","1","27","1","0","3","1","","0","1","0","2691","","","","","neg","CS","CS","3","category3/CS4.png","targets/18.png","","direct","","-58"
"","image-slider-response","229","622389","0.0-12.0-0.9","0yqabnq5mb","one_one","1","indirect_first","0","er04er24","1","27","1","0","3","1","","0","1","0","3933","","","","","pos","CS","CS","1","category1/CS7.png","targets/12.png","","direct","","-50"
"","image-slider-response","230","626691","0.0-12.0-0.10","0yqabnq5mb","one_one","1","indirect_first","0","er04er24","1","27","1","0","3","1","","0","1","0","4301","","","","","neg","GS","GSold","3","category3/CS1.png","targets/44.png","","direct","","39"
"","image-slider-response","231","628873","0.0-12.0-0.11","0yqabnq5mb","one_one","1","indirect_first","0","er04er24","1","27","1","0","3","1","","0","1","0","2181","","","","","pos","GS","GSnew","1","category1/GS2.png","targets/16.png","","direct","","73"
"","image-slider-response","232","631099","0.0-12.0-0.12","0yqabnq5mb","one_one","1","indirect_first","0","er04er24","1","27","1","0","3","1","","0","1","0","2226","","","","","neg","GS","GSold","2","category2/CS1.png","targets/45.png","","direct","","75"
"","image-slider-response","233","633425","0.0-12.0-0.13","0yqabnq5mb","one_one","1","indirect_first","0","er04er24","1","27","1","0","3","1","","0","1","0","2324","","","","","pos","GS","GSnew","1","category1/GS1.png","targets/25.png","","direct","","60"
"","image-slider-response","234","635779","0.0-12.0-0.14","0yqabnq5mb","one_one","1","indirect_first","0","er04er24","1","27","1","0","3","1","","0","1","0","2353","","","","","pos","GS","GSold","1","category1/CS10.png","targets/13.png","","direct","","45"
"","image-slider-response","235","637792","0.0-12.0-0.15","0yqabnq5mb","one_one","1","indirect_first","0","er04er24","1","27","1","0","3","1","","0","1","0","2012","","","","","pos","GS","GSnew","4","category4/GS3.png","targets/41.png","","direct","","66"
"","image-slider-response","236","639947","0.0-12.0-0.16","0yqabnq5mb","one_one","1","indirect_first","0","er04er24","1","27","1","0","3","1","","0","1","0","2153","","","","","pos","GS","GSold","1","category1/CS2.png","targets/35.png","","direct","","-78"
"","image-slider-response","237","642063","0.0-12.0-0.17","0yqabnq5mb","one_one","1","indirect_first","0","er04er24","1","27","1","0","3","1","","0","1","0","2116","","","","","neg","GS","GSnew","2","category2/GS3.png","targets/38.png","","direct","","70"
"","image-slider-response","238","644273","0.0-12.0-0.18","0yqabnq5mb","one_one","1","indirect_first","0","er04er24","1","27","1","0","3","1","","0","1","0","2208","","","","","pos","GS","abstract","4","category4/lin.png","targets/39.png","","direct","","62"
"","image-slider-response","239","646287","0.0-12.0-0.19","0yqabnq5mb","one_one","1","indirect_first","0","er04er24","1","27","1","0","3","1","","0","1","0","2014","","","","","pos","GS","abstract","1","category1/ma.png","targets/27.png","","direct","","73"
"","image-slider-response","240","648247","0.0-12.0-0.20","0yqabnq5mb","one_one","1","indirect_first","0","er04er24","1","27","1","0","3","1","","0","1","0","1958","","","","","pos","GS","GSold","1","category1/CS4.png","targets/3.png","","direct","","65"
"","image-slider-response","241","650245","0.0-12.0-0.21","0yqabnq5mb","one_one","1","indirect_first","0","er04er24","1","27","1","0","3","1","","0","1","0","1997","","","","","neg","GS","GSold","2","category2/CS3.png","targets/21.png","","direct","","59"
"","image-slider-response","242","652101","0.0-12.0-0.22","0yqabnq5mb","one_one","1","indirect_first","0","er04er24","1","27","1","0","3","1","","0","1","0","1855","","","","","neg","GS","GSnew","2","category2/GS1.png","targets/1.png","","direct","","68"
"","image-slider-response","243","654579","0.0-12.0-0.23","0yqabnq5mb","one_one","1","indirect_first","0","er04er24","1","27","1","0","3","1","","0","1","0","2478","","","","","pos","GS","GSold","4","category4/CS2.png","targets/30.png","","direct","","-54"
"","image-slider-response","244","656789","0.0-12.0-0.24","0yqabnq5mb","one_one","1","indirect_first","0","er04er24","1","27","1","0","3","1","","0","1","0","2209","","","","","neg","GS","abstract","3","category3/wang.png","targets/36.png","","direct","","-71"
"","image-slider-response","245","659117","0.0-12.0-0.25","0yqabnq5mb","one_one","1","indirect_first","0","er04er24","1","27","1","0","3","1","","0","1","0","2327","","","","","neg","GS","GSnew","3","category3/GS2.png","targets/5.png","","direct","","60"
"","image-slider-response","246","661206","0.0-12.0-0.26","0yqabnq5mb","one_one","1","indirect_first","0","er04er24","1","27","1","0","3","1","","0","1","0","2087","","","","","pos","GS","GSold","4","category4/CS9.png","targets/28.png","","direct","","61"
"","image-slider-response","247","663130","0.0-12.0-0.27","0yqabnq5mb","one_one","1","indirect_first","0","er04er24","1","27","1","0","3","1","","0","1","0","1922","","","","","neg","GS","GSnew","3","category3/GS1.png","targets/42.png","","direct","","75"
"","image-slider-response","248","665059","0.0-12.0-0.28","0yqabnq5mb","one_one","1","indirect_first","0","er04er24","1","27","1","0","3","1","","0","1","0","1929","","","","","pos","GS","GSnew","4","category4/GS1.png","targets/31.png","","direct","","83"
"","image-slider-response","249","666880","0.0-12.0-0.29","0yqabnq5mb","one_one","1","indirect_first","0","er04er24","1","27","1","0","3","1","","0","1","0","1818","","","","","neg","GS","abstract","2","category2/men.png","targets/32.png","","direct","","91"
"","image-slider-response","250","668866","0.0-12.0-0.30","0yqabnq5mb","one_one","1","indirect_first","0","er04er24","1","27","1","0","3","1","","0","1","0","1984","","","","","neg","GS","GSold","3","category3/CS5.png","targets/7.png","","direct","","-63"
"","image-slider-response","251","671080","0.0-12.0-0.31","0yqabnq5mb","one_one","1","indirect_first","0","er04er24","1","27","1","0","3","1","","0","1","0","2214","","","","","neg","GS","GSold","3","category3/CS8.png","targets/47.png","","direct","","-70"
"","survey-html-form","252","673706","0.0-13.0","0yqabnq5mb","one_one","1","indirect_first","0","er04er24","1","27","1","0","3","1","","0","1","0","2626","","{}","","","","","","","","","","","",""
"","image-slider-response","253","680470","0.0-14.0-0.0","0yqabnq5mb","one_one","1","indirect_first","0","er04er24","1","27","1","0","3","1","","0","1","0","5758","","","","","neg","All","all","3","category3/wang_all.png","","","all","","-71"
"","image-slider-response","254","683875","0.0-14.0-0.1","0yqabnq5mb","one_one","1","indirect_first","0","er04er24","1","27","1","0","3","1","","0","1","0","3403","","","","","pos","All","all","1","category1/ma_all.png","","","all","","-52"
"","image-slider-response","255","686254","0.0-14.0-0.2","0yqabnq5mb","one_one","1","indirect_first","0","er04er24","1","27","1","0","3","1","","0","1","0","2377","","","","","pos","All","all","4","category4/lin_all.png","","","all","","-74"
"","image-slider-response","256","690301","0.0-14.0-0.3","0yqabnq5mb","one_one","1","indirect_first","0","er04er24","1","27","1","0","3","1","","0","1","0","4044","","","","","neg","All","all","2","category2/men_all.png","","","all","","-45"
"","survey-text","257","693149","0.0-15.0","0yqabnq5mb","one_one","1","indirect_first","0","er04er24","1","27","1","0","3","1","","0","1","0","2828","","{""comment"":""""}","","","","","","","","","","","",""
"","survey-html-form","258","704663","0.0-16.0","0yqabnq5mb","one_one","1","indirect_first","0","er04er24","1","27","1","0","3","1","","0","1","0","11511","","{""hinschauen"":""0"",""ablenkung"":""1"",""gewissenhaft"":""0""}","","","","","","","","","","","",""
