"success","trial_type","trial_index","time_elapsed","internal_node_id","subject","condition","condition_code","measure","measure_code","codeword","gender","age","education","chinese","fach","handedness","rt","url","responses","stimulus","key_press","val","type","type_specific","category","cs_selected","target","indirect","task","nr_pres","response"
"true","fullscreen","0","4074","0.0-0.0","y4uzcdnwnk","one_one","1","indirect_first","0","el08lf21","1","19","1","1","3","1","","","","","","","","","","","","","","",""
"","external-html","1","126518","0.0-1.0","y4uzcdnwnk","one_one","1","indirect_first","0","el08lf21","1","19","1","1","3","1","122436","text/information.html","","","","","","","","","","","","",""
"","external-html","2","188798","0.0-2.0","y4uzcdnwnk","one_one","1","indirect_first","0","el08lf21","1","19","1","1","3","1","62272","text/consent.html","","","","","","","","","","","","",""
"","survey-html-form","3","247022","0.0-3.0","y4uzcdnwnk","one_one","1","indirect_first","0","el08lf21","1","19","1","1","3","1","58222","","{""codeword_enter"":""el08lf21""}","","","","","","","","","","","",""
"","survey-html-form","4","263719","0.0-4.0","y4uzcdnwnk","one_one","1","indirect_first","0","el08lf21","1","19","1","1","3","1","16696","","{""age"":""19"",""education"":""1"",""subject"":""3"",""gender"":""1"",""handedness"":""1"",""chinese"":""1""}","","","","","","","","","","","",""
"","survey-html-form","5","279494","0.0-5.0","y4uzcdnwnk","one_one","1","indirect_first","0","el08lf21","1","19","1","1","3","1","15775","","{}","","","","","","","","","","","",""
"","html-keyboard-response","6","283534","0.0-6.0-0.0-0.0","y4uzcdnwnk","one_one","1","indirect_first","0","el08lf21","1","19","1","1","3","1","null","","","<div class = 'row'><div class = 'column'><img src = 'category3/CS10.png' width = '70%;'></div><div class = 'column'><img src = 'uspos/5831.bmp' width = '100%;'></div></div>","null","pos","CS","CS","3","category3/CS10.png","","","","",""
"","html-keyboard-response","7","286073","0.0-6.0-0.0-0.1","y4uzcdnwnk","one_one","1","indirect_first","0","el08lf21","1","19","1","1","3","1","null","","","<div class = 'row'><div class = 'column'><img src = 'usneg/3181.bmp' width = '100%;'></div><div class = 'column'><img src = 'category1/CS3.png' width = '70%;'></div></div>","null","neg","CS","CS","1","category1/CS3.png","","","","",""
"","html-keyboard-response","8","288613","0.0-6.0-0.0-0.2","y4uzcdnwnk","one_one","1","indirect_first","0","el08lf21","1","19","1","1","3","1","null","","","<div class = 'row'><div class = 'column'><img src = 'category4/CS3.png' width = '70%;'></div><div class = 'column'><img src = 'uspos/2160.bmp' width = '100%;'></div></div>","null","pos","CS","CS","4","category4/CS3.png","","","","",""
"","html-keyboard-response","9","291153","0.0-6.0-0.0-0.3","y4uzcdnwnk","one_one","1","indirect_first","0","el08lf21","1","19","1","1","3","1","null","","","<div class = 'row'><div class = 'column'><img src = 'category1/CS3.png' width = '70%;'></div><div class = 'column'><img src = 'usneg/3181.bmp' width = '100%;'></div></div>","null","neg","CS","CS","1","category1/CS3.png","","","","",""
"","html-keyboard-response","10","293693","0.0-6.0-0.0-0.4","y4uzcdnwnk","one_one","1","indirect_first","0","el08lf21","1","19","1","1","3","1","null","","","<div class = 'row'><div class = 'column'><img src = 'usneg/3160.bmp' width = '100%;'></div><div class = 'column'><img src = 'category2/CS4.png' width = '70%;'></div></div>","null","neg","CS","CS","2","category2/CS4.png","","","","",""
"","html-keyboard-response","11","296223","0.0-6.0-0.0-0.5","y4uzcdnwnk","one_one","1","indirect_first","0","el08lf21","1","19","1","1","3","1","null","","","<div class = 'row'><div class = 'column'><img src = 'uspos/5831.bmp' width = '100%;'></div><div class = 'column'><img src = 'category3/CS10.png' width = '70%;'></div></div>","null","pos","CS","CS","3","category3/CS10.png","","","","",""
"","html-keyboard-response","12","298763","0.0-6.0-0.0-0.6","y4uzcdnwnk","one_one","1","indirect_first","0","el08lf21","1","19","1","1","3","1","null","","","<div class = 'row'><div class = 'column'><img src = 'uspos/2160.bmp' width = '100%;'></div><div class = 'column'><img src = 'category4/CS3.png' width = '70%;'></div></div>","null","pos","CS","CS","4","category4/CS3.png","","","","",""
"","html-keyboard-response","13","301292","0.0-6.0-0.0-0.7","y4uzcdnwnk","one_one","1","indirect_first","0","el08lf21","1","19","1","1","3","1","null","","","<div class = 'row'><div class = 'column'><img src = 'uspos/5831.bmp' width = '100%;'></div><div class = 'column'><img src = 'category3/CS10.png' width = '70%;'></div></div>","null","pos","CS","CS","3","category3/CS10.png","","","","",""
"","html-keyboard-response","14","303833","0.0-6.0-0.0-0.8","y4uzcdnwnk","one_one","1","indirect_first","0","el08lf21","1","19","1","1","3","1","null","","","<div class = 'row'><div class = 'column'><img src = 'usneg/3160.bmp' width = '100%;'></div><div class = 'column'><img src = 'category2/CS4.png' width = '70%;'></div></div>","null","neg","CS","CS","2","category2/CS4.png","","","","",""
"","html-keyboard-response","15","306362","0.0-6.0-0.0-0.9","y4uzcdnwnk","one_one","1","indirect_first","0","el08lf21","1","19","1","1","3","1","null","","","<div class = 'row'><div class = 'column'><img src = 'category1/CS3.png' width = '70%;'></div><div class = 'column'><img src = 'usneg/3181.bmp' width = '100%;'></div></div>","null","neg","CS","CS","1","category1/CS3.png","","","","",""
"","html-keyboard-response","16","308903","0.0-6.0-0.0-0.10","y4uzcdnwnk","one_one","1","indirect_first","0","el08lf21","1","19","1","1","3","1","null","","","<div class = 'row'><div class = 'column'><img src = 'category4/CS3.png' width = '70%;'></div><div class = 'column'><img src = 'uspos/2160.bmp' width = '100%;'></div></div>","null","pos","CS","CS","4","category4/CS3.png","","","","",""
"","html-keyboard-response","17","311442","0.0-6.0-0.0-0.11","y4uzcdnwnk","one_one","1","indirect_first","0","el08lf21","1","19","1","1","3","1","null","","","<div class = 'row'><div class = 'column'><img src = 'category1/CS3.png' width = '70%;'></div><div class = 'column'><img src = 'usneg/3181.bmp' width = '100%;'></div></div>","null","neg","CS","CS","1","category1/CS3.png","","","","",""
"","html-keyboard-response","18","313965","0.0-6.0-0.0-0.12","y4uzcdnwnk","one_one","1","indirect_first","0","el08lf21","1","19","1","1","3","1","null","","","<div class = 'row'><div class = 'column'><img src = 'category2/CS4.png' width = '70%;'></div><div class = 'column'><img src = 'usneg/3160.bmp' width = '100%;'></div></div>","null","neg","CS","CS","2","category2/CS4.png","","","","",""
"","html-keyboard-response","19","316472","0.0-6.0-0.0-0.13","y4uzcdnwnk","one_one","1","indirect_first","0","el08lf21","1","19","1","1","3","1","null","","","<div class = 'row'><div class = 'column'><img src = 'category3/CS10.png' width = '70%;'></div><div class = 'column'><img src = 'uspos/5831.bmp' width = '100%;'></div></div>","null","pos","CS","CS","3","category3/CS10.png","","","","",""
"","html-keyboard-response","20","318982","0.0-6.0-0.0-0.14","y4uzcdnwnk","one_one","1","indirect_first","0","el08lf21","1","19","1","1","3","1","null","","","<div class = 'row'><div class = 'column'><img src = 'category4/CS3.png' width = '70%;'></div><div class = 'column'><img src = 'uspos/2160.bmp' width = '100%;'></div></div>","null","pos","CS","CS","4","category4/CS3.png","","","","",""
"","html-keyboard-response","21","321522","0.0-6.0-0.0-0.15","y4uzcdnwnk","one_one","1","indirect_first","0","el08lf21","1","19","1","1","3","1","null","","","<div class = 'row'><div class = 'column'><img src = 'category2/CS4.png' width = '70%;'></div><div class = 'column'><img src = 'usneg/3160.bmp' width = '100%;'></div></div>","null","neg","CS","CS","2","category2/CS4.png","","","","",""
"","html-keyboard-response","22","324059","0.0-6.0-0.0-0.16","y4uzcdnwnk","one_one","1","indirect_first","0","el08lf21","1","19","1","1","3","1","null","","","<div class = 'row'><div class = 'column'><img src = 'uspos/5831.bmp' width = '100%;'></div><div class = 'column'><img src = 'category3/CS10.png' width = '70%;'></div></div>","null","pos","CS","CS","3","category3/CS10.png","","","","",""
"","html-keyboard-response","23","326562","0.0-6.0-0.0-0.17","y4uzcdnwnk","one_one","1","indirect_first","0","el08lf21","1","19","1","1","3","1","null","","","<div class = 'row'><div class = 'column'><img src = 'usneg/3160.bmp' width = '100%;'></div><div class = 'column'><img src = 'category2/CS4.png' width = '70%;'></div></div>","null","neg","CS","CS","2","category2/CS4.png","","","","",""
"","html-keyboard-response","24","329083","0.0-6.0-0.0-0.18","y4uzcdnwnk","one_one","1","indirect_first","0","el08lf21","1","19","1","1","3","1","null","","","<div class = 'row'><div class = 'column'><img src = 'category4/CS3.png' width = '70%;'></div><div class = 'column'><img src = 'uspos/2160.bmp' width = '100%;'></div></div>","null","pos","CS","CS","4","category4/CS3.png","","","","",""
"","html-keyboard-response","25","331622","0.0-6.0-0.0-0.19","y4uzcdnwnk","one_one","1","indirect_first","0","el08lf21","1","19","1","1","3","1","null","","","<div class = 'row'><div class = 'column'><img src = 'category1/CS3.png' width = '70%;'></div><div class = 'column'><img src = 'usneg/3181.bmp' width = '100%;'></div></div>","null","neg","CS","CS","1","category1/CS3.png","","","","",""
"","survey-html-form","26","335141","0.0-6.0-1.0","y4uzcdnwnk","one_one","1","indirect_first","0","el08lf21","1","19","1","1","3","1","2999","","{}","","","","","","","","","","","",""
"","html-keyboard-response","27","339161","0.0-6.0-2.0-0.0","y4uzcdnwnk","one_one","1","indirect_first","0","el08lf21","1","19","1","1","3","1","null","","","<div class = 'row'><div class = 'column'><img src = 'usneg/3160.bmp' width = '100%;'></div><div class = 'column'><img src = 'category2/CS4.png' width = '70%;'></div></div>","null","neg","CS","CS","2","category2/CS4.png","","","","",""
"","html-keyboard-response","28","341700","0.0-6.0-2.0-0.1","y4uzcdnwnk","one_one","1","indirect_first","0","el08lf21","1","19","1","1","3","1","null","","","<div class = 'row'><div class = 'column'><img src = 'category1/CS3.png' width = '70%;'></div><div class = 'column'><img src = 'usneg/3181.bmp' width = '100%;'></div></div>","null","neg","CS","CS","1","category1/CS3.png","","","","",""
"","html-keyboard-response","29","344212","0.0-6.0-2.0-0.2","y4uzcdnwnk","one_one","1","indirect_first","0","el08lf21","1","19","1","1","3","1","null","","","<div class = 'row'><div class = 'column'><img src = 'uspos/2160.bmp' width = '100%;'></div><div class = 'column'><img src = 'category4/CS3.png' width = '70%;'></div></div>","null","pos","CS","CS","4","category4/CS3.png","","","","",""
"","html-keyboard-response","30","346752","0.0-6.0-2.0-0.3","y4uzcdnwnk","one_one","1","indirect_first","0","el08lf21","1","19","1","1","3","1","null","","","<div class = 'row'><div class = 'column'><img src = 'category1/CS3.png' width = '70%;'></div><div class = 'column'><img src = 'usneg/3181.bmp' width = '100%;'></div></div>","null","neg","CS","CS","1","category1/CS3.png","","","","",""
"","html-keyboard-response","31","349292","0.0-6.0-2.0-0.4","y4uzcdnwnk","one_one","1","indirect_first","0","el08lf21","1","19","1","1","3","1","null","","","<div class = 'row'><div class = 'column'><img src = 'usneg/3160.bmp' width = '100%;'></div><div class = 'column'><img src = 'category2/CS4.png' width = '70%;'></div></div>","null","neg","CS","CS","2","category2/CS4.png","","","","",""
"","html-keyboard-response","32","351832","0.0-6.0-2.0-0.5","y4uzcdnwnk","one_one","1","indirect_first","0","el08lf21","1","19","1","1","3","1","null","","","<div class = 'row'><div class = 'column'><img src = 'uspos/2160.bmp' width = '100%;'></div><div class = 'column'><img src = 'category4/CS3.png' width = '70%;'></div></div>","null","pos","CS","CS","4","category4/CS3.png","","","","",""
"","html-keyboard-response","33","354371","0.0-6.0-2.0-0.6","y4uzcdnwnk","one_one","1","indirect_first","0","el08lf21","1","19","1","1","3","1","null","","","<div class = 'row'><div class = 'column'><img src = 'usneg/3160.bmp' width = '100%;'></div><div class = 'column'><img src = 'category2/CS4.png' width = '70%;'></div></div>","null","neg","CS","CS","2","category2/CS4.png","","","","",""
"","html-keyboard-response","34","356911","0.0-6.0-2.0-0.7","y4uzcdnwnk","one_one","1","indirect_first","0","el08lf21","1","19","1","1","3","1","null","","","<div class = 'row'><div class = 'column'><img src = 'usneg/3181.bmp' width = '100%;'></div><div class = 'column'><img src = 'category1/CS3.png' width = '70%;'></div></div>","null","neg","CS","CS","1","category1/CS3.png","","","","",""
"","html-keyboard-response","35","359432","0.0-6.0-2.0-0.8","y4uzcdnwnk","one_one","1","indirect_first","0","el08lf21","1","19","1","1","3","1","null","","","<div class = 'row'><div class = 'column'><img src = 'uspos/5831.bmp' width = '100%;'></div><div class = 'column'><img src = 'category3/CS10.png' width = '70%;'></div></div>","null","pos","CS","CS","3","category3/CS10.png","","","","",""
"","html-keyboard-response","36","361971","0.0-6.0-2.0-0.9","y4uzcdnwnk","one_one","1","indirect_first","0","el08lf21","1","19","1","1","3","1","null","","","<div class = 'row'><div class = 'column'><img src = 'usneg/3181.bmp' width = '100%;'></div><div class = 'column'><img src = 'category1/CS3.png' width = '70%;'></div></div>","null","neg","CS","CS","1","category1/CS3.png","","","","",""
"","html-keyboard-response","37","364511","0.0-6.0-2.0-0.10","y4uzcdnwnk","one_one","1","indirect_first","0","el08lf21","1","19","1","1","3","1","null","","","<div class = 'row'><div class = 'column'><img src = 'uspos/5831.bmp' width = '100%;'></div><div class = 'column'><img src = 'category3/CS10.png' width = '70%;'></div></div>","null","pos","CS","CS","3","category3/CS10.png","","","","",""
"","html-keyboard-response","38","367032","0.0-6.0-2.0-0.11","y4uzcdnwnk","one_one","1","indirect_first","0","el08lf21","1","19","1","1","3","1","null","","","<div class = 'row'><div class = 'column'><img src = 'category4/CS3.png' width = '70%;'></div><div class = 'column'><img src = 'uspos/2160.bmp' width = '100%;'></div></div>","null","pos","CS","CS","4","category4/CS3.png","","","","",""
"","html-keyboard-response","39","369568","0.0-6.0-2.0-0.12","y4uzcdnwnk","one_one","1","indirect_first","0","el08lf21","1","19","1","1","3","1","null","","","<div class = 'row'><div class = 'column'><img src = 'uspos/5831.bmp' width = '100%;'></div><div class = 'column'><img src = 'category3/CS10.png' width = '70%;'></div></div>","null","pos","CS","CS","3","category3/CS10.png","","","","",""
"","html-keyboard-response","40","372071","0.0-6.0-2.0-0.13","y4uzcdnwnk","one_one","1","indirect_first","0","el08lf21","1","19","1","1","3","1","null","","","<div class = 'row'><div class = 'column'><img src = 'category2/CS4.png' width = '70%;'></div><div class = 'column'><img src = 'usneg/3160.bmp' width = '100%;'></div></div>","null","neg","CS","CS","2","category2/CS4.png","","","","",""
"","html-keyboard-response","41","374592","0.0-6.0-2.0-0.14","y4uzcdnwnk","one_one","1","indirect_first","0","el08lf21","1","19","1","1","3","1","null","","","<div class = 'row'><div class = 'column'><img src = 'uspos/2160.bmp' width = '100%;'></div><div class = 'column'><img src = 'category4/CS3.png' width = '70%;'></div></div>","null","pos","CS","CS","4","category4/CS3.png","","","","",""
"","html-keyboard-response","42","377131","0.0-6.0-2.0-0.15","y4uzcdnwnk","one_one","1","indirect_first","0","el08lf21","1","19","1","1","3","1","null","","","<div class = 'row'><div class = 'column'><img src = 'uspos/5831.bmp' width = '100%;'></div><div class = 'column'><img src = 'category3/CS10.png' width = '70%;'></div></div>","null","pos","CS","CS","3","category3/CS10.png","","","","",""
"","html-keyboard-response","43","379671","0.0-6.0-2.0-0.16","y4uzcdnwnk","one_one","1","indirect_first","0","el08lf21","1","19","1","1","3","1","null","","","<div class = 'row'><div class = 'column'><img src = 'category4/CS3.png' width = '70%;'></div><div class = 'column'><img src = 'uspos/2160.bmp' width = '100%;'></div></div>","null","pos","CS","CS","4","category4/CS3.png","","","","",""
"","html-keyboard-response","44","382211","0.0-6.0-2.0-0.17","y4uzcdnwnk","one_one","1","indirect_first","0","el08lf21","1","19","1","1","3","1","null","","","<div class = 'row'><div class = 'column'><img src = 'category2/CS4.png' width = '70%;'></div><div class = 'column'><img src = 'usneg/3160.bmp' width = '100%;'></div></div>","null","neg","CS","CS","2","category2/CS4.png","","","","",""
"","html-keyboard-response","45","384727","0.0-6.0-2.0-0.18","y4uzcdnwnk","one_one","1","indirect_first","0","el08lf21","1","19","1","1","3","1","null","","","<div class = 'row'><div class = 'column'><img src = 'uspos/5831.bmp' width = '100%;'></div><div class = 'column'><img src = 'category3/CS10.png' width = '70%;'></div></div>","null","pos","CS","CS","3","category3/CS10.png","","","","",""
"","html-keyboard-response","46","387251","0.0-6.0-2.0-0.19","y4uzcdnwnk","one_one","1","indirect_first","0","el08lf21","1","19","1","1","3","1","null","","","<div class = 'row'><div class = 'column'><img src = 'usneg/3181.bmp' width = '100%;'></div><div class = 'column'><img src = 'category1/CS3.png' width = '70%;'></div></div>","null","neg","CS","CS","1","category1/CS3.png","","","","",""
"","survey-html-form","47","390827","0.0-6.0-3.0","y4uzcdnwnk","one_one","1","indirect_first","0","el08lf21","1","19","1","1","3","1","3065","","{}","","","","","","","","","","","",""
"","html-keyboard-response","48","394862","0.0-6.0-4.0-0.0","y4uzcdnwnk","one_one","1","indirect_first","0","el08lf21","1","19","1","1","3","1","null","","","<div class = 'row'><div class = 'column'><img src = 'uspos/5831.bmp' width = '100%;'></div><div class = 'column'><img src = 'category3/CS10.png' width = '70%;'></div></div>","null","pos","CS","CS","3","category3/CS10.png","","","","",""
"","html-keyboard-response","49","397401","0.0-6.0-4.0-0.1","y4uzcdnwnk","one_one","1","indirect_first","0","el08lf21","1","19","1","1","3","1","null","","","<div class = 'row'><div class = 'column'><img src = 'usneg/3160.bmp' width = '100%;'></div><div class = 'column'><img src = 'category2/CS4.png' width = '70%;'></div></div>","null","neg","CS","CS","2","category2/CS4.png","","","","",""
"","html-keyboard-response","50","399941","0.0-6.0-4.0-0.2","y4uzcdnwnk","one_one","1","indirect_first","0","el08lf21","1","19","1","1","3","1","null","","","<div class = 'row'><div class = 'column'><img src = 'uspos/5831.bmp' width = '100%;'></div><div class = 'column'><img src = 'category3/CS10.png' width = '70%;'></div></div>","null","pos","CS","CS","3","category3/CS10.png","","","","",""
"","html-keyboard-response","51","402481","0.0-6.0-4.0-0.3","y4uzcdnwnk","one_one","1","indirect_first","0","el08lf21","1","19","1","1","3","1","null","","","<div class = 'row'><div class = 'column'><img src = 'category1/CS3.png' width = '70%;'></div><div class = 'column'><img src = 'usneg/3181.bmp' width = '100%;'></div></div>","null","neg","CS","CS","1","category1/CS3.png","","","","",""
"","html-keyboard-response","52","405020","0.0-6.0-4.0-0.4","y4uzcdnwnk","one_one","1","indirect_first","0","el08lf21","1","19","1","1","3","1","null","","","<div class = 'row'><div class = 'column'><img src = 'category2/CS4.png' width = '70%;'></div><div class = 'column'><img src = 'usneg/3160.bmp' width = '100%;'></div></div>","null","neg","CS","CS","2","category2/CS4.png","","","","",""
"","html-keyboard-response","53","407561","0.0-6.0-4.0-0.5","y4uzcdnwnk","one_one","1","indirect_first","0","el08lf21","1","19","1","1","3","1","null","","","<div class = 'row'><div class = 'column'><img src = 'category1/CS3.png' width = '70%;'></div><div class = 'column'><img src = 'usneg/3181.bmp' width = '100%;'></div></div>","null","neg","CS","CS","1","category1/CS3.png","","","","",""
"","html-keyboard-response","54","410081","0.0-6.0-4.0-0.6","y4uzcdnwnk","one_one","1","indirect_first","0","el08lf21","1","19","1","1","3","1","null","","","<div class = 'row'><div class = 'column'><img src = 'uspos/2160.bmp' width = '100%;'></div><div class = 'column'><img src = 'category4/CS3.png' width = '70%;'></div></div>","null","pos","CS","CS","4","category4/CS3.png","","","","",""
"","html-keyboard-response","55","412621","0.0-6.0-4.0-0.7","y4uzcdnwnk","one_one","1","indirect_first","0","el08lf21","1","19","1","1","3","1","null","","","<div class = 'row'><div class = 'column'><img src = 'category2/CS4.png' width = '70%;'></div><div class = 'column'><img src = 'usneg/3160.bmp' width = '100%;'></div></div>","null","neg","CS","CS","2","category2/CS4.png","","","","",""
"","html-keyboard-response","56","415150","0.0-6.0-4.0-0.8","y4uzcdnwnk","one_one","1","indirect_first","0","el08lf21","1","19","1","1","3","1","null","","","<div class = 'row'><div class = 'column'><img src = 'category1/CS3.png' width = '70%;'></div><div class = 'column'><img src = 'usneg/3181.bmp' width = '100%;'></div></div>","null","neg","CS","CS","1","category1/CS3.png","","","","",""
"","html-keyboard-response","57","417680","0.0-6.0-4.0-0.9","y4uzcdnwnk","one_one","1","indirect_first","0","el08lf21","1","19","1","1","3","1","null","","","<div class = 'row'><div class = 'column'><img src = 'uspos/5831.bmp' width = '100%;'></div><div class = 'column'><img src = 'category3/CS10.png' width = '70%;'></div></div>","null","pos","CS","CS","3","category3/CS10.png","","","","",""
"","html-keyboard-response","58","420200","0.0-6.0-4.0-0.10","y4uzcdnwnk","one_one","1","indirect_first","0","el08lf21","1","19","1","1","3","1","null","","","<div class = 'row'><div class = 'column'><img src = 'usneg/3160.bmp' width = '100%;'></div><div class = 'column'><img src = 'category2/CS4.png' width = '70%;'></div></div>","null","neg","CS","CS","2","category2/CS4.png","","","","",""
"","html-keyboard-response","59","422731","0.0-6.0-4.0-0.11","y4uzcdnwnk","one_one","1","indirect_first","0","el08lf21","1","19","1","1","3","1","null","","","<div class = 'row'><div class = 'column'><img src = 'usneg/3181.bmp' width = '100%;'></div><div class = 'column'><img src = 'category1/CS3.png' width = '70%;'></div></div>","null","neg","CS","CS","1","category1/CS3.png","","","","",""
"","html-keyboard-response","60","425270","0.0-6.0-4.0-0.12","y4uzcdnwnk","one_one","1","indirect_first","0","el08lf21","1","19","1","1","3","1","null","","","<div class = 'row'><div class = 'column'><img src = 'uspos/2160.bmp' width = '100%;'></div><div class = 'column'><img src = 'category4/CS3.png' width = '70%;'></div></div>","null","pos","CS","CS","4","category4/CS3.png","","","","",""
"","html-keyboard-response","61","427790","0.0-6.0-4.0-0.13","y4uzcdnwnk","one_one","1","indirect_first","0","el08lf21","1","19","1","1","3","1","null","","","<div class = 'row'><div class = 'column'><img src = 'uspos/5831.bmp' width = '100%;'></div><div class = 'column'><img src = 'category3/CS10.png' width = '70%;'></div></div>","null","pos","CS","CS","3","category3/CS10.png","","","","",""
"","html-keyboard-response","62","430329","0.0-6.0-4.0-0.14","y4uzcdnwnk","one_one","1","indirect_first","0","el08lf21","1","19","1","1","3","1","null","","","<div class = 'row'><div class = 'column'><img src = 'uspos/2160.bmp' width = '100%;'></div><div class = 'column'><img src = 'category4/CS3.png' width = '70%;'></div></div>","null","pos","CS","CS","4","category4/CS3.png","","","","",""
"","html-keyboard-response","63","432851","0.0-6.0-4.0-0.15","y4uzcdnwnk","one_one","1","indirect_first","0","el08lf21","1","19","1","1","3","1","null","","","<div class = 'row'><div class = 'column'><img src = 'uspos/5831.bmp' width = '100%;'></div><div class = 'column'><img src = 'category3/CS10.png' width = '70%;'></div></div>","null","pos","CS","CS","3","category3/CS10.png","","","","",""
"","html-keyboard-response","64","435390","0.0-6.0-4.0-0.16","y4uzcdnwnk","one_one","1","indirect_first","0","el08lf21","1","19","1","1","3","1","null","","","<div class = 'row'><div class = 'column'><img src = 'uspos/2160.bmp' width = '100%;'></div><div class = 'column'><img src = 'category4/CS3.png' width = '70%;'></div></div>","null","pos","CS","CS","4","category4/CS3.png","","","","",""
"","html-keyboard-response","65","437910","0.0-6.0-4.0-0.17","y4uzcdnwnk","one_one","1","indirect_first","0","el08lf21","1","19","1","1","3","1","null","","","<div class = 'row'><div class = 'column'><img src = 'category2/CS4.png' width = '70%;'></div><div class = 'column'><img src = 'usneg/3160.bmp' width = '100%;'></div></div>","null","neg","CS","CS","2","category2/CS4.png","","","","",""
"","html-keyboard-response","66","440450","0.0-6.0-4.0-0.18","y4uzcdnwnk","one_one","1","indirect_first","0","el08lf21","1","19","1","1","3","1","null","","","<div class = 'row'><div class = 'column'><img src = 'uspos/2160.bmp' width = '100%;'></div><div class = 'column'><img src = 'category4/CS3.png' width = '70%;'></div></div>","null","pos","CS","CS","4","category4/CS3.png","","","","",""
"","html-keyboard-response","67","442990","0.0-6.0-4.0-0.19","y4uzcdnwnk","one_one","1","indirect_first","0","el08lf21","1","19","1","1","3","1","null","","","<div class = 'row'><div class = 'column'><img src = 'usneg/3181.bmp' width = '100%;'></div><div class = 'column'><img src = 'category1/CS3.png' width = '70%;'></div></div>","null","neg","CS","CS","1","category1/CS3.png","","","","",""
"","survey-html-form","68","446555","0.0-6.0-5.0","y4uzcdnwnk","one_one","1","indirect_first","0","el08lf21","1","19","1","1","3","1","3044","","{}","","","","","","","","","","","",""
"","html-keyboard-response","69","450589","0.0-6.0-6.0-0.0","y4uzcdnwnk","one_one","1","indirect_first","0","el08lf21","1","19","1","1","3","1","null","","","<div class = 'row'><div class = 'column'><img src = 'usneg/3160.bmp' width = '100%;'></div><div class = 'column'><img src = 'category2/CS4.png' width = '70%;'></div></div>","null","neg","CS","CS","2","category2/CS4.png","","","","",""
"","html-keyboard-response","70","453119","0.0-6.0-6.0-0.1","y4uzcdnwnk","one_one","1","indirect_first","0","el08lf21","1","19","1","1","3","1","null","","","<div class = 'row'><div class = 'column'><img src = 'category3/CS10.png' width = '70%;'></div><div class = 'column'><img src = 'uspos/5831.bmp' width = '100%;'></div></div>","null","pos","CS","CS","3","category3/CS10.png","","","","",""
"","html-keyboard-response","71","455641","0.0-6.0-6.0-0.2","y4uzcdnwnk","one_one","1","indirect_first","0","el08lf21","1","19","1","1","3","1","null","","","<div class = 'row'><div class = 'column'><img src = 'uspos/2160.bmp' width = '100%;'></div><div class = 'column'><img src = 'category4/CS3.png' width = '70%;'></div></div>","null","pos","CS","CS","4","category4/CS3.png","","","","",""
"","html-keyboard-response","72","458180","0.0-6.0-6.0-0.3","y4uzcdnwnk","one_one","1","indirect_first","0","el08lf21","1","19","1","1","3","1","null","","","<div class = 'row'><div class = 'column'><img src = 'category1/CS3.png' width = '70%;'></div><div class = 'column'><img src = 'usneg/3181.bmp' width = '100%;'></div></div>","null","neg","CS","CS","1","category1/CS3.png","","","","",""
"","html-keyboard-response","73","460720","0.0-6.0-6.0-0.4","y4uzcdnwnk","one_one","1","indirect_first","0","el08lf21","1","19","1","1","3","1","null","","","<div class = 'row'><div class = 'column'><img src = 'category3/CS10.png' width = '70%;'></div><div class = 'column'><img src = 'uspos/5831.bmp' width = '100%;'></div></div>","null","pos","CS","CS","3","category3/CS10.png","","","","",""
"","html-keyboard-response","74","463240","0.0-6.0-6.0-0.5","y4uzcdnwnk","one_one","1","indirect_first","0","el08lf21","1","19","1","1","3","1","null","","","<div class = 'row'><div class = 'column'><img src = 'category2/CS4.png' width = '70%;'></div><div class = 'column'><img src = 'usneg/3160.bmp' width = '100%;'></div></div>","null","neg","CS","CS","2","category2/CS4.png","","","","",""
"","html-keyboard-response","75","465769","0.0-6.0-6.0-0.6","y4uzcdnwnk","one_one","1","indirect_first","0","el08lf21","1","19","1","1","3","1","null","","","<div class = 'row'><div class = 'column'><img src = 'uspos/2160.bmp' width = '100%;'></div><div class = 'column'><img src = 'category4/CS3.png' width = '70%;'></div></div>","null","pos","CS","CS","4","category4/CS3.png","","","","",""
"","html-keyboard-response","76","468310","0.0-6.0-6.0-0.7","y4uzcdnwnk","one_one","1","indirect_first","0","el08lf21","1","19","1","1","3","1","null","","","<div class = 'row'><div class = 'column'><img src = 'usneg/3181.bmp' width = '100%;'></div><div class = 'column'><img src = 'category1/CS3.png' width = '70%;'></div></div>","null","neg","CS","CS","1","category1/CS3.png","","","","",""
"","html-keyboard-response","77","470849","0.0-6.0-6.0-0.8","y4uzcdnwnk","one_one","1","indirect_first","0","el08lf21","1","19","1","1","3","1","null","","","<div class = 'row'><div class = 'column'><img src = 'category3/CS10.png' width = '70%;'></div><div class = 'column'><img src = 'uspos/5831.bmp' width = '100%;'></div></div>","null","pos","CS","CS","3","category3/CS10.png","","","","",""
"","html-keyboard-response","78","473370","0.0-6.0-6.0-0.9","y4uzcdnwnk","one_one","1","indirect_first","0","el08lf21","1","19","1","1","3","1","null","","","<div class = 'row'><div class = 'column'><img src = 'category2/CS4.png' width = '70%;'></div><div class = 'column'><img src = 'usneg/3160.bmp' width = '100%;'></div></div>","null","neg","CS","CS","2","category2/CS4.png","","","","",""
"","html-keyboard-response","79","475909","0.0-6.0-6.0-0.10","y4uzcdnwnk","one_one","1","indirect_first","0","el08lf21","1","19","1","1","3","1","null","","","<div class = 'row'><div class = 'column'><img src = 'uspos/2160.bmp' width = '100%;'></div><div class = 'column'><img src = 'category4/CS3.png' width = '70%;'></div></div>","null","pos","CS","CS","4","category4/CS3.png","","","","",""
"","html-keyboard-response","80","478450","0.0-6.0-6.0-0.11","y4uzcdnwnk","one_one","1","indirect_first","0","el08lf21","1","19","1","1","3","1","null","","","<div class = 'row'><div class = 'column'><img src = 'category2/CS4.png' width = '70%;'></div><div class = 'column'><img src = 'usneg/3160.bmp' width = '100%;'></div></div>","null","neg","CS","CS","2","category2/CS4.png","","","","",""
"","html-keyboard-response","81","480970","0.0-6.0-6.0-0.12","y4uzcdnwnk","one_one","1","indirect_first","0","el08lf21","1","19","1","1","3","1","null","","","<div class = 'row'><div class = 'column'><img src = 'category1/CS3.png' width = '70%;'></div><div class = 'column'><img src = 'usneg/3181.bmp' width = '100%;'></div></div>","null","neg","CS","CS","1","category1/CS3.png","","","","",""
"","html-keyboard-response","82","483509","0.0-6.0-6.0-0.13","y4uzcdnwnk","one_one","1","indirect_first","0","el08lf21","1","19","1","1","3","1","null","","","<div class = 'row'><div class = 'column'><img src = 'uspos/5831.bmp' width = '100%;'></div><div class = 'column'><img src = 'category3/CS10.png' width = '70%;'></div></div>","null","pos","CS","CS","3","category3/CS10.png","","","","",""
"","html-keyboard-response","83","486049","0.0-6.0-6.0-0.14","y4uzcdnwnk","one_one","1","indirect_first","0","el08lf21","1","19","1","1","3","1","null","","","<div class = 'row'><div class = 'column'><img src = 'uspos/2160.bmp' width = '100%;'></div><div class = 'column'><img src = 'category4/CS3.png' width = '70%;'></div></div>","null","pos","CS","CS","4","category4/CS3.png","","","","",""
"","html-keyboard-response","84","488589","0.0-6.0-6.0-0.15","y4uzcdnwnk","one_one","1","indirect_first","0","el08lf21","1","19","1","1","3","1","null","","","<div class = 'row'><div class = 'column'><img src = 'usneg/3181.bmp' width = '100%;'></div><div class = 'column'><img src = 'category1/CS3.png' width = '70%;'></div></div>","null","neg","CS","CS","1","category1/CS3.png","","","","",""
"","html-keyboard-response","85","491130","0.0-6.0-6.0-0.16","y4uzcdnwnk","one_one","1","indirect_first","0","el08lf21","1","19","1","1","3","1","null","","","<div class = 'row'><div class = 'column'><img src = 'category2/CS4.png' width = '70%;'></div><div class = 'column'><img src = 'usneg/3160.bmp' width = '100%;'></div></div>","null","neg","CS","CS","2","category2/CS4.png","","","","",""
"","html-keyboard-response","86","493649","0.0-6.0-6.0-0.17","y4uzcdnwnk","one_one","1","indirect_first","0","el08lf21","1","19","1","1","3","1","null","","","<div class = 'row'><div class = 'column'><img src = 'uspos/5831.bmp' width = '100%;'></div><div class = 'column'><img src = 'category3/CS10.png' width = '70%;'></div></div>","null","pos","CS","CS","3","category3/CS10.png","","","","",""
"","html-keyboard-response","87","496170","0.0-6.0-6.0-0.18","y4uzcdnwnk","one_one","1","indirect_first","0","el08lf21","1","19","1","1","3","1","null","","","<div class = 'row'><div class = 'column'><img src = 'category1/CS3.png' width = '70%;'></div><div class = 'column'><img src = 'usneg/3181.bmp' width = '100%;'></div></div>","null","neg","CS","CS","1","category1/CS3.png","","","","",""
"","html-keyboard-response","88","498689","0.0-6.0-6.0-0.19","y4uzcdnwnk","one_one","1","indirect_first","0","el08lf21","1","19","1","1","3","1","null","","","<div class = 'row'><div class = 'column'><img src = 'uspos/2160.bmp' width = '100%;'></div><div class = 'column'><img src = 'category4/CS3.png' width = '70%;'></div></div>","null","pos","CS","CS","4","category4/CS3.png","","","","",""
"","html-keyboard-response","89","539865","0.0-7.0","y4uzcdnwnk","one_one","1","indirect_first","0","el08lf21","1","19","1","1","3","1","40655","","","<p>Sie sehen nun die chinesischen Zeichen nur ganz kurz, und danach die jeweilige Aussprache der Zeichen. Ihre Aufgabe ist es, für jede Silbe anzugeben, ob diese etwas angenehmes, oder unangenehmes bedeuten könnte. Verlassen Sie sich hier vor allem auf Ihre Intuition.<br><br>Die Zeichen werden nur zur Orientierung dargestellt, beachten Sie sie deshalb nicht. Konzentrieren Sie sich vor allem auf die Silben. <br>Reagieren Sie mit folgenden zwei Tasten: <br><br><b>'D' </b> wenn die Silbe etwas <b>unangenehmes</b> bedeuten könnte. <br><b>'K'</b> wenn die Silbe etwas <b>angenehmes</b> bedeuten könnte. <br><br>Bitte legen Sie nun den Zeigefinger der linken Hand auf die Taste 'D' und den Zeigefinger der rechten Hand auf die Taste 'K'. <br>Reagieren Sie auf jede Silbe so schnell wie möglich. Uns interessiert Ihre spontane Reaktion. <br> <br> <br>Drücken Sie 'D' oder 'K', um die nächste Aufgabe zu starten. </p>","75","","","","","","","","","",""
"","html-keyboard-response","90","542899","0.0-8.0-0.0","y4uzcdnwnk","one_one","1","indirect_first","0","el08lf21","1","19","1","1","3","1","null","","","<div style=""font-size:60px;"">+</div>","null","","","","","","","","","",""
"","html-keyboard-response","91","542999","0.0-8.0-1.0","y4uzcdnwnk","one_one","1","indirect_first","0","el08lf21","1","19","1","1","3","1","null","","","<img src = 'category1/CS5.png' width = '100%;'>","null","","","","","","","","","",""
"","html-keyboard-response","92","543279","0.0-8.0-2.0","y4uzcdnwnk","one_one","1","indirect_first","0","el08lf21","1","19","1","1","3","1","null","","","<img src = 'targets/31.png' width = '100%;'>","null","","","","","","","","","",""
"","html-keyboard-response","93","546027","0.0-8.0-3.0","y4uzcdnwnk","one_one","1","indirect_first","0","el08lf21","1","19","1","1","3","1","2744","","","<img src = 'targets/mask.png' width = '100%;'>","68","neg","GS","GSold","1","category1/CS5.png","targets/31.png","0","indirect","0",""
"","html-keyboard-response","94","547558","0.0-8.0-0.1","y4uzcdnwnk","one_one","1","indirect_first","0","el08lf21","1","19","1","1","3","1","null","","","<div style=""font-size:60px;"">+</div>","null","","","","","","","","","",""
"","html-keyboard-response","95","547659","0.0-8.0-1.1","y4uzcdnwnk","one_one","1","indirect_first","0","el08lf21","1","19","1","1","3","1","null","","","<img src = 'category4/CS6.png' width = '100%;'>","null","","","","","","","","","",""
"","html-keyboard-response","96","547939","0.0-8.0-2.1","y4uzcdnwnk","one_one","1","indirect_first","0","el08lf21","1","19","1","1","3","1","null","","","<img src = 'targets/21.png' width = '100%;'>","null","","","","","","","","","",""
"","html-keyboard-response","97","549794","0.0-8.0-3.1","y4uzcdnwnk","one_one","1","indirect_first","0","el08lf21","1","19","1","1","3","1","1854","","","<img src = 'targets/mask.png' width = '100%;'>","75","pos","GS","GSold","4","category4/CS6.png","targets/21.png","1","indirect","1",""
"","html-keyboard-response","98","551319","0.0-8.0-0.2","y4uzcdnwnk","one_one","1","indirect_first","0","el08lf21","1","19","1","1","3","1","null","","","<div style=""font-size:60px;"">+</div>","null","","","","","","","","","",""
"","html-keyboard-response","99","551419","0.0-8.0-1.2","y4uzcdnwnk","one_one","1","indirect_first","0","el08lf21","1","19","1","1","3","1","null","","","<img src = 'category1/CS10.png' width = '100%;'>","null","","","","","","","","","",""
"","html-keyboard-response","100","551695","0.0-8.0-2.2","y4uzcdnwnk","one_one","1","indirect_first","0","el08lf21","1","19","1","1","3","1","null","","","<img src = 'targets/43.png' width = '100%;'>","null","","","","","","","","","",""
"","html-keyboard-response","101","553474","0.0-8.0-3.2","y4uzcdnwnk","one_one","1","indirect_first","0","el08lf21","1","19","1","1","3","1","1779","","","<img src = 'targets/mask.png' width = '100%;'>","75","neg","GS","GSold","1","category1/CS10.png","targets/43.png","1","indirect","2",""
"","html-keyboard-response","102","554999","0.0-8.0-0.3","y4uzcdnwnk","one_one","1","indirect_first","0","el08lf21","1","19","1","1","3","1","null","","","<div style=""font-size:60px;"">+</div>","null","","","","","","","","","",""
"","html-keyboard-response","103","555099","0.0-8.0-1.3","y4uzcdnwnk","one_one","1","indirect_first","0","el08lf21","1","19","1","1","3","1","null","","","<img src = 'category2/CS8.png' width = '100%;'>","null","","","","","","","","","",""
"","html-keyboard-response","104","555379","0.0-8.0-2.3","y4uzcdnwnk","one_one","1","indirect_first","0","el08lf21","1","19","1","1","3","1","null","","","<img src = 'targets/12.png' width = '100%;'>","null","","","","","","","","","",""
"","html-keyboard-response","105","556322","0.0-8.0-3.3","y4uzcdnwnk","one_one","1","indirect_first","0","el08lf21","1","19","1","1","3","1","941","","","<img src = 'targets/mask.png' width = '100%;'>","68","neg","GS","GSold","2","category2/CS8.png","targets/12.png","0","indirect","3",""
"","html-keyboard-response","106","557839","0.0-8.0-0.4","y4uzcdnwnk","one_one","1","indirect_first","0","el08lf21","1","19","1","1","3","1","null","","","<div style=""font-size:60px;"">+</div>","null","","","","","","","","","",""
"","html-keyboard-response","107","557932","0.0-8.0-1.4","y4uzcdnwnk","one_one","1","indirect_first","0","el08lf21","1","19","1","1","3","1","null","","","<img src = 'category3/CS10.png' width = '100%;'>","null","","","","","","","","","",""
"","html-keyboard-response","108","558185","0.0-8.0-2.4","y4uzcdnwnk","one_one","1","indirect_first","0","el08lf21","1","19","1","1","3","1","null","","","<img src = 'targets/48.png' width = '100%;'>","null","","","","","","","","","",""
"","html-keyboard-response","109","559218","0.0-8.0-3.4","y4uzcdnwnk","one_one","1","indirect_first","0","el08lf21","1","19","1","1","3","1","1031","","","<img src = 'targets/mask.png' width = '100%;'>","75","pos","CS","CS","3","category3/CS10.png","targets/48.png","1","indirect","4",""
"","html-keyboard-response","110","560739","0.0-8.0-0.5","y4uzcdnwnk","one_one","1","indirect_first","0","el08lf21","1","19","1","1","3","1","null","","","<div style=""font-size:60px;"">+</div>","null","","","","","","","","","",""
"","html-keyboard-response","111","560839","0.0-8.0-1.5","y4uzcdnwnk","one_one","1","indirect_first","0","el08lf21","1","19","1","1","3","1","null","","","<img src = 'category2/CS7.png' width = '100%;'>","null","","","","","","","","","",""
"","html-keyboard-response","112","561119","0.0-8.0-2.5","y4uzcdnwnk","one_one","1","indirect_first","0","el08lf21","1","19","1","1","3","1","null","","","<img src = 'targets/7.png' width = '100%;'>","null","","","","","","","","","",""
"","html-keyboard-response","113","562170","0.0-8.0-3.5","y4uzcdnwnk","one_one","1","indirect_first","0","el08lf21","1","19","1","1","3","1","1049","","","<img src = 'targets/mask.png' width = '100%;'>","75","neg","GS","GSold","2","category2/CS7.png","targets/7.png","1","indirect","5",""
"","html-keyboard-response","114","563698","0.0-8.0-0.6","y4uzcdnwnk","one_one","1","indirect_first","0","el08lf21","1","19","1","1","3","1","null","","","<div style=""font-size:60px;"">+</div>","null","","","","","","","","","",""
"","html-keyboard-response","115","563799","0.0-8.0-1.6","y4uzcdnwnk","one_one","1","indirect_first","0","el08lf21","1","19","1","1","3","1","null","","","<img src = 'category3/CS7.png' width = '100%;'>","null","","","","","","","","","",""
"","html-keyboard-response","116","564078","0.0-8.0-2.6","y4uzcdnwnk","one_one","1","indirect_first","0","el08lf21","1","19","1","1","3","1","null","","","<img src = 'targets/34.png' width = '100%;'>","null","","","","","","","","","",""
"","html-keyboard-response","117","565393","0.0-8.0-3.6","y4uzcdnwnk","one_one","1","indirect_first","0","el08lf21","1","19","1","1","3","1","1313","","","<img src = 'targets/mask.png' width = '100%;'>","75","pos","GS","GSold","3","category3/CS7.png","targets/34.png","1","indirect","6",""
"","html-keyboard-response","118","566918","0.0-8.0-0.7","y4uzcdnwnk","one_one","1","indirect_first","0","el08lf21","1","19","1","1","3","1","null","","","<div style=""font-size:60px;"">+</div>","null","","","","","","","","","",""
"","html-keyboard-response","119","567019","0.0-8.0-1.7","y4uzcdnwnk","one_one","1","indirect_first","0","el08lf21","1","19","1","1","3","1","null","","","<img src = 'category3/CS9.png' width = '100%;'>","null","","","","","","","","","",""
"","html-keyboard-response","120","567298","0.0-8.0-2.7","y4uzcdnwnk","one_one","1","indirect_first","0","el08lf21","1","19","1","1","3","1","null","","","<img src = 'targets/38.png' width = '100%;'>","null","","","","","","","","","",""
"","html-keyboard-response","121","568825","0.0-8.0-3.7","y4uzcdnwnk","one_one","1","indirect_first","0","el08lf21","1","19","1","1","3","1","1526","","","<img src = 'targets/mask.png' width = '100%;'>","68","pos","GS","GSold","3","category3/CS9.png","targets/38.png","0","indirect","7",""
"","html-keyboard-response","122","570338","0.0-8.0-0.8","y4uzcdnwnk","one_one","1","indirect_first","0","el08lf21","1","19","1","1","3","1","null","","","<div style=""font-size:60px;"">+</div>","null","","","","","","","","","",""
"","html-keyboard-response","123","570439","0.0-8.0-1.8","y4uzcdnwnk","one_one","1","indirect_first","0","el08lf21","1","19","1","1","3","1","null","","","<img src = 'category4/CS3.png' width = '100%;'>","null","","","","","","","","","",""
"","html-keyboard-response","124","570719","0.0-8.0-2.8","y4uzcdnwnk","one_one","1","indirect_first","0","el08lf21","1","19","1","1","3","1","null","","","<img src = 'targets/37.png' width = '100%;'>","null","","","","","","","","","",""
"","html-keyboard-response","125","571369","0.0-8.0-3.8","y4uzcdnwnk","one_one","1","indirect_first","0","el08lf21","1","19","1","1","3","1","650","","","<img src = 'targets/mask.png' width = '100%;'>","75","pos","CS","CS","4","category4/CS3.png","targets/37.png","1","indirect","8",""
"","html-keyboard-response","126","572899","0.0-8.0-0.9","y4uzcdnwnk","one_one","1","indirect_first","0","el08lf21","1","19","1","1","3","1","null","","","<div style=""font-size:60px;"">+</div>","null","","","","","","","","","",""
"","html-keyboard-response","127","572999","0.0-8.0-1.9","y4uzcdnwnk","one_one","1","indirect_first","0","el08lf21","1","19","1","1","3","1","null","","","<img src = 'category1/CS3.png' width = '100%;'>","null","","","","","","","","","",""
"","html-keyboard-response","128","573279","0.0-8.0-2.9","y4uzcdnwnk","one_one","1","indirect_first","0","el08lf21","1","19","1","1","3","1","null","","","<img src = 'targets/6.png' width = '100%;'>","null","","","","","","","","","",""
"","html-keyboard-response","129","574250","0.0-8.0-3.9","y4uzcdnwnk","one_one","1","indirect_first","0","el08lf21","1","19","1","1","3","1","969","","","<img src = 'targets/mask.png' width = '100%;'>","75","neg","CS","CS","1","category1/CS3.png","targets/6.png","1","indirect","9",""
"","html-keyboard-response","130","575778","0.0-8.0-0.10","y4uzcdnwnk","one_one","1","indirect_first","0","el08lf21","1","19","1","1","3","1","null","","","<div style=""font-size:60px;"">+</div>","null","","","","","","","","","",""
"","html-keyboard-response","131","575878","0.0-8.0-1.10","y4uzcdnwnk","one_one","1","indirect_first","0","el08lf21","1","19","1","1","3","1","null","","","<img src = 'category1/CS1.png' width = '100%;'>","null","","","","","","","","","",""
"","html-keyboard-response","132","576159","0.0-8.0-2.10","y4uzcdnwnk","one_one","1","indirect_first","0","el08lf21","1","19","1","1","3","1","null","","","<img src = 'targets/25.png' width = '100%;'>","null","","","","","","","","","",""
"","html-keyboard-response","133","576746","0.0-8.0-3.10","y4uzcdnwnk","one_one","1","indirect_first","0","el08lf21","1","19","1","1","3","1","586","","","<img src = 'targets/mask.png' width = '100%;'>","68","neg","GS","GSold","1","category1/CS1.png","targets/25.png","0","indirect","10",""
"","html-keyboard-response","134","578268","0.0-8.0-0.11","y4uzcdnwnk","one_one","1","indirect_first","0","el08lf21","1","19","1","1","3","1","null","","","<div style=""font-size:60px;"">+</div>","null","","","","","","","","","",""
"","html-keyboard-response","135","578368","0.0-8.0-1.11","y4uzcdnwnk","one_one","1","indirect_first","0","el08lf21","1","19","1","1","3","1","null","","","<img src = 'category2/CS9.png' width = '100%;'>","null","","","","","","","","","",""
"","html-keyboard-response","136","578649","0.0-8.0-2.11","y4uzcdnwnk","one_one","1","indirect_first","0","el08lf21","1","19","1","1","3","1","null","","","<img src = 'targets/46.png' width = '100%;'>","null","","","","","","","","","",""
"","html-keyboard-response","137","579217","0.0-8.0-3.11","y4uzcdnwnk","one_one","1","indirect_first","0","el08lf21","1","19","1","1","3","1","568","","","<img src = 'targets/mask.png' width = '100%;'>","75","neg","GS","GSold","2","category2/CS9.png","targets/46.png","1","indirect","11",""
"","html-keyboard-response","138","580748","0.0-8.0-0.12","y4uzcdnwnk","one_one","1","indirect_first","0","el08lf21","1","19","1","1","3","1","null","","","<div style=""font-size:60px;"">+</div>","null","","","","","","","","","",""
"","html-keyboard-response","139","580849","0.0-8.0-1.12","y4uzcdnwnk","one_one","1","indirect_first","0","el08lf21","1","19","1","1","3","1","null","","","<img src = 'category4/CS2.png' width = '100%;'>","null","","","","","","","","","",""
"","html-keyboard-response","140","581128","0.0-8.0-2.12","y4uzcdnwnk","one_one","1","indirect_first","0","el08lf21","1","19","1","1","3","1","null","","","<img src = 'targets/39.png' width = '100%;'>","null","","","","","","","","","",""
"","html-keyboard-response","141","582058","0.0-8.0-3.12","y4uzcdnwnk","one_one","1","indirect_first","0","el08lf21","1","19","1","1","3","1","928","","","<img src = 'targets/mask.png' width = '100%;'>","75","pos","GS","GSold","4","category4/CS2.png","targets/39.png","1","indirect","12",""
"","html-keyboard-response","142","583559","0.0-8.0-0.13","y4uzcdnwnk","one_one","1","indirect_first","0","el08lf21","1","19","1","1","3","1","null","","","<div style=""font-size:60px;"">+</div>","null","","","","","","","","","",""
"","html-keyboard-response","143","583659","0.0-8.0-1.13","y4uzcdnwnk","one_one","1","indirect_first","0","el08lf21","1","19","1","1","3","1","null","","","<img src = 'category4/CS9.png' width = '100%;'>","null","","","","","","","","","",""
"","html-keyboard-response","144","583938","0.0-8.0-2.13","y4uzcdnwnk","one_one","1","indirect_first","0","el08lf21","1","19","1","1","3","1","null","","","<img src = 'targets/32.png' width = '100%;'>","null","","","","","","","","","",""
"","html-keyboard-response","145","584410","0.0-8.0-3.13","y4uzcdnwnk","one_one","1","indirect_first","0","el08lf21","1","19","1","1","3","1","471","","","<img src = 'targets/mask.png' width = '100%;'>","68","pos","GS","GSold","4","category4/CS9.png","targets/32.png","0","indirect","13",""
"","html-keyboard-response","146","585938","0.0-8.0-0.14","y4uzcdnwnk","one_one","1","indirect_first","0","el08lf21","1","19","1","1","3","1","null","","","<div style=""font-size:60px;"">+</div>","null","","","","","","","","","",""
"","html-keyboard-response","147","586039","0.0-8.0-1.14","y4uzcdnwnk","one_one","1","indirect_first","0","el08lf21","1","19","1","1","3","1","null","","","<img src = 'category3/CS2.png' width = '100%;'>","null","","","","","","","","","",""
"","html-keyboard-response","148","586318","0.0-8.0-2.14","y4uzcdnwnk","one_one","1","indirect_first","0","el08lf21","1","19","1","1","3","1","null","","","<img src = 'targets/35.png' width = '100%;'>","null","","","","","","","","","",""
"","html-keyboard-response","149","586762","0.0-8.0-3.14","y4uzcdnwnk","one_one","1","indirect_first","0","el08lf21","1","19","1","1","3","1","441","","","<img src = 'targets/mask.png' width = '100%;'>","68","pos","GS","GSold","3","category3/CS2.png","targets/35.png","0","indirect","14",""
"","html-keyboard-response","150","588294","0.0-8.0-0.15","y4uzcdnwnk","one_one","1","indirect_first","0","el08lf21","1","19","1","1","3","1","null","","","<div style=""font-size:60px;"">+</div>","null","","","","","","","","","",""
"","html-keyboard-response","151","588394","0.0-8.0-1.15","y4uzcdnwnk","one_one","1","indirect_first","0","el08lf21","1","19","1","1","3","1","null","","","<img src = 'category2/CS4.png' width = '100%;'>","null","","","","","","","","","",""
"","html-keyboard-response","152","588679","0.0-8.0-2.15","y4uzcdnwnk","one_one","1","indirect_first","0","el08lf21","1","19","1","1","3","1","null","","","<img src = 'targets/13.png' width = '100%;'>","null","","","","","","","","","",""
"","html-keyboard-response","153","589161","0.0-8.0-3.15","y4uzcdnwnk","one_one","1","indirect_first","0","el08lf21","1","19","1","1","3","1","482","","","<img src = 'targets/mask.png' width = '100%;'>","75","neg","CS","CS","2","category2/CS4.png","targets/13.png","1","indirect","15",""
"","survey-html-form","154","595329","0.0-9.0","y4uzcdnwnk","one_one","1","indirect_first","0","el08lf21","1","19","1","1","3","1","5649","","{}","","","","","","","","","","","",""
"","html-keyboard-response","155","598359","0.0-10.0-0.0","y4uzcdnwnk","one_one","1","indirect_first","0","el08lf21","1","19","1","1","3","1","null","","","<div style=""font-size:60px;"">+</div>","null","","","","","","","","","",""
"","html-keyboard-response","156","598459","0.0-10.0-1.0","y4uzcdnwnk","one_one","1","indirect_first","0","el08lf21","1","19","1","1","3","1","null","","","<img src = 'category1/GS1.png' width = '100%;'>","null","","","","","","","","","",""
"","html-keyboard-response","157","598739","0.0-10.0-2.0","y4uzcdnwnk","one_one","1","indirect_first","0","el08lf21","1","19","1","1","3","1","null","","","<img src = 'targets/41.png' width = '100%;'>","null","","","","","","","","","",""
"","html-keyboard-response","158","599569","0.0-10.0-3.0","y4uzcdnwnk","one_one","1","indirect_first","0","el08lf21","1","19","1","1","3","1","829","","","<img src = 'targets/mask.png' width = '100%;'>","75","neg","GS","GSnew","1","category1/GS1.png","targets/41.png","1","indirect","16",""
"","html-keyboard-response","159","601098","0.0-10.0-0.1","y4uzcdnwnk","one_one","1","indirect_first","0","el08lf21","1","19","1","1","3","1","null","","","<div style=""font-size:60px;"">+</div>","null","","","","","","","","","",""
"","html-keyboard-response","160","601198","0.0-10.0-1.1","y4uzcdnwnk","one_one","1","indirect_first","0","el08lf21","1","19","1","1","3","1","null","","","<img src = 'category4/GS3.png' width = '100%;'>","null","","","","","","","","","",""
"","html-keyboard-response","161","601478","0.0-10.0-2.1","y4uzcdnwnk","one_one","1","indirect_first","0","el08lf21","1","19","1","1","3","1","null","","","<img src = 'targets/10.png' width = '100%;'>","null","","","","","","","","","",""
"","html-keyboard-response","162","602137","0.0-10.0-3.1","y4uzcdnwnk","one_one","1","indirect_first","0","el08lf21","1","19","1","1","3","1","658","","","<img src = 'targets/mask.png' width = '100%;'>","75","pos","GS","GSnew","4","category4/GS3.png","targets/10.png","1","indirect","17",""
"","html-keyboard-response","163","603649","0.0-10.0-0.2","y4uzcdnwnk","one_one","1","indirect_first","0","el08lf21","1","19","1","1","3","1","null","","","<div style=""font-size:60px;"">+</div>","null","","","","","","","","","",""
"","html-keyboard-response","164","603748","0.0-10.0-1.2","y4uzcdnwnk","one_one","1","indirect_first","0","el08lf21","1","19","1","1","3","1","null","","","<img src = 'category2/GS1.png' width = '100%;'>","null","","","","","","","","","",""
"","html-keyboard-response","165","604028","0.0-10.0-2.2","y4uzcdnwnk","one_one","1","indirect_first","0","el08lf21","1","19","1","1","3","1","null","","","<img src = 'targets/16.png' width = '100%;'>","null","","","","","","","","","",""
"","html-keyboard-response","166","604305","0.0-10.0-3.2","y4uzcdnwnk","one_one","1","indirect_first","0","el08lf21","1","19","1","1","3","1","276","","","<img src = 'targets/mask.png' width = '100%;'>","68","neg","GS","GSnew","2","category2/GS1.png","targets/16.png","0","indirect","18",""
"","html-keyboard-response","167","605829","0.0-10.0-0.3","y4uzcdnwnk","one_one","1","indirect_first","0","el08lf21","1","19","1","1","3","1","null","","","<div style=""font-size:60px;"">+</div>","null","","","","","","","","","",""
"","html-keyboard-response","168","605929","0.0-10.0-1.3","y4uzcdnwnk","one_one","1","indirect_first","0","el08lf21","1","19","1","1","3","1","null","","","<img src = 'category1/GS3.png' width = '100%;'>","null","","","","","","","","","",""
"","html-keyboard-response","169","606208","0.0-10.0-2.3","y4uzcdnwnk","one_one","1","indirect_first","0","el08lf21","1","19","1","1","3","1","null","","","<img src = 'targets/42.png' width = '100%;'>","null","","","","","","","","","",""
"","html-keyboard-response","170","606417","0.0-10.0-3.3","y4uzcdnwnk","one_one","1","indirect_first","0","el08lf21","1","19","1","1","3","1","207","","","<img src = 'targets/mask.png' width = '100%;'>","75","neg","GS","GSnew","1","category1/GS3.png","targets/42.png","1","indirect","19",""
"","html-keyboard-response","171","607944","0.0-10.0-0.4","y4uzcdnwnk","one_one","1","indirect_first","0","el08lf21","1","19","1","1","3","1","null","","","<div style=""font-size:60px;"">+</div>","null","","","","","","","","","",""
"","html-keyboard-response","172","608043","0.0-10.0-1.4","y4uzcdnwnk","one_one","1","indirect_first","0","el08lf21","1","19","1","1","3","1","null","","","<img src = 'category2/GS3.png' width = '100%;'>","null","","","","","","","","","",""
"","html-keyboard-response","173","608328","0.0-10.0-2.4","y4uzcdnwnk","one_one","1","indirect_first","0","el08lf21","1","19","1","1","3","1","null","","","<img src = 'targets/14.png' width = '100%;'>","null","","","","","","","","","",""
"","html-keyboard-response","174","608449","0.0-10.0-3.4","y4uzcdnwnk","one_one","1","indirect_first","0","el08lf21","1","19","1","1","3","1","120","","","<img src = 'targets/mask.png' width = '100%;'>","68","neg","GS","GSnew","2","category2/GS3.png","targets/14.png","0","indirect","20",""
"","html-keyboard-response","175","609978","0.0-10.0-0.5","y4uzcdnwnk","one_one","1","indirect_first","0","el08lf21","1","19","1","1","3","1","null","","","<div style=""font-size:60px;"">+</div>","null","","","","","","","","","",""
"","html-keyboard-response","176","610078","0.0-10.0-1.5","y4uzcdnwnk","one_one","1","indirect_first","0","el08lf21","1","19","1","1","3","1","null","","","<img src = 'category3/GS2.png' width = '100%;'>","null","","","","","","","","","",""
"","html-keyboard-response","177","610358","0.0-10.0-2.5","y4uzcdnwnk","one_one","1","indirect_first","0","el08lf21","1","19","1","1","3","1","null","","","<img src = 'targets/47.png' width = '100%;'>","null","","","","","","","","","",""
"","html-keyboard-response","178","610521","0.0-10.0-3.5","y4uzcdnwnk","one_one","1","indirect_first","0","el08lf21","1","19","1","1","3","1","160","","","<img src = 'targets/mask.png' width = '100%;'>","68","pos","GS","GSnew","3","category3/GS2.png","targets/47.png","0","indirect","21",""
"","html-keyboard-response","179","612053","0.0-10.0-0.6","y4uzcdnwnk","one_one","1","indirect_first","0","el08lf21","1","19","1","1","3","1","null","","","<div style=""font-size:60px;"">+</div>","null","","","","","","","","","",""
"","html-keyboard-response","180","612154","0.0-10.0-1.6","y4uzcdnwnk","one_one","1","indirect_first","0","el08lf21","1","19","1","1","3","1","null","","","<img src = 'category1/GS2.png' width = '100%;'>","null","","","","","","","","","",""
"","html-keyboard-response","181","612439","0.0-10.0-2.6","y4uzcdnwnk","one_one","1","indirect_first","0","el08lf21","1","19","1","1","3","1","null","","","<img src = 'targets/36.png' width = '100%;'>","null","","","","","","","","","",""
"","html-keyboard-response","182","612481","0.0-10.0-3.6","y4uzcdnwnk","one_one","1","indirect_first","0","el08lf21","1","19","1","1","3","1","41","","","<img src = 'targets/mask.png' width = '100%;'>","75","neg","GS","GSnew","1","category1/GS2.png","targets/36.png","1","indirect","22",""
"","html-keyboard-response","183","614008","0.0-10.0-0.7","y4uzcdnwnk","one_one","1","indirect_first","0","el08lf21","1","19","1","1","3","1","null","","","<div style=""font-size:60px;"">+</div>","null","","","","","","","","","",""
"","html-keyboard-response","184","614108","0.0-10.0-1.7","y4uzcdnwnk","one_one","1","indirect_first","0","el08lf21","1","19","1","1","3","1","null","","","<img src = 'category3/GS3.png' width = '100%;'>","null","","","","","","","","","",""
"","html-keyboard-response","185","614388","0.0-10.0-2.7","y4uzcdnwnk","one_one","1","indirect_first","0","el08lf21","1","19","1","1","3","1","null","","","<img src = 'targets/5.png' width = '100%;'>","null","","","","","","","","","",""
"","html-keyboard-response","186","614473","0.0-10.0-3.7","y4uzcdnwnk","one_one","1","indirect_first","0","el08lf21","1","19","1","1","3","1","83","","","<img src = 'targets/mask.png' width = '100%;'>","75","pos","GS","GSnew","3","category3/GS3.png","targets/5.png","1","indirect","23",""
"","html-keyboard-response","187","616008","0.0-10.0-0.8","y4uzcdnwnk","one_one","1","indirect_first","0","el08lf21","1","19","1","1","3","1","null","","","<div style=""font-size:60px;"">+</div>","null","","","","","","","","","",""
"","html-keyboard-response","188","616108","0.0-10.0-1.8","y4uzcdnwnk","one_one","1","indirect_first","0","el08lf21","1","19","1","1","3","1","null","","","<img src = 'category4/GS1.png' width = '100%;'>","null","","","","","","","","","",""
"","html-keyboard-response","189","616388","0.0-10.0-2.8","y4uzcdnwnk","one_one","1","indirect_first","0","el08lf21","1","19","1","1","3","1","null","","","<img src = 'targets/40.png' width = '100%;'>","null","","","","","","","","","",""
"","html-keyboard-response","190","616729","0.0-10.0-3.8","y4uzcdnwnk","one_one","1","indirect_first","0","el08lf21","1","19","1","1","3","1","339","","","<img src = 'targets/mask.png' width = '100%;'>","75","pos","GS","GSnew","4","category4/GS1.png","targets/40.png","1","indirect","24",""
"","html-keyboard-response","191","618248","0.0-10.0-0.9","y4uzcdnwnk","one_one","1","indirect_first","0","el08lf21","1","19","1","1","3","1","null","","","<div style=""font-size:60px;"">+</div>","null","","","","","","","","","",""
"","html-keyboard-response","192","618342","0.0-10.0-1.9","y4uzcdnwnk","one_one","1","indirect_first","0","el08lf21","1","19","1","1","3","1","null","","","<img src = 'category1/ma.png' width = '100%;'>","null","","","","","","","","","",""
"","html-keyboard-response","193","618593","0.0-10.0-2.9","y4uzcdnwnk","one_one","1","indirect_first","0","el08lf21","1","19","1","1","3","1","null","","","<img src = 'targets/17.png' width = '100%;'>","null","","","","","","","","","",""
"","html-keyboard-response","194","619145","0.0-10.0-3.9","y4uzcdnwnk","one_one","1","indirect_first","0","el08lf21","1","19","1","1","3","1","552","","","<img src = 'targets/mask.png' width = '100%;'>","75","neg","GS","abstract","1","category1/ma.png","targets/17.png","1","indirect","25",""
"","html-keyboard-response","195","620667","0.0-10.0-0.10","y4uzcdnwnk","one_one","1","indirect_first","0","el08lf21","1","19","1","1","3","1","null","","","<div style=""font-size:60px;"">+</div>","null","","","","","","","","","",""
"","html-keyboard-response","196","620768","0.0-10.0-1.10","y4uzcdnwnk","one_one","1","indirect_first","0","el08lf21","1","19","1","1","3","1","null","","","<img src = 'category4/lin.png' width = '100%;'>","null","","","","","","","","","",""
"","html-keyboard-response","197","621039","0.0-10.0-2.10","y4uzcdnwnk","one_one","1","indirect_first","0","el08lf21","1","19","1","1","3","1","null","","","<img src = 'targets/18.png' width = '100%;'>","null","","","","","","","","","",""
"","html-keyboard-response","198","621481","0.0-10.0-3.10","y4uzcdnwnk","one_one","1","indirect_first","0","el08lf21","1","19","1","1","3","1","442","","","<img src = 'targets/mask.png' width = '100%;'>","75","pos","GS","abstract","4","category4/lin.png","targets/18.png","1","indirect","26",""
"","html-keyboard-response","199","622999","0.0-10.0-0.11","y4uzcdnwnk","one_one","1","indirect_first","0","el08lf21","1","19","1","1","3","1","null","","","<div style=""font-size:60px;"">+</div>","null","","","","","","","","","",""
"","html-keyboard-response","200","623098","0.0-10.0-1.11","y4uzcdnwnk","one_one","1","indirect_first","0","el08lf21","1","19","1","1","3","1","null","","","<img src = 'category4/GS2.png' width = '100%;'>","null","","","","","","","","","",""
"","html-keyboard-response","201","623378","0.0-10.0-2.11","y4uzcdnwnk","one_one","1","indirect_first","0","el08lf21","1","19","1","1","3","1","null","","","<img src = 'targets/9.png' width = '100%;'>","null","","","","","","","","","",""
"","html-keyboard-response","202","623545","0.0-10.0-3.11","y4uzcdnwnk","one_one","1","indirect_first","0","el08lf21","1","19","1","1","3","1","166","","","<img src = 'targets/mask.png' width = '100%;'>","68","pos","GS","GSnew","4","category4/GS2.png","targets/9.png","0","indirect","27",""
"","html-keyboard-response","203","625058","0.0-10.0-0.12","y4uzcdnwnk","one_one","1","indirect_first","0","el08lf21","1","19","1","1","3","1","null","","","<div style=""font-size:60px;"">+</div>","null","","","","","","","","","",""
"","html-keyboard-response","204","625158","0.0-10.0-1.12","y4uzcdnwnk","one_one","1","indirect_first","0","el08lf21","1","19","1","1","3","1","null","","","<img src = 'category3/GS1.png' width = '100%;'>","null","","","","","","","","","",""
"","html-keyboard-response","205","625439","0.0-10.0-2.12","y4uzcdnwnk","one_one","1","indirect_first","0","el08lf21","1","19","1","1","3","1","null","","","<img src = 'targets/22.png' width = '100%;'>","null","","","","","","","","","",""
"","html-keyboard-response","206","625626","0.0-10.0-3.12","y4uzcdnwnk","one_one","1","indirect_first","0","el08lf21","1","19","1","1","3","1","186","","","<img src = 'targets/mask.png' width = '100%;'>","68","pos","GS","GSnew","3","category3/GS1.png","targets/22.png","0","indirect","28",""
"","html-keyboard-response","207","627138","0.0-10.0-0.13","y4uzcdnwnk","one_one","1","indirect_first","0","el08lf21","1","19","1","1","3","1","null","","","<div style=""font-size:60px;"">+</div>","null","","","","","","","","","",""
"","html-keyboard-response","208","627239","0.0-10.0-1.13","y4uzcdnwnk","one_one","1","indirect_first","0","el08lf21","1","19","1","1","3","1","null","","","<img src = 'category3/wang.png' width = '100%;'>","null","","","","","","","","","",""
"","html-keyboard-response","209","627518","0.0-10.0-2.13","y4uzcdnwnk","one_one","1","indirect_first","0","el08lf21","1","19","1","1","3","1","null","","","<img src = 'targets/44.png' width = '100%;'>","null","","","","","","","","","",""
"","html-keyboard-response","210","627721","0.0-10.0-3.13","y4uzcdnwnk","one_one","1","indirect_first","0","el08lf21","1","19","1","1","3","1","201","","","<img src = 'targets/mask.png' width = '100%;'>","68","pos","GS","abstract","3","category3/wang.png","targets/44.png","0","indirect","29",""
"","html-keyboard-response","211","629239","0.0-10.0-0.14","y4uzcdnwnk","one_one","1","indirect_first","0","el08lf21","1","19","1","1","3","1","null","","","<div style=""font-size:60px;"">+</div>","null","","","","","","","","","",""
"","html-keyboard-response","212","629338","0.0-10.0-1.14","y4uzcdnwnk","one_one","1","indirect_first","0","el08lf21","1","19","1","1","3","1","null","","","<img src = 'category2/GS2.png' width = '100%;'>","null","","","","","","","","","",""
"","html-keyboard-response","213","629619","0.0-10.0-2.14","y4uzcdnwnk","one_one","1","indirect_first","0","el08lf21","1","19","1","1","3","1","null","","","<img src = 'targets/4.png' width = '100%;'>","null","","","","","","","","","",""
"","html-keyboard-response","214","630033","0.0-10.0-3.14","y4uzcdnwnk","one_one","1","indirect_first","0","el08lf21","1","19","1","1","3","1","413","","","<img src = 'targets/mask.png' width = '100%;'>","68","neg","GS","GSnew","2","category2/GS2.png","targets/4.png","0","indirect","30",""
"","html-keyboard-response","215","631538","0.0-10.0-0.15","y4uzcdnwnk","one_one","1","indirect_first","0","el08lf21","1","19","1","1","3","1","null","","","<div style=""font-size:60px;"">+</div>","null","","","","","","","","","",""
"","html-keyboard-response","216","631638","0.0-10.0-1.15","y4uzcdnwnk","one_one","1","indirect_first","0","el08lf21","1","19","1","1","3","1","null","","","<img src = 'category2/men.png' width = '100%;'>","null","","","","","","","","","",""
"","html-keyboard-response","217","631918","0.0-10.0-2.15","y4uzcdnwnk","one_one","1","indirect_first","0","el08lf21","1","19","1","1","3","1","null","","","<img src = 'targets/20.png' width = '100%;'>","null","","","","","","","","","",""
"","html-keyboard-response","218","632081","0.0-10.0-3.15","y4uzcdnwnk","one_one","1","indirect_first","0","el08lf21","1","19","1","1","3","1","161","","","<img src = 'targets/mask.png' width = '100%;'>","75","neg","GS","abstract","2","category2/men.png","targets/20.png","1","indirect","31",""
"","survey-html-form","219","643016","0.0-11.0","y4uzcdnwnk","one_one","1","indirect_first","0","el08lf21","1","19","1","1","3","1","10418","","{}","","","","","","","","","","","",""
"","image-slider-response","220","649248","0.0-12.0-0.0","y4uzcdnwnk","one_one","1","indirect_first","0","el08lf21","1","19","1","1","3","1","4225","","","","","neg","GS","GSold","2","category2/CS8.png","targets/12.png","","direct","","-61"
"","image-slider-response","221","652208","0.0-12.0-0.1","y4uzcdnwnk","one_one","1","indirect_first","0","el08lf21","1","19","1","1","3","1","2958","","","","","pos","CS","CS","4","category4/CS3.png","targets/37.png","","direct","","37"
"","image-slider-response","222","654880","0.0-12.0-0.2","y4uzcdnwnk","one_one","1","indirect_first","0","el08lf21","1","19","1","1","3","1","2670","","","","","pos","GS","GSnew","3","category3/GS3.png","targets/5.png","","direct","","-16"
"","image-slider-response","223","658392","0.0-12.0-0.3","y4uzcdnwnk","one_one","1","indirect_first","0","el08lf21","1","19","1","1","3","1","3512","","","","","pos","GS","GSold","3","category3/CS2.png","targets/35.png","","direct","","-38"
"","image-slider-response","224","660864","0.0-12.0-0.4","y4uzcdnwnk","one_one","1","indirect_first","0","el08lf21","1","19","1","1","3","1","2470","","","","","neg","GS","abstract","2","category2/men.png","targets/20.png","","direct","","30"
"","image-slider-response","225","663040","0.0-12.0-0.5","y4uzcdnwnk","one_one","1","indirect_first","0","el08lf21","1","19","1","1","3","1","2175","","","","","pos","GS","GSold","4","category4/CS9.png","targets/32.png","","direct","","67"
"","image-slider-response","226","665496","0.0-12.0-0.6","y4uzcdnwnk","one_one","1","indirect_first","0","el08lf21","1","19","1","1","3","1","2455","","","","","neg","GS","GSold","2","category2/CS7.png","targets/7.png","","direct","","-52"
"","image-slider-response","227","668519","0.0-12.0-0.7","y4uzcdnwnk","one_one","1","indirect_first","0","el08lf21","1","19","1","1","3","1","3023","","","","","pos","GS","GSnew","3","category3/GS2.png","targets/47.png","","direct","","-100"
"","image-slider-response","228","670896","0.0-12.0-0.8","y4uzcdnwnk","one_one","1","indirect_first","0","el08lf21","1","19","1","1","3","1","2374","","","","","neg","GS","GSold","2","category2/CS9.png","targets/46.png","","direct","","-36"
"","image-slider-response","229","673864","0.0-12.0-0.9","y4uzcdnwnk","one_one","1","indirect_first","0","el08lf21","1","19","1","1","3","1","2967","","","","","neg","GS","GSold","1","category1/CS10.png","targets/43.png","","direct","","-60"
"","image-slider-response","230","676272","0.0-12.0-0.10","y4uzcdnwnk","one_one","1","indirect_first","0","el08lf21","1","19","1","1","3","1","2406","","","","","neg","GS","GSnew","2","category2/GS2.png","targets/4.png","","direct","","-15"
"","image-slider-response","231","677936","0.0-12.0-0.11","y4uzcdnwnk","one_one","1","indirect_first","0","el08lf21","1","19","1","1","3","1","1663","","","","","pos","GS","abstract","3","category3/wang.png","targets/44.png","","direct","","-21"
"","image-slider-response","232","681272","0.0-12.0-0.12","y4uzcdnwnk","one_one","1","indirect_first","0","el08lf21","1","19","1","1","3","1","3335","","","","","neg","GS","GSold","1","category1/CS1.png","targets/25.png","","direct","","18"
"","image-slider-response","233","682679","0.0-12.0-0.13","y4uzcdnwnk","one_one","1","indirect_first","0","el08lf21","1","19","1","1","3","1","1406","","","","","neg","GS","abstract","1","category1/ma.png","targets/17.png","","direct","","18"
"","image-slider-response","234","684992","0.0-12.0-0.14","y4uzcdnwnk","one_one","1","indirect_first","0","el08lf21","1","19","1","1","3","1","2310","","","","","pos","GS","GSnew","4","category4/GS3.png","targets/10.png","","direct","","53"
"","image-slider-response","235","687424","0.0-12.0-0.15","y4uzcdnwnk","one_one","1","indirect_first","0","el08lf21","1","19","1","1","3","1","2430","","","","","neg","GS","GSnew","2","category2/GS3.png","targets/14.png","","direct","","28"
"","image-slider-response","236","689832","0.0-12.0-0.16","y4uzcdnwnk","one_one","1","indirect_first","0","el08lf21","1","19","1","1","3","1","2407","","","","","neg","GS","GSnew","1","category1/GS2.png","targets/36.png","","direct","","15"
"","image-slider-response","237","695200","0.0-12.0-0.17","y4uzcdnwnk","one_one","1","indirect_first","0","el08lf21","1","19","1","1","3","1","5367","","","","","pos","CS","CS","3","category3/CS10.png","targets/48.png","","direct","","-14"
"","image-slider-response","238","698608","0.0-12.0-0.18","y4uzcdnwnk","one_one","1","indirect_first","0","el08lf21","1","19","1","1","3","1","3407","","","","","pos","GS","GSold","4","category4/CS2.png","targets/39.png","","direct","","21"
"","image-slider-response","239","700528","0.0-12.0-0.19","y4uzcdnwnk","one_one","1","indirect_first","0","el08lf21","1","19","1","1","3","1","1919","","","","","pos","GS","GSnew","3","category3/GS1.png","targets/22.png","","direct","","-39"
"","image-slider-response","240","703264","0.0-12.0-0.20","y4uzcdnwnk","one_one","1","indirect_first","0","el08lf21","1","19","1","1","3","1","2735","","","","","neg","GS","GSnew","1","category1/GS1.png","targets/41.png","","direct","","13"
"","image-slider-response","241","705704","0.0-12.0-0.21","y4uzcdnwnk","one_one","1","indirect_first","0","el08lf21","1","19","1","1","3","1","2438","","","","","pos","GS","GSold","3","category3/CS7.png","targets/34.png","","direct","","8"
"","image-slider-response","242","707216","0.0-12.0-0.22","y4uzcdnwnk","one_one","1","indirect_first","0","el08lf21","1","19","1","1","3","1","1511","","","","","pos","GS","GSold","3","category3/CS9.png","targets/38.png","","direct","","-59"
"","image-slider-response","243","709912","0.0-12.0-0.23","y4uzcdnwnk","one_one","1","indirect_first","0","el08lf21","1","19","1","1","3","1","2694","","","","","neg","CS","CS","2","category2/CS4.png","targets/13.png","","direct","","-94"
"","image-slider-response","244","713367","0.0-12.0-0.24","y4uzcdnwnk","one_one","1","indirect_first","0","el08lf21","1","19","1","1","3","1","3453","","","","","pos","GS","GSnew","4","category4/GS1.png","targets/40.png","","direct","","99"
"","image-slider-response","245","715791","0.0-12.0-0.25","y4uzcdnwnk","one_one","1","indirect_first","0","el08lf21","1","19","1","1","3","1","2424","","","","","neg","GS","GSold","1","category1/CS5.png","targets/31.png","","direct","","-16"
"","image-slider-response","246","717783","0.0-12.0-0.26","y4uzcdnwnk","one_one","1","indirect_first","0","el08lf21","1","19","1","1","3","1","1991","","","","","pos","GS","GSnew","4","category4/GS2.png","targets/9.png","","direct","","60"
"","image-slider-response","247","720367","0.0-12.0-0.27","y4uzcdnwnk","one_one","1","indirect_first","0","el08lf21","1","19","1","1","3","1","2582","","","","","neg","GS","GSnew","2","category2/GS1.png","targets/16.png","","direct","","-67"
"","image-slider-response","248","722735","0.0-12.0-0.28","y4uzcdnwnk","one_one","1","indirect_first","0","el08lf21","1","19","1","1","3","1","2367","","","","","neg","CS","CS","1","category1/CS3.png","targets/6.png","","direct","","-59"
"","image-slider-response","249","724655","0.0-12.0-0.29","y4uzcdnwnk","one_one","1","indirect_first","0","el08lf21","1","19","1","1","3","1","1919","","","","","neg","GS","GSnew","1","category1/GS3.png","targets/42.png","","direct","","35"
"","image-slider-response","250","726735","0.0-12.0-0.30","y4uzcdnwnk","one_one","1","indirect_first","0","el08lf21","1","19","1","1","3","1","2079","","","","","pos","GS","GSold","4","category4/CS6.png","targets/21.png","","direct","","63"
"","image-slider-response","251","728751","0.0-12.0-0.31","y4uzcdnwnk","one_one","1","indirect_first","0","el08lf21","1","19","1","1","3","1","2014","","","","","pos","GS","abstract","4","category4/lin.png","targets/18.png","","direct","","59"
"","survey-html-form","252","734560","0.0-13.0","y4uzcdnwnk","one_one","1","indirect_first","0","el08lf21","1","19","1","1","3","1","5808","","{}","","","","","","","","","","","",""
"","image-slider-response","253","738103","0.0-14.0-0.0","y4uzcdnwnk","one_one","1","indirect_first","0","el08lf21","1","19","1","1","3","1","2524","","","","","neg","All","all","2","category2/men_all.png","","","all","","-89"
"","image-slider-response","254","740351","0.0-14.0-0.1","y4uzcdnwnk","one_one","1","indirect_first","0","el08lf21","1","19","1","1","3","1","2245","","","","","neg","All","all","1","category1/ma_all.png","","","all","","23"
"","image-slider-response","255","743735","0.0-14.0-0.2","y4uzcdnwnk","one_one","1","indirect_first","0","el08lf21","1","19","1","1","3","1","3381","","","","","pos","All","all","3","category3/wang_all.png","","","all","","-64"
"","image-slider-response","256","746767","0.0-14.0-0.3","y4uzcdnwnk","one_one","1","indirect_first","0","el08lf21","1","19","1","1","3","1","3031","","","","","pos","All","all","4","category4/lin_all.png","","","all","","50"
"","survey-text","257","748928","0.0-15.0","y4uzcdnwnk","one_one","1","indirect_first","0","el08lf21","1","19","1","1","3","1","2159","","{""Q0"":""""}","","","","","","","","","","","",""
