"success","trial_type","trial_index","time_elapsed","internal_node_id","subject","condition","condition_code","measure","measure_code","codeword","gender","age","education","chinese","fach","handedness","rt","url","responses","stimulus","key_press","val","type","type_specific","category","cs_selected","target","indirect","task","nr_pres","response"
"true","fullscreen","0","24423415","0.0-0.0","l8504tsezc","one_one","1","indirect_first","0","er08in24","0","20","1","1","3","1","","","","","","","","","","","","","","",""
"","external-html","1","24780347","0.0-1.0","l8504tsezc","one_one","1","indirect_first","0","er08in24","0","20","1","1","3","1","356825.4700000435","text/information.html","","","","","","","","","","","","",""
"","external-html","2","24790851","0.0-2.0","l8504tsezc","one_one","1","indirect_first","0","er08in24","0","20","1","1","3","1","10385.914999991655","text/consent.html","","","","","","","","","","","","",""
"","survey-html-form","3","24846907","0.0-3.0","l8504tsezc","one_one","1","indirect_first","0","er08in24","0","20","1","1","3","1","56054.38500002399","","{""codeword_enter"":""er08in24""}","","","","","","","","","","","",""
"","survey-html-form","4","24875829","0.0-4.0","l8504tsezc","one_one","1","indirect_first","0","er08in24","0","20","1","1","3","1","28919.074999984354","","{""age"":""20"",""education"":""1"",""subject"":""3"",""gender"":""0"",""handedness"":""1"",""chinese"":""1""}","","","","","","","","","","","",""
"","survey-html-form","5","24915091","0.0-5.0","l8504tsezc","one_one","1","indirect_first","0","er08in24","0","20","1","1","3","1","39259.12000000104","","{}","","","","","","","","","","","",""
"","html-keyboard-response","6","24919096","0.0-6.0-0.0-0.0","l8504tsezc","one_one","1","indirect_first","0","er08in24","0","20","1","1","3","1","null","","","<div class = 'row'><div class = 'column'><img src = 'category4/CS1.png' width = '70%;'></div><div class = 'column'><img src = 'uspos/8080.bmp' width = '100%;'></div></div>","null","pos","CS","CS","4","category4/CS1.png","","","","",""
"","html-keyboard-response","7","24921598","0.0-6.0-0.0-0.1","l8504tsezc","one_one","1","indirect_first","0","er08in24","0","20","1","1","3","1","null","","","<div class = 'row'><div class = 'column'><img src = 'category2/CS2.png' width = '70%;'></div><div class = 'column'><img src = 'usneg/9561.bmp' width = '100%;'></div></div>","null","neg","CS","CS","2","category2/CS2.png","","","","",""
"","html-keyboard-response","8","24924102","0.0-6.0-0.0-0.2","l8504tsezc","one_one","1","indirect_first","0","er08in24","0","20","1","1","3","1","null","","","<div class = 'row'><div class = 'column'><img src = 'category1/CS7.png' width = '70%;'></div><div class = 'column'><img src = 'uspos/1460.bmp' width = '100%;'></div></div>","null","pos","CS","CS","1","category1/CS7.png","","","","",""
"","html-keyboard-response","9","24926605","0.0-6.0-0.0-0.3","l8504tsezc","one_one","1","indirect_first","0","er08in24","0","20","1","1","3","1","null","","","<div class = 'row'><div class = 'column'><img src = 'uspos/8080.bmp' width = '100%;'></div><div class = 'column'><img src = 'category4/CS1.png' width = '70%;'></div></div>","null","pos","CS","CS","4","category4/CS1.png","","","","",""
"","html-keyboard-response","10","24929109","0.0-6.0-0.0-0.4","l8504tsezc","one_one","1","indirect_first","0","er08in24","0","20","1","1","3","1","null","","","<div class = 'row'><div class = 'column'><img src = 'category2/CS2.png' width = '70%;'></div><div class = 'column'><img src = 'usneg/9561.bmp' width = '100%;'></div></div>","null","neg","CS","CS","2","category2/CS2.png","","","","",""
"","html-keyboard-response","11","24931614","0.0-6.0-0.0-0.5","l8504tsezc","one_one","1","indirect_first","0","er08in24","0","20","1","1","3","1","null","","","<div class = 'row'><div class = 'column'><img src = 'usneg/9280.bmp' width = '100%;'></div><div class = 'column'><img src = 'category3/CS4.png' width = '70%;'></div></div>","null","neg","CS","CS","3","category3/CS4.png","","","","",""
"","html-keyboard-response","12","24934119","0.0-6.0-0.0-0.6","l8504tsezc","one_one","1","indirect_first","0","er08in24","0","20","1","1","3","1","null","","","<div class = 'row'><div class = 'column'><img src = 'uspos/1460.bmp' width = '100%;'></div><div class = 'column'><img src = 'category1/CS7.png' width = '70%;'></div></div>","null","pos","CS","CS","1","category1/CS7.png","","","","",""
"","html-keyboard-response","13","24936622","0.0-6.0-0.0-0.7","l8504tsezc","one_one","1","indirect_first","0","er08in24","0","20","1","1","3","1","null","","","<div class = 'row'><div class = 'column'><img src = 'category4/CS1.png' width = '70%;'></div><div class = 'column'><img src = 'uspos/8080.bmp' width = '100%;'></div></div>","null","pos","CS","CS","4","category4/CS1.png","","","","",""
"","html-keyboard-response","14","24939125","0.0-6.0-0.0-0.8","l8504tsezc","one_one","1","indirect_first","0","er08in24","0","20","1","1","3","1","null","","","<div class = 'row'><div class = 'column'><img src = 'category3/CS4.png' width = '70%;'></div><div class = 'column'><img src = 'usneg/9280.bmp' width = '100%;'></div></div>","null","neg","CS","CS","3","category3/CS4.png","","","","",""
"","html-keyboard-response","15","24941627","0.0-6.0-0.0-0.9","l8504tsezc","one_one","1","indirect_first","0","er08in24","0","20","1","1","3","1","null","","","<div class = 'row'><div class = 'column'><img src = 'category2/CS2.png' width = '70%;'></div><div class = 'column'><img src = 'usneg/9561.bmp' width = '100%;'></div></div>","null","neg","CS","CS","2","category2/CS2.png","","","","",""
"","html-keyboard-response","16","24944130","0.0-6.0-0.0-0.10","l8504tsezc","one_one","1","indirect_first","0","er08in24","0","20","1","1","3","1","null","","","<div class = 'row'><div class = 'column'><img src = 'uspos/1460.bmp' width = '100%;'></div><div class = 'column'><img src = 'category1/CS7.png' width = '70%;'></div></div>","null","pos","CS","CS","1","category1/CS7.png","","","","",""
"","html-keyboard-response","17","24946632","0.0-6.0-0.0-0.11","l8504tsezc","one_one","1","indirect_first","0","er08in24","0","20","1","1","3","1","null","","","<div class = 'row'><div class = 'column'><img src = 'category4/CS1.png' width = '70%;'></div><div class = 'column'><img src = 'uspos/8080.bmp' width = '100%;'></div></div>","null","pos","CS","CS","4","category4/CS1.png","","","","",""
"","html-keyboard-response","18","24949136","0.0-6.0-0.0-0.12","l8504tsezc","one_one","1","indirect_first","0","er08in24","0","20","1","1","3","1","null","","","<div class = 'row'><div class = 'column'><img src = 'category2/CS2.png' width = '70%;'></div><div class = 'column'><img src = 'usneg/9561.bmp' width = '100%;'></div></div>","null","neg","CS","CS","2","category2/CS2.png","","","","",""
"","html-keyboard-response","19","24951638","0.0-6.0-0.0-0.13","l8504tsezc","one_one","1","indirect_first","0","er08in24","0","20","1","1","3","1","null","","","<div class = 'row'><div class = 'column'><img src = 'category3/CS4.png' width = '70%;'></div><div class = 'column'><img src = 'usneg/9280.bmp' width = '100%;'></div></div>","null","neg","CS","CS","3","category3/CS4.png","","","","",""
"","html-keyboard-response","20","24954143","0.0-6.0-0.0-0.14","l8504tsezc","one_one","1","indirect_first","0","er08in24","0","20","1","1","3","1","null","","","<div class = 'row'><div class = 'column'><img src = 'category1/CS7.png' width = '70%;'></div><div class = 'column'><img src = 'uspos/1460.bmp' width = '100%;'></div></div>","null","pos","CS","CS","1","category1/CS7.png","","","","",""
"","html-keyboard-response","21","24956646","0.0-6.0-0.0-0.15","l8504tsezc","one_one","1","indirect_first","0","er08in24","0","20","1","1","3","1","null","","","<div class = 'row'><div class = 'column'><img src = 'category3/CS4.png' width = '70%;'></div><div class = 'column'><img src = 'usneg/9280.bmp' width = '100%;'></div></div>","null","neg","CS","CS","3","category3/CS4.png","","","","",""
"","html-keyboard-response","22","24959149","0.0-6.0-0.0-0.16","l8504tsezc","one_one","1","indirect_first","0","er08in24","0","20","1","1","3","1","null","","","<div class = 'row'><div class = 'column'><img src = 'category2/CS2.png' width = '70%;'></div><div class = 'column'><img src = 'usneg/9561.bmp' width = '100%;'></div></div>","null","neg","CS","CS","2","category2/CS2.png","","","","",""
"","html-keyboard-response","23","24961651","0.0-6.0-0.0-0.17","l8504tsezc","one_one","1","indirect_first","0","er08in24","0","20","1","1","3","1","null","","","<div class = 'row'><div class = 'column'><img src = 'category4/CS1.png' width = '70%;'></div><div class = 'column'><img src = 'uspos/8080.bmp' width = '100%;'></div></div>","null","pos","CS","CS","4","category4/CS1.png","","","","",""
"","html-keyboard-response","24","24964154","0.0-6.0-0.0-0.18","l8504tsezc","one_one","1","indirect_first","0","er08in24","0","20","1","1","3","1","null","","","<div class = 'row'><div class = 'column'><img src = 'category1/CS7.png' width = '70%;'></div><div class = 'column'><img src = 'uspos/1460.bmp' width = '100%;'></div></div>","null","pos","CS","CS","1","category1/CS7.png","","","","",""
"","html-keyboard-response","25","24966658","0.0-6.0-0.0-0.19","l8504tsezc","one_one","1","indirect_first","0","er08in24","0","20","1","1","3","1","null","","","<div class = 'row'><div class = 'column'><img src = 'usneg/9280.bmp' width = '100%;'></div><div class = 'column'><img src = 'category3/CS4.png' width = '70%;'></div></div>","null","neg","CS","CS","3","category3/CS4.png","","","","",""
"","survey-html-form","26","24968730","0.0-6.0-1.0","l8504tsezc","one_one","1","indirect_first","0","er08in24","0","20","1","1","3","1","1570.6950000040233","","{}","","","","","","","","","","","",""
"","html-keyboard-response","27","24972733","0.0-6.0-2.0-0.0","l8504tsezc","one_one","1","indirect_first","0","er08in24","0","20","1","1","3","1","null","","","<div class = 'row'><div class = 'column'><img src = 'category1/CS7.png' width = '70%;'></div><div class = 'column'><img src = 'uspos/1460.bmp' width = '100%;'></div></div>","null","pos","CS","CS","1","category1/CS7.png","","","","",""
"","html-keyboard-response","28","24975237","0.0-6.0-2.0-0.1","l8504tsezc","one_one","1","indirect_first","0","er08in24","0","20","1","1","3","1","null","","","<div class = 'row'><div class = 'column'><img src = 'category4/CS1.png' width = '70%;'></div><div class = 'column'><img src = 'uspos/8080.bmp' width = '100%;'></div></div>","null","pos","CS","CS","4","category4/CS1.png","","","","",""
"","html-keyboard-response","29","24977741","0.0-6.0-2.0-0.2","l8504tsezc","one_one","1","indirect_first","0","er08in24","0","20","1","1","3","1","null","","","<div class = 'row'><div class = 'column'><img src = 'category1/CS7.png' width = '70%;'></div><div class = 'column'><img src = 'uspos/1460.bmp' width = '100%;'></div></div>","null","pos","CS","CS","1","category1/CS7.png","","","","",""
"","html-keyboard-response","30","24980243","0.0-6.0-2.0-0.3","l8504tsezc","one_one","1","indirect_first","0","er08in24","0","20","1","1","3","1","null","","","<div class = 'row'><div class = 'column'><img src = 'usneg/9280.bmp' width = '100%;'></div><div class = 'column'><img src = 'category3/CS4.png' width = '70%;'></div></div>","null","neg","CS","CS","3","category3/CS4.png","","","","",""
"","html-keyboard-response","31","24982745","0.0-6.0-2.0-0.4","l8504tsezc","one_one","1","indirect_first","0","er08in24","0","20","1","1","3","1","null","","","<div class = 'row'><div class = 'column'><img src = 'usneg/9561.bmp' width = '100%;'></div><div class = 'column'><img src = 'category2/CS2.png' width = '70%;'></div></div>","null","neg","CS","CS","2","category2/CS2.png","","","","",""
"","html-keyboard-response","32","24985247","0.0-6.0-2.0-0.5","l8504tsezc","one_one","1","indirect_first","0","er08in24","0","20","1","1","3","1","null","","","<div class = 'row'><div class = 'column'><img src = 'category4/CS1.png' width = '70%;'></div><div class = 'column'><img src = 'uspos/8080.bmp' width = '100%;'></div></div>","null","pos","CS","CS","4","category4/CS1.png","","","","",""
"","html-keyboard-response","33","24987750","0.0-6.0-2.0-0.6","l8504tsezc","one_one","1","indirect_first","0","er08in24","0","20","1","1","3","1","null","","","<div class = 'row'><div class = 'column'><img src = 'category2/CS2.png' width = '70%;'></div><div class = 'column'><img src = 'usneg/9561.bmp' width = '100%;'></div></div>","null","neg","CS","CS","2","category2/CS2.png","","","","",""
"","html-keyboard-response","34","24990252","0.0-6.0-2.0-0.7","l8504tsezc","one_one","1","indirect_first","0","er08in24","0","20","1","1","3","1","null","","","<div class = 'row'><div class = 'column'><img src = 'category3/CS4.png' width = '70%;'></div><div class = 'column'><img src = 'usneg/9280.bmp' width = '100%;'></div></div>","null","neg","CS","CS","3","category3/CS4.png","","","","",""
"","html-keyboard-response","35","24992755","0.0-6.0-2.0-0.8","l8504tsezc","one_one","1","indirect_first","0","er08in24","0","20","1","1","3","1","null","","","<div class = 'row'><div class = 'column'><img src = 'usneg/9561.bmp' width = '100%;'></div><div class = 'column'><img src = 'category2/CS2.png' width = '70%;'></div></div>","null","neg","CS","CS","2","category2/CS2.png","","","","",""
"","html-keyboard-response","36","24995258","0.0-6.0-2.0-0.9","l8504tsezc","one_one","1","indirect_first","0","er08in24","0","20","1","1","3","1","null","","","<div class = 'row'><div class = 'column'><img src = 'category4/CS1.png' width = '70%;'></div><div class = 'column'><img src = 'uspos/8080.bmp' width = '100%;'></div></div>","null","pos","CS","CS","4","category4/CS1.png","","","","",""
"","html-keyboard-response","37","24997762","0.0-6.0-2.0-0.10","l8504tsezc","one_one","1","indirect_first","0","er08in24","0","20","1","1","3","1","null","","","<div class = 'row'><div class = 'column'><img src = 'category2/CS2.png' width = '70%;'></div><div class = 'column'><img src = 'usneg/9561.bmp' width = '100%;'></div></div>","null","neg","CS","CS","2","category2/CS2.png","","","","",""
"","html-keyboard-response","38","25000266","0.0-6.0-2.0-0.11","l8504tsezc","one_one","1","indirect_first","0","er08in24","0","20","1","1","3","1","null","","","<div class = 'row'><div class = 'column'><img src = 'usneg/9280.bmp' width = '100%;'></div><div class = 'column'><img src = 'category3/CS4.png' width = '70%;'></div></div>","null","neg","CS","CS","3","category3/CS4.png","","","","",""
"","html-keyboard-response","39","25002768","0.0-6.0-2.0-0.12","l8504tsezc","one_one","1","indirect_first","0","er08in24","0","20","1","1","3","1","null","","","<div class = 'row'><div class = 'column'><img src = 'category1/CS7.png' width = '70%;'></div><div class = 'column'><img src = 'uspos/1460.bmp' width = '100%;'></div></div>","null","pos","CS","CS","1","category1/CS7.png","","","","",""
"","html-keyboard-response","40","25005271","0.0-6.0-2.0-0.13","l8504tsezc","one_one","1","indirect_first","0","er08in24","0","20","1","1","3","1","null","","","<div class = 'row'><div class = 'column'><img src = 'usneg/9280.bmp' width = '100%;'></div><div class = 'column'><img src = 'category3/CS4.png' width = '70%;'></div></div>","null","neg","CS","CS","3","category3/CS4.png","","","","",""
"","html-keyboard-response","41","25007773","0.0-6.0-2.0-0.14","l8504tsezc","one_one","1","indirect_first","0","er08in24","0","20","1","1","3","1","null","","","<div class = 'row'><div class = 'column'><img src = 'category1/CS7.png' width = '70%;'></div><div class = 'column'><img src = 'uspos/1460.bmp' width = '100%;'></div></div>","null","pos","CS","CS","1","category1/CS7.png","","","","",""
"","html-keyboard-response","42","25010276","0.0-6.0-2.0-0.15","l8504tsezc","one_one","1","indirect_first","0","er08in24","0","20","1","1","3","1","null","","","<div class = 'row'><div class = 'column'><img src = 'category4/CS1.png' width = '70%;'></div><div class = 'column'><img src = 'uspos/8080.bmp' width = '100%;'></div></div>","null","pos","CS","CS","4","category4/CS1.png","","","","",""
"","html-keyboard-response","43","25012779","0.0-6.0-2.0-0.16","l8504tsezc","one_one","1","indirect_first","0","er08in24","0","20","1","1","3","1","null","","","<div class = 'row'><div class = 'column'><img src = 'uspos/1460.bmp' width = '100%;'></div><div class = 'column'><img src = 'category1/CS7.png' width = '70%;'></div></div>","null","pos","CS","CS","1","category1/CS7.png","","","","",""
"","html-keyboard-response","44","25015283","0.0-6.0-2.0-0.17","l8504tsezc","one_one","1","indirect_first","0","er08in24","0","20","1","1","3","1","null","","","<div class = 'row'><div class = 'column'><img src = 'category2/CS2.png' width = '70%;'></div><div class = 'column'><img src = 'usneg/9561.bmp' width = '100%;'></div></div>","null","neg","CS","CS","2","category2/CS2.png","","","","",""
"","html-keyboard-response","45","25017786","0.0-6.0-2.0-0.18","l8504tsezc","one_one","1","indirect_first","0","er08in24","0","20","1","1","3","1","null","","","<div class = 'row'><div class = 'column'><img src = 'uspos/8080.bmp' width = '100%;'></div><div class = 'column'><img src = 'category4/CS1.png' width = '70%;'></div></div>","null","pos","CS","CS","4","category4/CS1.png","","","","",""
"","html-keyboard-response","46","25020290","0.0-6.0-2.0-0.19","l8504tsezc","one_one","1","indirect_first","0","er08in24","0","20","1","1","3","1","null","","","<div class = 'row'><div class = 'column'><img src = 'category3/CS4.png' width = '70%;'></div><div class = 'column'><img src = 'usneg/9280.bmp' width = '100%;'></div></div>","null","neg","CS","CS","3","category3/CS4.png","","","","",""
"","survey-html-form","47","25022378","0.0-6.0-3.0","l8504tsezc","one_one","1","indirect_first","0","er08in24","0","20","1","1","3","1","1585.2949999980628","","{}","","","","","","","","","","","",""
"","html-keyboard-response","48","25026383","0.0-6.0-4.0-0.0","l8504tsezc","one_one","1","indirect_first","0","er08in24","0","20","1","1","3","1","null","","","<div class = 'row'><div class = 'column'><img src = 'usneg/9561.bmp' width = '100%;'></div><div class = 'column'><img src = 'category2/CS2.png' width = '70%;'></div></div>","null","neg","CS","CS","2","category2/CS2.png","","","","",""
"","html-keyboard-response","49","25028888","0.0-6.0-4.0-0.1","l8504tsezc","one_one","1","indirect_first","0","er08in24","0","20","1","1","3","1","null","","","<div class = 'row'><div class = 'column'><img src = 'uspos/1460.bmp' width = '100%;'></div><div class = 'column'><img src = 'category1/CS7.png' width = '70%;'></div></div>","null","pos","CS","CS","1","category1/CS7.png","","","","",""
"","html-keyboard-response","50","25031392","0.0-6.0-4.0-0.2","l8504tsezc","one_one","1","indirect_first","0","er08in24","0","20","1","1","3","1","null","","","<div class = 'row'><div class = 'column'><img src = 'usneg/9561.bmp' width = '100%;'></div><div class = 'column'><img src = 'category2/CS2.png' width = '70%;'></div></div>","null","neg","CS","CS","2","category2/CS2.png","","","","",""
"","html-keyboard-response","51","25033895","0.0-6.0-4.0-0.3","l8504tsezc","one_one","1","indirect_first","0","er08in24","0","20","1","1","3","1","null","","","<div class = 'row'><div class = 'column'><img src = 'category1/CS7.png' width = '70%;'></div><div class = 'column'><img src = 'uspos/1460.bmp' width = '100%;'></div></div>","null","pos","CS","CS","1","category1/CS7.png","","","","",""
"","html-keyboard-response","52","25036398","0.0-6.0-4.0-0.4","l8504tsezc","one_one","1","indirect_first","0","er08in24","0","20","1","1","3","1","null","","","<div class = 'row'><div class = 'column'><img src = 'usneg/9280.bmp' width = '100%;'></div><div class = 'column'><img src = 'category3/CS4.png' width = '70%;'></div></div>","null","neg","CS","CS","3","category3/CS4.png","","","","",""
"","html-keyboard-response","53","25038901","0.0-6.0-4.0-0.5","l8504tsezc","one_one","1","indirect_first","0","er08in24","0","20","1","1","3","1","null","","","<div class = 'row'><div class = 'column'><img src = 'category4/CS1.png' width = '70%;'></div><div class = 'column'><img src = 'uspos/8080.bmp' width = '100%;'></div></div>","null","pos","CS","CS","4","category4/CS1.png","","","","",""
"","html-keyboard-response","54","25041405","0.0-6.0-4.0-0.6","l8504tsezc","one_one","1","indirect_first","0","er08in24","0","20","1","1","3","1","null","","","<div class = 'row'><div class = 'column'><img src = 'category2/CS2.png' width = '70%;'></div><div class = 'column'><img src = 'usneg/9561.bmp' width = '100%;'></div></div>","null","neg","CS","CS","2","category2/CS2.png","","","","",""
"","html-keyboard-response","55","25043908","0.0-6.0-4.0-0.7","l8504tsezc","one_one","1","indirect_first","0","er08in24","0","20","1","1","3","1","null","","","<div class = 'row'><div class = 'column'><img src = 'category4/CS1.png' width = '70%;'></div><div class = 'column'><img src = 'uspos/8080.bmp' width = '100%;'></div></div>","null","pos","CS","CS","4","category4/CS1.png","","","","",""
"","html-keyboard-response","56","25046410","0.0-6.0-4.0-0.8","l8504tsezc","one_one","1","indirect_first","0","er08in24","0","20","1","1","3","1","null","","","<div class = 'row'><div class = 'column'><img src = 'category1/CS7.png' width = '70%;'></div><div class = 'column'><img src = 'uspos/1460.bmp' width = '100%;'></div></div>","null","pos","CS","CS","1","category1/CS7.png","","","","",""
"","html-keyboard-response","57","25048913","0.0-6.0-4.0-0.9","l8504tsezc","one_one","1","indirect_first","0","er08in24","0","20","1","1","3","1","null","","","<div class = 'row'><div class = 'column'><img src = 'category2/CS2.png' width = '70%;'></div><div class = 'column'><img src = 'usneg/9561.bmp' width = '100%;'></div></div>","null","neg","CS","CS","2","category2/CS2.png","","","","",""
"","html-keyboard-response","58","25051417","0.0-6.0-4.0-0.10","l8504tsezc","one_one","1","indirect_first","0","er08in24","0","20","1","1","3","1","null","","","<div class = 'row'><div class = 'column'><img src = 'category3/CS4.png' width = '70%;'></div><div class = 'column'><img src = 'usneg/9280.bmp' width = '100%;'></div></div>","null","neg","CS","CS","3","category3/CS4.png","","","","",""
"","html-keyboard-response","59","25053921","0.0-6.0-4.0-0.11","l8504tsezc","one_one","1","indirect_first","0","er08in24","0","20","1","1","3","1","null","","","<div class = 'row'><div class = 'column'><img src = 'category2/CS2.png' width = '70%;'></div><div class = 'column'><img src = 'usneg/9561.bmp' width = '100%;'></div></div>","null","neg","CS","CS","2","category2/CS2.png","","","","",""
"","html-keyboard-response","60","25056423","0.0-6.0-4.0-0.12","l8504tsezc","one_one","1","indirect_first","0","er08in24","0","20","1","1","3","1","null","","","<div class = 'row'><div class = 'column'><img src = 'usneg/9280.bmp' width = '100%;'></div><div class = 'column'><img src = 'category3/CS4.png' width = '70%;'></div></div>","null","neg","CS","CS","3","category3/CS4.png","","","","",""
"","html-keyboard-response","61","25058928","0.0-6.0-4.0-0.13","l8504tsezc","one_one","1","indirect_first","0","er08in24","0","20","1","1","3","1","null","","","<div class = 'row'><div class = 'column'><img src = 'uspos/8080.bmp' width = '100%;'></div><div class = 'column'><img src = 'category4/CS1.png' width = '70%;'></div></div>","null","pos","CS","CS","4","category4/CS1.png","","","","",""
"","html-keyboard-response","62","25061431","0.0-6.0-4.0-0.14","l8504tsezc","one_one","1","indirect_first","0","er08in24","0","20","1","1","3","1","null","","","<div class = 'row'><div class = 'column'><img src = 'uspos/1460.bmp' width = '100%;'></div><div class = 'column'><img src = 'category1/CS7.png' width = '70%;'></div></div>","null","pos","CS","CS","1","category1/CS7.png","","","","",""
"","html-keyboard-response","63","25063934","0.0-6.0-4.0-0.15","l8504tsezc","one_one","1","indirect_first","0","er08in24","0","20","1","1","3","1","null","","","<div class = 'row'><div class = 'column'><img src = 'category3/CS4.png' width = '70%;'></div><div class = 'column'><img src = 'usneg/9280.bmp' width = '100%;'></div></div>","null","neg","CS","CS","3","category3/CS4.png","","","","",""
"","html-keyboard-response","64","25066437","0.0-6.0-4.0-0.16","l8504tsezc","one_one","1","indirect_first","0","er08in24","0","20","1","1","3","1","null","","","<div class = 'row'><div class = 'column'><img src = 'uspos/8080.bmp' width = '100%;'></div><div class = 'column'><img src = 'category4/CS1.png' width = '70%;'></div></div>","null","pos","CS","CS","4","category4/CS1.png","","","","",""
"","html-keyboard-response","65","25068941","0.0-6.0-4.0-0.17","l8504tsezc","one_one","1","indirect_first","0","er08in24","0","20","1","1","3","1","null","","","<div class = 'row'><div class = 'column'><img src = 'category3/CS4.png' width = '70%;'></div><div class = 'column'><img src = 'usneg/9280.bmp' width = '100%;'></div></div>","null","neg","CS","CS","3","category3/CS4.png","","","","",""
"","html-keyboard-response","66","25071445","0.0-6.0-4.0-0.18","l8504tsezc","one_one","1","indirect_first","0","er08in24","0","20","1","1","3","1","null","","","<div class = 'row'><div class = 'column'><img src = 'category1/CS7.png' width = '70%;'></div><div class = 'column'><img src = 'uspos/1460.bmp' width = '100%;'></div></div>","null","pos","CS","CS","1","category1/CS7.png","","","","",""
"","html-keyboard-response","67","25073948","0.0-6.0-4.0-0.19","l8504tsezc","one_one","1","indirect_first","0","er08in24","0","20","1","1","3","1","null","","","<div class = 'row'><div class = 'column'><img src = 'uspos/8080.bmp' width = '100%;'></div><div class = 'column'><img src = 'category4/CS1.png' width = '70%;'></div></div>","null","pos","CS","CS","4","category4/CS1.png","","","","",""
"","survey-html-form","68","25076226","0.0-6.0-5.0","l8504tsezc","one_one","1","indirect_first","0","er08in24","0","20","1","1","3","1","1774.8700000233948","","{}","","","","","","","","","","","",""
"","html-keyboard-response","69","25080231","0.0-6.0-6.0-0.0","l8504tsezc","one_one","1","indirect_first","0","er08in24","0","20","1","1","3","1","null","","","<div class = 'row'><div class = 'column'><img src = 'category3/CS4.png' width = '70%;'></div><div class = 'column'><img src = 'usneg/9280.bmp' width = '100%;'></div></div>","null","neg","CS","CS","3","category3/CS4.png","","","","",""
"","html-keyboard-response","70","25082733","0.0-6.0-6.0-0.1","l8504tsezc","one_one","1","indirect_first","0","er08in24","0","20","1","1","3","1","null","","","<div class = 'row'><div class = 'column'><img src = 'usneg/9561.bmp' width = '100%;'></div><div class = 'column'><img src = 'category2/CS2.png' width = '70%;'></div></div>","null","neg","CS","CS","2","category2/CS2.png","","","","",""
"","html-keyboard-response","71","25085236","0.0-6.0-6.0-0.2","l8504tsezc","one_one","1","indirect_first","0","er08in24","0","20","1","1","3","1","null","","","<div class = 'row'><div class = 'column'><img src = 'usneg/9280.bmp' width = '100%;'></div><div class = 'column'><img src = 'category3/CS4.png' width = '70%;'></div></div>","null","neg","CS","CS","3","category3/CS4.png","","","","",""
"","html-keyboard-response","72","25087737","0.0-6.0-6.0-0.3","l8504tsezc","one_one","1","indirect_first","0","er08in24","0","20","1","1","3","1","null","","","<div class = 'row'><div class = 'column'><img src = 'category2/CS2.png' width = '70%;'></div><div class = 'column'><img src = 'usneg/9561.bmp' width = '100%;'></div></div>","null","neg","CS","CS","2","category2/CS2.png","","","","",""
"","html-keyboard-response","73","25090241","0.0-6.0-6.0-0.4","l8504tsezc","one_one","1","indirect_first","0","er08in24","0","20","1","1","3","1","null","","","<div class = 'row'><div class = 'column'><img src = 'category3/CS4.png' width = '70%;'></div><div class = 'column'><img src = 'usneg/9280.bmp' width = '100%;'></div></div>","null","neg","CS","CS","3","category3/CS4.png","","","","",""
"","html-keyboard-response","74","25092744","0.0-6.0-6.0-0.5","l8504tsezc","one_one","1","indirect_first","0","er08in24","0","20","1","1","3","1","null","","","<div class = 'row'><div class = 'column'><img src = 'category1/CS7.png' width = '70%;'></div><div class = 'column'><img src = 'uspos/1460.bmp' width = '100%;'></div></div>","null","pos","CS","CS","1","category1/CS7.png","","","","",""
"","html-keyboard-response","75","25095247","0.0-6.0-6.0-0.6","l8504tsezc","one_one","1","indirect_first","0","er08in24","0","20","1","1","3","1","null","","","<div class = 'row'><div class = 'column'><img src = 'uspos/8080.bmp' width = '100%;'></div><div class = 'column'><img src = 'category4/CS1.png' width = '70%;'></div></div>","null","pos","CS","CS","4","category4/CS1.png","","","","",""
"","html-keyboard-response","76","25097750","0.0-6.0-6.0-0.7","l8504tsezc","one_one","1","indirect_first","0","er08in24","0","20","1","1","3","1","null","","","<div class = 'row'><div class = 'column'><img src = 'uspos/1460.bmp' width = '100%;'></div><div class = 'column'><img src = 'category1/CS7.png' width = '70%;'></div></div>","null","pos","CS","CS","1","category1/CS7.png","","","","",""
"","html-keyboard-response","77","25100253","0.0-6.0-6.0-0.8","l8504tsezc","one_one","1","indirect_first","0","er08in24","0","20","1","1","3","1","null","","","<div class = 'row'><div class = 'column'><img src = 'category3/CS4.png' width = '70%;'></div><div class = 'column'><img src = 'usneg/9280.bmp' width = '100%;'></div></div>","null","neg","CS","CS","3","category3/CS4.png","","","","",""
"","html-keyboard-response","78","25102756","0.0-6.0-6.0-0.9","l8504tsezc","one_one","1","indirect_first","0","er08in24","0","20","1","1","3","1","null","","","<div class = 'row'><div class = 'column'><img src = 'category2/CS2.png' width = '70%;'></div><div class = 'column'><img src = 'usneg/9561.bmp' width = '100%;'></div></div>","null","neg","CS","CS","2","category2/CS2.png","","","","",""
"","html-keyboard-response","79","25105259","0.0-6.0-6.0-0.10","l8504tsezc","one_one","1","indirect_first","0","er08in24","0","20","1","1","3","1","null","","","<div class = 'row'><div class = 'column'><img src = 'usneg/9280.bmp' width = '100%;'></div><div class = 'column'><img src = 'category3/CS4.png' width = '70%;'></div></div>","null","neg","CS","CS","3","category3/CS4.png","","","","",""
"","html-keyboard-response","80","25107762","0.0-6.0-6.0-0.11","l8504tsezc","one_one","1","indirect_first","0","er08in24","0","20","1","1","3","1","null","","","<div class = 'row'><div class = 'column'><img src = 'category4/CS1.png' width = '70%;'></div><div class = 'column'><img src = 'uspos/8080.bmp' width = '100%;'></div></div>","null","pos","CS","CS","4","category4/CS1.png","","","","",""
"","html-keyboard-response","81","25110265","0.0-6.0-6.0-0.12","l8504tsezc","one_one","1","indirect_first","0","er08in24","0","20","1","1","3","1","null","","","<div class = 'row'><div class = 'column'><img src = 'usneg/9561.bmp' width = '100%;'></div><div class = 'column'><img src = 'category2/CS2.png' width = '70%;'></div></div>","null","neg","CS","CS","2","category2/CS2.png","","","","",""
"","html-keyboard-response","82","25112768","0.0-6.0-6.0-0.13","l8504tsezc","one_one","1","indirect_first","0","er08in24","0","20","1","1","3","1","null","","","<div class = 'row'><div class = 'column'><img src = 'uspos/8080.bmp' width = '100%;'></div><div class = 'column'><img src = 'category4/CS1.png' width = '70%;'></div></div>","null","pos","CS","CS","4","category4/CS1.png","","","","",""
"","html-keyboard-response","83","25115271","0.0-6.0-6.0-0.14","l8504tsezc","one_one","1","indirect_first","0","er08in24","0","20","1","1","3","1","null","","","<div class = 'row'><div class = 'column'><img src = 'uspos/1460.bmp' width = '100%;'></div><div class = 'column'><img src = 'category1/CS7.png' width = '70%;'></div></div>","null","pos","CS","CS","1","category1/CS7.png","","","","",""
"","html-keyboard-response","84","25117774","0.0-6.0-6.0-0.15","l8504tsezc","one_one","1","indirect_first","0","er08in24","0","20","1","1","3","1","null","","","<div class = 'row'><div class = 'column'><img src = 'uspos/8080.bmp' width = '100%;'></div><div class = 'column'><img src = 'category4/CS1.png' width = '70%;'></div></div>","null","pos","CS","CS","4","category4/CS1.png","","","","",""
"","html-keyboard-response","85","25120278","0.0-6.0-6.0-0.16","l8504tsezc","one_one","1","indirect_first","0","er08in24","0","20","1","1","3","1","null","","","<div class = 'row'><div class = 'column'><img src = 'category1/CS7.png' width = '70%;'></div><div class = 'column'><img src = 'uspos/1460.bmp' width = '100%;'></div></div>","null","pos","CS","CS","1","category1/CS7.png","","","","",""
"","html-keyboard-response","86","25122782","0.0-6.0-6.0-0.17","l8504tsezc","one_one","1","indirect_first","0","er08in24","0","20","1","1","3","1","null","","","<div class = 'row'><div class = 'column'><img src = 'category2/CS2.png' width = '70%;'></div><div class = 'column'><img src = 'usneg/9561.bmp' width = '100%;'></div></div>","null","neg","CS","CS","2","category2/CS2.png","","","","",""
"","html-keyboard-response","87","25125283","0.0-6.0-6.0-0.18","l8504tsezc","one_one","1","indirect_first","0","er08in24","0","20","1","1","3","1","null","","","<div class = 'row'><div class = 'column'><img src = 'category4/CS1.png' width = '70%;'></div><div class = 'column'><img src = 'uspos/8080.bmp' width = '100%;'></div></div>","null","pos","CS","CS","4","category4/CS1.png","","","","",""
"","html-keyboard-response","88","25127787","0.0-6.0-6.0-0.19","l8504tsezc","one_one","1","indirect_first","0","er08in24","0","20","1","1","3","1","null","","","<div class = 'row'><div class = 'column'><img src = 'category1/CS7.png' width = '70%;'></div><div class = 'column'><img src = 'uspos/1460.bmp' width = '100%;'></div></div>","null","pos","CS","CS","1","category1/CS7.png","","","","",""
"","html-keyboard-response","89","25168753","0.0-7.0","l8504tsezc","one_one","1","indirect_first","0","er08in24","0","20","1","1","3","1","40464.035000011325","","","<p>Sie sehen nun die chinesischen Zeichen nur ganz kurz. Danach sehen Sie die jeweilige Aussprache der Zeichen als Silbe auf dem Bildschrim. Ihre Aufgabe ist es, für jede Silbe anzugeben, ob diese etwas angenehmes, oder unangenehmes bedeuten könnte. Verlassen Sie sich hier vor allem auf Ihre Intuition.<br><br>Die Zeichen werden nur zur Orientierung dargestellt, beachten Sie sie deshalb nicht. Konzentrieren Sie sich vor allem auf die Silben. <br>Reagieren Sie mit folgenden zwei Tasten: <br><br><b>'D' </b> wenn die Silbe etwas <b>unangenehmes</b> bedeuten könnte. <br><b>'K'</b> wenn die Silbe etwas <b>angenehmes</b> bedeuten könnte. <br><br>Bitte legen Sie nun den Zeigefinger der linken Hand auf die Taste 'D' und den Zeigefinger der rechten Hand auf die Taste 'K'. <br>Reagieren Sie auf jede Silbe so schnell wie möglich. Uns interessiert Ihre spontane Reaktion. <br> <br> <br>Drücken Sie 'D' oder 'K', um die nächste Aufgabe zu starten. </p>","75","","","","","","","","","",""
"","html-keyboard-response","90","25171755","0.0-8.0-0.0","l8504tsezc","one_one","1","indirect_first","0","er08in24","0","20","1","1","3","1","null","","","<div style=""font-size:60px;"">+</div>","null","","","","","","","","","",""
"","html-keyboard-response","91","25171846","0.0-8.0-1.0","l8504tsezc","one_one","1","indirect_first","0","er08in24","0","20","1","1","3","1","null","","","<img src = 'category2/CS2.png' width = '100%;'>","null","","","","","","","","","",""
"","html-keyboard-response","92","25172099","0.0-8.0-2.0","l8504tsezc","one_one","1","indirect_first","0","er08in24","0","20","1","1","3","1","null","","","<img src = 'targets/1.png' width = '100%;'>","null","","","","","","","","","",""
"","html-keyboard-response","93","25174988","0.0-8.0-3.0","l8504tsezc","one_one","1","indirect_first","0","er08in24","0","20","1","1","3","1","2888.619999986142","","","<img src = 'targets/mask.png' width = '100%;'>","68","neg","CS","CS","2","category2/CS2.png","targets/1.png","0","indirect","0",""
"","html-keyboard-response","94","25176492","0.0-8.0-0.1","l8504tsezc","one_one","1","indirect_first","0","er08in24","0","20","1","1","3","1","null","","","<div style=""font-size:60px;"">+</div>","null","","","","","","","","","",""
"","html-keyboard-response","95","25176584","0.0-8.0-1.1","l8504tsezc","one_one","1","indirect_first","0","er08in24","0","20","1","1","3","1","null","","","<img src = 'category1/CS2.png' width = '100%;'>","null","","","","","","","","","",""
"","html-keyboard-response","96","25176838","0.0-8.0-2.1","l8504tsezc","one_one","1","indirect_first","0","er08in24","0","20","1","1","3","1","null","","","<img src = 'targets/35.png' width = '100%;'>","null","","","","","","","","","",""
"","html-keyboard-response","97","25182697","0.0-8.0-3.1","l8504tsezc","one_one","1","indirect_first","0","er08in24","0","20","1","1","3","1","5858.44500002265","","","<img src = 'targets/mask.png' width = '100%;'>","75","pos","GS","GSold","1","category1/CS2.png","targets/35.png","1","indirect","1",""
"","html-keyboard-response","98","25184201","0.0-8.0-0.2","l8504tsezc","one_one","1","indirect_first","0","er08in24","0","20","1","1","3","1","null","","","<div style=""font-size:60px;"">+</div>","null","","","","","","","","","",""
"","html-keyboard-response","99","25184292","0.0-8.0-1.2","l8504tsezc","one_one","1","indirect_first","0","er08in24","0","20","1","1","3","1","null","","","<img src = 'category1/CS7.png' width = '100%;'>","null","","","","","","","","","",""
"","html-keyboard-response","100","25184545","0.0-8.0-2.2","l8504tsezc","one_one","1","indirect_first","0","er08in24","0","20","1","1","3","1","null","","","<img src = 'targets/10.png' width = '100%;'>","null","","","","","","","","","",""
"","html-keyboard-response","101","25185982","0.0-8.0-3.2","l8504tsezc","one_one","1","indirect_first","0","er08in24","0","20","1","1","3","1","1435.4100000336766","","","<img src = 'targets/mask.png' width = '100%;'>","75","pos","CS","CS","1","category1/CS7.png","targets/10.png","1","indirect","2",""
"","html-keyboard-response","102","25187484","0.0-8.0-0.3","l8504tsezc","one_one","1","indirect_first","0","er08in24","0","20","1","1","3","1","null","","","<div style=""font-size:60px;"">+</div>","null","","","","","","","","","",""
"","html-keyboard-response","103","25187575","0.0-8.0-1.3","l8504tsezc","one_one","1","indirect_first","0","er08in24","0","20","1","1","3","1","null","","","<img src = 'category3/CS1.png' width = '100%;'>","null","","","","","","","","","",""
"","html-keyboard-response","104","25187827","0.0-8.0-2.3","l8504tsezc","one_one","1","indirect_first","0","er08in24","0","20","1","1","3","1","null","","","<img src = 'targets/30.png' width = '100%;'>","null","","","","","","","","","",""
"","html-keyboard-response","105","25190256","0.0-8.0-3.3","l8504tsezc","one_one","1","indirect_first","0","er08in24","0","20","1","1","3","1","2428.9049999788404","","","<img src = 'targets/mask.png' width = '100%;'>","75","neg","GS","GSold","3","category3/CS1.png","targets/30.png","1","indirect","3",""
"","html-keyboard-response","106","25191758","0.0-8.0-0.4","l8504tsezc","one_one","1","indirect_first","0","er08in24","0","20","1","1","3","1","null","","","<div style=""font-size:60px;"">+</div>","null","","","","","","","","","",""
"","html-keyboard-response","107","25191849","0.0-8.0-1.4","l8504tsezc","one_one","1","indirect_first","0","er08in24","0","20","1","1","3","1","null","","","<img src = 'category2/CS9.png' width = '100%;'>","null","","","","","","","","","",""
"","html-keyboard-response","108","25192100","0.0-8.0-2.4","l8504tsezc","one_one","1","indirect_first","0","er08in24","0","20","1","1","3","1","null","","","<img src = 'targets/6.png' width = '100%;'>","null","","","","","","","","","",""
"","html-keyboard-response","109","25193955","0.0-8.0-3.4","l8504tsezc","one_one","1","indirect_first","0","er08in24","0","20","1","1","3","1","1853.8200000189245","","","<img src = 'targets/mask.png' width = '100%;'>","68","neg","GS","GSold","2","category2/CS9.png","targets/6.png","0","indirect","4",""
"","html-keyboard-response","110","25195458","0.0-8.0-0.5","l8504tsezc","one_one","1","indirect_first","0","er08in24","0","20","1","1","3","1","null","","","<div style=""font-size:60px;"">+</div>","null","","","","","","","","","",""
"","html-keyboard-response","111","25195549","0.0-8.0-1.5","l8504tsezc","one_one","1","indirect_first","0","er08in24","0","20","1","1","3","1","null","","","<img src = 'category1/CS4.png' width = '100%;'>","null","","","","","","","","","",""
"","html-keyboard-response","112","25195801","0.0-8.0-2.5","l8504tsezc","one_one","1","indirect_first","0","er08in24","0","20","1","1","3","1","null","","","<img src = 'targets/39.png' width = '100%;'>","null","","","","","","","","","",""
"","html-keyboard-response","113","25199071","0.0-8.0-3.5","l8504tsezc","one_one","1","indirect_first","0","er08in24","0","20","1","1","3","1","3269.8249999657273","","","<img src = 'targets/mask.png' width = '100%;'>","68","pos","GS","GSold","1","category1/CS4.png","targets/39.png","0","indirect","5",""
"","html-keyboard-response","114","25200573","0.0-8.0-0.6","l8504tsezc","one_one","1","indirect_first","0","er08in24","0","20","1","1","3","1","null","","","<div style=""font-size:60px;"">+</div>","null","","","","","","","","","",""
"","html-keyboard-response","115","25200665","0.0-8.0-1.6","l8504tsezc","one_one","1","indirect_first","0","er08in24","0","20","1","1","3","1","null","","","<img src = 'category4/CS10.png' width = '100%;'>","null","","","","","","","","","",""
"","html-keyboard-response","116","25200916","0.0-8.0-2.6","l8504tsezc","one_one","1","indirect_first","0","er08in24","0","20","1","1","3","1","null","","","<img src = 'targets/8.png' width = '100%;'>","null","","","","","","","","","",""
"","html-keyboard-response","117","25204780","0.0-8.0-3.6","l8504tsezc","one_one","1","indirect_first","0","er08in24","0","20","1","1","3","1","3862.499999988824","","","<img src = 'targets/mask.png' width = '100%;'>","68","pos","GS","GSold","4","category4/CS10.png","targets/8.png","0","indirect","6",""
"","html-keyboard-response","118","25206281","0.0-8.0-0.7","l8504tsezc","one_one","1","indirect_first","0","er08in24","0","20","1","1","3","1","null","","","<div style=""font-size:60px;"">+</div>","null","","","","","","","","","",""
"","html-keyboard-response","119","25206373","0.0-8.0-1.7","l8504tsezc","one_one","1","indirect_first","0","er08in24","0","20","1","1","3","1","null","","","<img src = 'category4/CS3.png' width = '100%;'>","null","","","","","","","","","",""
"","html-keyboard-response","120","25206627","0.0-8.0-2.7","l8504tsezc","one_one","1","indirect_first","0","er08in24","0","20","1","1","3","1","null","","","<img src = 'targets/3.png' width = '100%;'>","null","","","","","","","","","",""
"","html-keyboard-response","121","25207601","0.0-8.0-3.7","l8504tsezc","one_one","1","indirect_first","0","er08in24","0","20","1","1","3","1","972.9700000025332","","","<img src = 'targets/mask.png' width = '100%;'>","68","pos","GS","GSold","4","category4/CS3.png","targets/3.png","0","indirect","7",""
"","html-keyboard-response","122","25209104","0.0-8.0-0.8","l8504tsezc","one_one","1","indirect_first","0","er08in24","0","20","1","1","3","1","null","","","<div style=""font-size:60px;"">+</div>","null","","","","","","","","","",""
"","html-keyboard-response","123","25209196","0.0-8.0-1.8","l8504tsezc","one_one","1","indirect_first","0","er08in24","0","20","1","1","3","1","null","","","<img src = 'category2/CS10.png' width = '100%;'>","null","","","","","","","","","",""
"","html-keyboard-response","124","25209448","0.0-8.0-2.8","l8504tsezc","one_one","1","indirect_first","0","er08in24","0","20","1","1","3","1","null","","","<img src = 'targets/38.png' width = '100%;'>","null","","","","","","","","","",""
"","html-keyboard-response","125","25210618","0.0-8.0-3.8","l8504tsezc","one_one","1","indirect_first","0","er08in24","0","20","1","1","3","1","1169.174999985844","","","<img src = 'targets/mask.png' width = '100%;'>","68","neg","GS","GSold","2","category2/CS10.png","targets/38.png","0","indirect","8",""
"","html-keyboard-response","126","25212119","0.0-8.0-0.9","l8504tsezc","one_one","1","indirect_first","0","er08in24","0","20","1","1","3","1","null","","","<div style=""font-size:60px;"">+</div>","null","","","","","","","","","",""
"","html-keyboard-response","127","25212210","0.0-8.0-1.9","l8504tsezc","one_one","1","indirect_first","0","er08in24","0","20","1","1","3","1","null","","","<img src = 'category3/CS9.png' width = '100%;'>","null","","","","","","","","","",""
"","html-keyboard-response","128","25212463","0.0-8.0-2.9","l8504tsezc","one_one","1","indirect_first","0","er08in24","0","20","1","1","3","1","null","","","<img src = 'targets/13.png' width = '100%;'>","null","","","","","","","","","",""
"","html-keyboard-response","129","25218256","0.0-8.0-3.9","l8504tsezc","one_one","1","indirect_first","0","er08in24","0","20","1","1","3","1","5792.485000040382","","","<img src = 'targets/mask.png' width = '100%;'>","68","neg","GS","GSold","3","category3/CS9.png","targets/13.png","0","indirect","9",""
"","html-keyboard-response","130","25219758","0.0-8.0-0.10","l8504tsezc","one_one","1","indirect_first","0","er08in24","0","20","1","1","3","1","null","","","<div style=""font-size:60px;"">+</div>","null","","","","","","","","","",""
"","html-keyboard-response","131","25219849","0.0-8.0-1.10","l8504tsezc","one_one","1","indirect_first","0","er08in24","0","20","1","1","3","1","null","","","<img src = 'category2/CS3.png' width = '100%;'>","null","","","","","","","","","",""
"","html-keyboard-response","132","25220101","0.0-8.0-2.10","l8504tsezc","one_one","1","indirect_first","0","er08in24","0","20","1","1","3","1","null","","","<img src = 'targets/48.png' width = '100%;'>","null","","","","","","","","","",""
"","html-keyboard-response","133","25220842","0.0-8.0-3.10","l8504tsezc","one_one","1","indirect_first","0","er08in24","0","20","1","1","3","1","740.5049999952316","","","<img src = 'targets/mask.png' width = '100%;'>","68","neg","GS","GSold","2","category2/CS3.png","targets/48.png","0","indirect","10",""
"","html-keyboard-response","134","25222343","0.0-8.0-0.11","l8504tsezc","one_one","1","indirect_first","0","er08in24","0","20","1","1","3","1","null","","","<div style=""font-size:60px;"">+</div>","null","","","","","","","","","",""
"","html-keyboard-response","135","25222434","0.0-8.0-1.11","l8504tsezc","one_one","1","indirect_first","0","er08in24","0","20","1","1","3","1","null","","","<img src = 'category3/CS4.png' width = '100%;'>","null","","","","","","","","","",""
"","html-keyboard-response","136","25222687","0.0-8.0-2.11","l8504tsezc","one_one","1","indirect_first","0","er08in24","0","20","1","1","3","1","null","","","<img src = 'targets/16.png' width = '100%;'>","null","","","","","","","","","",""
"","html-keyboard-response","137","25223774","0.0-8.0-3.11","l8504tsezc","one_one","1","indirect_first","0","er08in24","0","20","1","1","3","1","1086.6650000102818","","","<img src = 'targets/mask.png' width = '100%;'>","68","neg","CS","CS","3","category3/CS4.png","targets/16.png","0","indirect","11",""
"","html-keyboard-response","138","25225276","0.0-8.0-0.12","l8504tsezc","one_one","1","indirect_first","0","er08in24","0","20","1","1","3","1","null","","","<div style=""font-size:60px;"">+</div>","null","","","","","","","","","",""
"","html-keyboard-response","139","25225368","0.0-8.0-1.12","l8504tsezc","one_one","1","indirect_first","0","er08in24","0","20","1","1","3","1","null","","","<img src = 'category3/CS10.png' width = '100%;'>","null","","","","","","","","","",""
"","html-keyboard-response","140","25225620","0.0-8.0-2.12","l8504tsezc","one_one","1","indirect_first","0","er08in24","0","20","1","1","3","1","null","","","<img src = 'targets/4.png' width = '100%;'>","null","","","","","","","","","",""
"","html-keyboard-response","141","25227127","0.0-8.0-3.12","l8504tsezc","one_one","1","indirect_first","0","er08in24","0","20","1","1","3","1","1506.5999999642372","","","<img src = 'targets/mask.png' width = '100%;'>","75","neg","GS","GSold","3","category3/CS10.png","targets/4.png","1","indirect","12",""
"","html-keyboard-response","142","25228629","0.0-8.0-0.13","l8504tsezc","one_one","1","indirect_first","0","er08in24","0","20","1","1","3","1","null","","","<div style=""font-size:60px;"">+</div>","null","","","","","","","","","",""
"","html-keyboard-response","143","25228721","0.0-8.0-1.13","l8504tsezc","one_one","1","indirect_first","0","er08in24","0","20","1","1","3","1","null","","","<img src = 'category4/CS4.png' width = '100%;'>","null","","","","","","","","","",""
"","html-keyboard-response","144","25228974","0.0-8.0-2.13","l8504tsezc","one_one","1","indirect_first","0","er08in24","0","20","1","1","3","1","null","","","<img src = 'targets/17.png' width = '100%;'>","null","","","","","","","","","",""
"","html-keyboard-response","145","25230019","0.0-8.0-3.13","l8504tsezc","one_one","1","indirect_first","0","er08in24","0","20","1","1","3","1","1043.4399999789894","","","<img src = 'targets/mask.png' width = '100%;'>","68","pos","GS","GSold","4","category4/CS4.png","targets/17.png","0","indirect","13",""
"","html-keyboard-response","146","25231520","0.0-8.0-0.14","l8504tsezc","one_one","1","indirect_first","0","er08in24","0","20","1","1","3","1","null","","","<div style=""font-size:60px;"">+</div>","null","","","","","","","","","",""
"","html-keyboard-response","147","25231612","0.0-8.0-1.14","l8504tsezc","one_one","1","indirect_first","0","er08in24","0","20","1","1","3","1","null","","","<img src = 'category1/CS3.png' width = '100%;'>","null","","","","","","","","","",""
"","html-keyboard-response","148","25231863","0.0-8.0-2.14","l8504tsezc","one_one","1","indirect_first","0","er08in24","0","20","1","1","3","1","null","","","<img src = 'targets/44.png' width = '100%;'>","null","","","","","","","","","",""
"","html-keyboard-response","149","25232962","0.0-8.0-3.14","l8504tsezc","one_one","1","indirect_first","0","er08in24","0","20","1","1","3","1","1098.4349999912083","","","<img src = 'targets/mask.png' width = '100%;'>","75","pos","GS","GSold","1","category1/CS3.png","targets/44.png","1","indirect","14",""
"","html-keyboard-response","150","25234464","0.0-8.0-0.15","l8504tsezc","one_one","1","indirect_first","0","er08in24","0","20","1","1","3","1","null","","","<div style=""font-size:60px;"">+</div>","null","","","","","","","","","",""
"","html-keyboard-response","151","25234556","0.0-8.0-1.15","l8504tsezc","one_one","1","indirect_first","0","er08in24","0","20","1","1","3","1","null","","","<img src = 'category4/CS1.png' width = '100%;'>","null","","","","","","","","","",""
"","html-keyboard-response","152","25234809","0.0-8.0-2.15","l8504tsezc","one_one","1","indirect_first","0","er08in24","0","20","1","1","3","1","null","","","<img src = 'targets/24.png' width = '100%;'>","null","","","","","","","","","",""
"","html-keyboard-response","153","25236081","0.0-8.0-3.15","l8504tsezc","one_one","1","indirect_first","0","er08in24","0","20","1","1","3","1","1271.669999986887","","","<img src = 'targets/mask.png' width = '100%;'>","75","pos","CS","CS","4","category4/CS1.png","targets/24.png","1","indirect","15",""
"","survey-html-form","154","25239322","0.0-9.0","l8504tsezc","one_one","1","indirect_first","0","er08in24","0","20","1","1","3","1","2738.9499999694526","","{}","","","","","","","","","","","",""
"","html-keyboard-response","155","25242324","0.0-10.0-0.0","l8504tsezc","one_one","1","indirect_first","0","er08in24","0","20","1","1","3","1","null","","","<div style=""font-size:60px;"">+</div>","null","","","","","","","","","",""
"","html-keyboard-response","156","25242415","0.0-10.0-1.0","l8504tsezc","one_one","1","indirect_first","0","er08in24","0","20","1","1","3","1","null","","","<img src = 'category2/GS1.png' width = '100%;'>","null","","","","","","","","","",""
"","html-keyboard-response","157","25242667","0.0-10.0-2.0","l8504tsezc","one_one","1","indirect_first","0","er08in24","0","20","1","1","3","1","null","","","<img src = 'targets/22.png' width = '100%;'>","null","","","","","","","","","",""
"","html-keyboard-response","158","25244090","0.0-10.0-3.0","l8504tsezc","one_one","1","indirect_first","0","er08in24","0","20","1","1","3","1","1421.3250000029802","","","<img src = 'targets/mask.png' width = '100%;'>","75","neg","GS","GSnew","2","category2/GS1.png","targets/22.png","1","indirect","16",""
"","html-keyboard-response","159","25245592","0.0-10.0-0.1","l8504tsezc","one_one","1","indirect_first","0","er08in24","0","20","1","1","3","1","null","","","<div style=""font-size:60px;"">+</div>","null","","","","","","","","","",""
"","html-keyboard-response","160","25245683","0.0-10.0-1.1","l8504tsezc","one_one","1","indirect_first","0","er08in24","0","20","1","1","3","1","null","","","<img src = 'category2/GS3.png' width = '100%;'>","null","","","","","","","","","",""
"","html-keyboard-response","161","25245935","0.0-10.0-2.1","l8504tsezc","one_one","1","indirect_first","0","er08in24","0","20","1","1","3","1","null","","","<img src = 'targets/42.png' width = '100%;'>","null","","","","","","","","","",""
"","html-keyboard-response","162","25248897","0.0-10.0-3.1","l8504tsezc","one_one","1","indirect_first","0","er08in24","0","20","1","1","3","1","2961.505000010133","","","<img src = 'targets/mask.png' width = '100%;'>","75","neg","GS","GSnew","2","category2/GS3.png","targets/42.png","1","indirect","17",""
"","html-keyboard-response","163","25250399","0.0-10.0-0.2","l8504tsezc","one_one","1","indirect_first","0","er08in24","0","20","1","1","3","1","null","","","<div style=""font-size:60px;"">+</div>","null","","","","","","","","","",""
"","html-keyboard-response","164","25250490","0.0-10.0-1.2","l8504tsezc","one_one","1","indirect_first","0","er08in24","0","20","1","1","3","1","null","","","<img src = 'category4/GS1.png' width = '100%;'>","null","","","","","","","","","",""
"","html-keyboard-response","165","25250742","0.0-10.0-2.2","l8504tsezc","one_one","1","indirect_first","0","er08in24","0","20","1","1","3","1","null","","","<img src = 'targets/15.png' width = '100%;'>","null","","","","","","","","","",""
"","html-keyboard-response","166","25251986","0.0-10.0-3.2","l8504tsezc","one_one","1","indirect_first","0","er08in24","0","20","1","1","3","1","1242.9900000020862","","","<img src = 'targets/mask.png' width = '100%;'>","68","pos","GS","GSnew","4","category4/GS1.png","targets/15.png","0","indirect","18",""
"","html-keyboard-response","167","25253487","0.0-10.0-0.3","l8504tsezc","one_one","1","indirect_first","0","er08in24","0","20","1","1","3","1","null","","","<div style=""font-size:60px;"">+</div>","null","","","","","","","","","",""
"","html-keyboard-response","168","25253578","0.0-10.0-1.3","l8504tsezc","one_one","1","indirect_first","0","er08in24","0","20","1","1","3","1","null","","","<img src = 'category3/GS2.png' width = '100%;'>","null","","","","","","","","","",""
"","html-keyboard-response","169","25253831","0.0-10.0-2.3","l8504tsezc","one_one","1","indirect_first","0","er08in24","0","20","1","1","3","1","null","","","<img src = 'targets/26.png' width = '100%;'>","null","","","","","","","","","",""
"","html-keyboard-response","170","25255182","0.0-10.0-3.3","l8504tsezc","one_one","1","indirect_first","0","er08in24","0","20","1","1","3","1","1349.589999999851","","","<img src = 'targets/mask.png' width = '100%;'>","68","neg","GS","GSnew","3","category3/GS2.png","targets/26.png","0","indirect","19",""
"","html-keyboard-response","171","25256684","0.0-10.0-0.4","l8504tsezc","one_one","1","indirect_first","0","er08in24","0","20","1","1","3","1","null","","","<div style=""font-size:60px;"">+</div>","null","","","","","","","","","",""
"","html-keyboard-response","172","25256775","0.0-10.0-1.4","l8504tsezc","one_one","1","indirect_first","0","er08in24","0","20","1","1","3","1","null","","","<img src = 'category1/GS3.png' width = '100%;'>","null","","","","","","","","","",""
"","html-keyboard-response","173","25257027","0.0-10.0-2.4","l8504tsezc","one_one","1","indirect_first","0","er08in24","0","20","1","1","3","1","null","","","<img src = 'targets/31.png' width = '100%;'>","null","","","","","","","","","",""
"","html-keyboard-response","174","25260459","0.0-10.0-3.4","l8504tsezc","one_one","1","indirect_first","0","er08in24","0","20","1","1","3","1","3431.834999997169","","","<img src = 'targets/mask.png' width = '100%;'>","75","pos","GS","GSnew","1","category1/GS3.png","targets/31.png","1","indirect","20",""
"","html-keyboard-response","175","25261961","0.0-10.0-0.5","l8504tsezc","one_one","1","indirect_first","0","er08in24","0","20","1","1","3","1","null","","","<div style=""font-size:60px;"">+</div>","null","","","","","","","","","",""
"","html-keyboard-response","176","25262052","0.0-10.0-1.5","l8504tsezc","one_one","1","indirect_first","0","er08in24","0","20","1","1","3","1","null","","","<img src = 'category4/GS3.png' width = '100%;'>","null","","","","","","","","","",""
"","html-keyboard-response","177","25262303","0.0-10.0-2.5","l8504tsezc","one_one","1","indirect_first","0","er08in24","0","20","1","1","3","1","null","","","<img src = 'targets/28.png' width = '100%;'>","null","","","","","","","","","",""
"","html-keyboard-response","178","25263140","0.0-10.0-3.5","l8504tsezc","one_one","1","indirect_first","0","er08in24","0","20","1","1","3","1","836.4850000329316","","","<img src = 'targets/mask.png' width = '100%;'>","68","pos","GS","GSnew","4","category4/GS3.png","targets/28.png","0","indirect","21",""
"","html-keyboard-response","179","25264642","0.0-10.0-0.6","l8504tsezc","one_one","1","indirect_first","0","er08in24","0","20","1","1","3","1","null","","","<div style=""font-size:60px;"">+</div>","null","","","","","","","","","",""
"","html-keyboard-response","180","25264734","0.0-10.0-1.6","l8504tsezc","one_one","1","indirect_first","0","er08in24","0","20","1","1","3","1","null","","","<img src = 'category3/wang.png' width = '100%;'>","null","","","","","","","","","",""
"","html-keyboard-response","181","25264986","0.0-10.0-2.6","l8504tsezc","one_one","1","indirect_first","0","er08in24","0","20","1","1","3","1","null","","","<img src = 'targets/11.png' width = '100%;'>","null","","","","","","","","","",""
"","html-keyboard-response","182","25266739","0.0-10.0-3.6","l8504tsezc","one_one","1","indirect_first","0","er08in24","0","20","1","1","3","1","1752.1500000171363","","","<img src = 'targets/mask.png' width = '100%;'>","75","neg","GS","abstract","3","category3/wang.png","targets/11.png","1","indirect","22",""
"","html-keyboard-response","183","25268242","0.0-10.0-0.7","l8504tsezc","one_one","1","indirect_first","0","er08in24","0","20","1","1","3","1","null","","","<div style=""font-size:60px;"">+</div>","null","","","","","","","","","",""
"","html-keyboard-response","184","25268334","0.0-10.0-1.7","l8504tsezc","one_one","1","indirect_first","0","er08in24","0","20","1","1","3","1","null","","","<img src = 'category4/GS2.png' width = '100%;'>","null","","","","","","","","","",""
"","html-keyboard-response","185","25268586","0.0-10.0-2.7","l8504tsezc","one_one","1","indirect_first","0","er08in24","0","20","1","1","3","1","null","","","<img src = 'targets/45.png' width = '100%;'>","null","","","","","","","","","",""
"","html-keyboard-response","186","25271093","0.0-10.0-3.7","l8504tsezc","one_one","1","indirect_first","0","er08in24","0","20","1","1","3","1","2506.8350000046194","","","<img src = 'targets/mask.png' width = '100%;'>","75","pos","GS","GSnew","4","category4/GS2.png","targets/45.png","1","indirect","23",""
"","html-keyboard-response","187","25272595","0.0-10.0-0.8","l8504tsezc","one_one","1","indirect_first","0","er08in24","0","20","1","1","3","1","null","","","<div style=""font-size:60px;"">+</div>","null","","","","","","","","","",""
"","html-keyboard-response","188","25272687","0.0-10.0-1.8","l8504tsezc","one_one","1","indirect_first","0","er08in24","0","20","1","1","3","1","null","","","<img src = 'category3/GS3.png' width = '100%;'>","null","","","","","","","","","",""
"","html-keyboard-response","189","25272939","0.0-10.0-2.8","l8504tsezc","one_one","1","indirect_first","0","er08in24","0","20","1","1","3","1","null","","","<img src = 'targets/46.png' width = '100%;'>","null","","","","","","","","","",""
"","html-keyboard-response","190","25277744","0.0-10.0-3.8","l8504tsezc","one_one","1","indirect_first","0","er08in24","0","20","1","1","3","1","4804.200000010431","","","<img src = 'targets/mask.png' width = '100%;'>","75","neg","GS","GSnew","3","category3/GS3.png","targets/46.png","1","indirect","24",""
"","html-keyboard-response","191","25279245","0.0-10.0-0.9","l8504tsezc","one_one","1","indirect_first","0","er08in24","0","20","1","1","3","1","null","","","<div style=""font-size:60px;"">+</div>","null","","","","","","","","","",""
"","html-keyboard-response","192","25279336","0.0-10.0-1.9","l8504tsezc","one_one","1","indirect_first","0","er08in24","0","20","1","1","3","1","null","","","<img src = 'category1/GS1.png' width = '100%;'>","null","","","","","","","","","",""
"","html-keyboard-response","193","25279589","0.0-10.0-2.9","l8504tsezc","one_one","1","indirect_first","0","er08in24","0","20","1","1","3","1","null","","","<img src = 'targets/41.png' width = '100%;'>","null","","","","","","","","","",""
"","html-keyboard-response","194","25280309","0.0-10.0-3.9","l8504tsezc","one_one","1","indirect_first","0","er08in24","0","20","1","1","3","1","719.565000038594","","","<img src = 'targets/mask.png' width = '100%;'>","68","pos","GS","GSnew","1","category1/GS1.png","targets/41.png","0","indirect","25",""
"","html-keyboard-response","195","25281812","0.0-10.0-0.10","l8504tsezc","one_one","1","indirect_first","0","er08in24","0","20","1","1","3","1","null","","","<div style=""font-size:60px;"">+</div>","null","","","","","","","","","",""
"","html-keyboard-response","196","25281903","0.0-10.0-1.10","l8504tsezc","one_one","1","indirect_first","0","er08in24","0","20","1","1","3","1","null","","","<img src = 'category2/GS2.png' width = '100%;'>","null","","","","","","","","","",""
"","html-keyboard-response","197","25282154","0.0-10.0-2.10","l8504tsezc","one_one","1","indirect_first","0","er08in24","0","20","1","1","3","1","null","","","<img src = 'targets/7.png' width = '100%;'>","null","","","","","","","","","",""
"","html-keyboard-response","198","25282886","0.0-10.0-3.10","l8504tsezc","one_one","1","indirect_first","0","er08in24","0","20","1","1","3","1","730.6899999938905","","","<img src = 'targets/mask.png' width = '100%;'>","68","neg","GS","GSnew","2","category2/GS2.png","targets/7.png","0","indirect","26",""
"","html-keyboard-response","199","25284387","0.0-10.0-0.11","l8504tsezc","one_one","1","indirect_first","0","er08in24","0","20","1","1","3","1","null","","","<div style=""font-size:60px;"">+</div>","null","","","","","","","","","",""
"","html-keyboard-response","200","25284478","0.0-10.0-1.11","l8504tsezc","one_one","1","indirect_first","0","er08in24","0","20","1","1","3","1","null","","","<img src = 'category1/ma.png' width = '100%;'>","null","","","","","","","","","",""
"","html-keyboard-response","201","25284731","0.0-10.0-2.11","l8504tsezc","one_one","1","indirect_first","0","er08in24","0","20","1","1","3","1","null","","","<img src = 'targets/12.png' width = '100%;'>","null","","","","","","","","","",""
"","html-keyboard-response","202","25286350","0.0-10.0-3.11","l8504tsezc","one_one","1","indirect_first","0","er08in24","0","20","1","1","3","1","1618.8299999944866","","","<img src = 'targets/mask.png' width = '100%;'>","75","pos","GS","abstract","1","category1/ma.png","targets/12.png","1","indirect","27",""
"","html-keyboard-response","203","25287853","0.0-10.0-0.12","l8504tsezc","one_one","1","indirect_first","0","er08in24","0","20","1","1","3","1","null","","","<div style=""font-size:60px;"">+</div>","null","","","","","","","","","",""
"","html-keyboard-response","204","25287945","0.0-10.0-1.12","l8504tsezc","one_one","1","indirect_first","0","er08in24","0","20","1","1","3","1","null","","","<img src = 'category1/GS2.png' width = '100%;'>","null","","","","","","","","","",""
"","html-keyboard-response","205","25288197","0.0-10.0-2.12","l8504tsezc","one_one","1","indirect_first","0","er08in24","0","20","1","1","3","1","null","","","<img src = 'targets/23.png' width = '100%;'>","null","","","","","","","","","",""
"","html-keyboard-response","206","25289138","0.0-10.0-3.12","l8504tsezc","one_one","1","indirect_first","0","er08in24","0","20","1","1","3","1","940.2699999623001","","","<img src = 'targets/mask.png' width = '100%;'>","68","pos","GS","GSnew","1","category1/GS2.png","targets/23.png","0","indirect","28",""
"","html-keyboard-response","207","25290641","0.0-10.0-0.13","l8504tsezc","one_one","1","indirect_first","0","er08in24","0","20","1","1","3","1","null","","","<div style=""font-size:60px;"">+</div>","null","","","","","","","","","",""
"","html-keyboard-response","208","25290732","0.0-10.0-1.13","l8504tsezc","one_one","1","indirect_first","0","er08in24","0","20","1","1","3","1","null","","","<img src = 'category4/lin.png' width = '100%;'>","null","","","","","","","","","",""
"","html-keyboard-response","209","25290985","0.0-10.0-2.13","l8504tsezc","one_one","1","indirect_first","0","er08in24","0","20","1","1","3","1","null","","","<img src = 'targets/2.png' width = '100%;'>","null","","","","","","","","","",""
"","html-keyboard-response","210","25291657","0.0-10.0-3.13","l8504tsezc","one_one","1","indirect_first","0","er08in24","0","20","1","1","3","1","670.820000000298","","","<img src = 'targets/mask.png' width = '100%;'>","75","pos","GS","abstract","4","category4/lin.png","targets/2.png","1","indirect","29",""
"","html-keyboard-response","211","25293160","0.0-10.0-0.14","l8504tsezc","one_one","1","indirect_first","0","er08in24","0","20","1","1","3","1","null","","","<div style=""font-size:60px;"">+</div>","null","","","","","","","","","",""
"","html-keyboard-response","212","25293251","0.0-10.0-1.14","l8504tsezc","one_one","1","indirect_first","0","er08in24","0","20","1","1","3","1","null","","","<img src = 'category2/men.png' width = '100%;'>","null","","","","","","","","","",""
"","html-keyboard-response","213","25293504","0.0-10.0-2.14","l8504tsezc","one_one","1","indirect_first","0","er08in24","0","20","1","1","3","1","null","","","<img src = 'targets/18.png' width = '100%;'>","null","","","","","","","","","",""
"","html-keyboard-response","214","25295289","0.0-10.0-3.14","l8504tsezc","one_one","1","indirect_first","0","er08in24","0","20","1","1","3","1","1784.435000039637","","","<img src = 'targets/mask.png' width = '100%;'>","75","neg","GS","abstract","2","category2/men.png","targets/18.png","1","indirect","30",""
"","html-keyboard-response","215","25296791","0.0-10.0-0.15","l8504tsezc","one_one","1","indirect_first","0","er08in24","0","20","1","1","3","1","null","","","<div style=""font-size:60px;"">+</div>","null","","","","","","","","","",""
"","html-keyboard-response","216","25296882","0.0-10.0-1.15","l8504tsezc","one_one","1","indirect_first","0","er08in24","0","20","1","1","3","1","null","","","<img src = 'category3/GS1.png' width = '100%;'>","null","","","","","","","","","",""
"","html-keyboard-response","217","25297134","0.0-10.0-2.15","l8504tsezc","one_one","1","indirect_first","0","er08in24","0","20","1","1","3","1","null","","","<img src = 'targets/20.png' width = '100%;'>","null","","","","","","","","","",""
"","html-keyboard-response","218","25298336","0.0-10.0-3.15","l8504tsezc","one_one","1","indirect_first","0","er08in24","0","20","1","1","3","1","1201.070000011474","","","<img src = 'targets/mask.png' width = '100%;'>","75","neg","GS","GSnew","3","category3/GS1.png","targets/20.png","1","indirect","31",""
"","survey-html-form","219","25306305","0.0-11.0","l8504tsezc","one_one","1","indirect_first","0","er08in24","0","20","1","1","3","1","7468.950000010431","","{}","","","","","","","","","","","",""
"","image-slider-response","220","25314553","0.0-12.0-0.0","l8504tsezc","one_one","1","indirect_first","0","er08in24","0","20","1","1","3","1","6245.7200000062585","","","","","neg","GS","GSnew","3","category3/GS1.png","targets/20.png","","direct","","72"
"","image-slider-response","221","25317449","0.0-12.0-0.1","l8504tsezc","one_one","1","indirect_first","0","er08in24","0","20","1","1","3","1","2894.664999973029","","","","","pos","CS","CS","4","category4/CS1.png","targets/24.png","","direct","","100"
"","image-slider-response","222","25320073","0.0-12.0-0.2","l8504tsezc","one_one","1","indirect_first","0","er08in24","0","20","1","1","3","1","2623.7099999561906","","","","","neg","GS","GSold","3","category3/CS1.png","targets/30.png","","direct","","-70"
"","image-slider-response","223","25324337","0.0-12.0-0.3","l8504tsezc","one_one","1","indirect_first","0","er08in24","0","20","1","1","3","1","4262.274999983609","","","","","neg","GS","GSnew","2","category2/GS3.png","targets/42.png","","direct","","-95"
"","image-slider-response","224","25327490","0.0-12.0-0.4","l8504tsezc","one_one","1","indirect_first","0","er08in24","0","20","1","1","3","1","3151.505000013858","","","","","neg","CS","CS","2","category2/CS2.png","targets/1.png","","direct","","-68"
"","image-slider-response","225","25332681","0.0-12.0-0.5","l8504tsezc","one_one","1","indirect_first","0","er08in24","0","20","1","1","3","1","5190.699999976903","","","","","pos","GS","GSnew","4","category4/GS1.png","targets/15.png","","direct","","96"
"","image-slider-response","226","25335321","0.0-12.0-0.6","l8504tsezc","one_one","1","indirect_first","0","er08in24","0","20","1","1","3","1","2638.13000003621","","","","","pos","GS","GSold","4","category4/CS4.png","targets/17.png","","direct","","100"
"","image-slider-response","227","25338153","0.0-12.0-0.7","l8504tsezc","one_one","1","indirect_first","0","er08in24","0","20","1","1","3","1","2831.2299999520183","","","","","pos","GS","GSnew","4","category4/GS3.png","targets/28.png","","direct","","100"
"","image-slider-response","228","25340337","0.0-12.0-0.8","l8504tsezc","one_one","1","indirect_first","0","er08in24","0","20","1","1","3","1","2182.7199999839067","","","","","neg","CS","CS","3","category3/CS4.png","targets/16.png","","direct","","-100"
"","image-slider-response","229","25343025","0.0-12.0-0.9","l8504tsezc","one_one","1","indirect_first","0","er08in24","0","20","1","1","3","1","2687.0150000303984","","","","","neg","GS","abstract","3","category3/wang.png","targets/11.png","","direct","","-75"
"","image-slider-response","230","25345314","0.0-12.0-0.10","l8504tsezc","one_one","1","indirect_first","0","er08in24","0","20","1","1","3","1","2287.9400000087917","","","","","pos","GS","GSold","4","category4/CS3.png","targets/3.png","","direct","","79"
"","image-slider-response","231","25347745","0.0-12.0-0.11","l8504tsezc","one_one","1","indirect_first","0","er08in24","0","20","1","1","3","1","2429.4150000177324","","","","","pos","GS","abstract","4","category4/lin.png","targets/2.png","","direct","","71"
"","image-slider-response","232","25353505","0.0-12.0-0.12","l8504tsezc","one_one","1","indirect_first","0","er08in24","0","20","1","1","3","1","5758.70000000298","","","","","neg","GS","GSnew","3","category3/GS2.png","targets/26.png","","direct","","28"
"","image-slider-response","233","25356905","0.0-12.0-0.13","l8504tsezc","one_one","1","indirect_first","0","er08in24","0","20","1","1","3","1","3398.374999988824","","","","","pos","GS","GSnew","1","category1/GS1.png","targets/41.png","","direct","","-63"
"","image-slider-response","234","25360465","0.0-12.0-0.14","l8504tsezc","one_one","1","indirect_first","0","er08in24","0","20","1","1","3","1","3555.700000025332","","","","","pos","GS","GSold","1","category1/CS2.png","targets/35.png","","direct","","-66"
"","image-slider-response","235","25363217","0.0-12.0-0.15","l8504tsezc","one_one","1","indirect_first","0","er08in24","0","20","1","1","3","1","2750.5300000198185","","","","","neg","GS","GSnew","3","category3/GS3.png","targets/46.png","","direct","","-80"
"","image-slider-response","236","25368849","0.0-12.0-0.16","l8504tsezc","one_one","1","indirect_first","0","er08in24","0","20","1","1","3","1","5630.720000013709","","","","","pos","GS","GSold","1","category1/CS3.png","targets/44.png","","direct","","-48"
"","image-slider-response","237","25371401","0.0-12.0-0.17","l8504tsezc","one_one","1","indirect_first","0","er08in24","0","20","1","1","3","1","2549.869999986142","","","","","pos","GS","GSnew","4","category4/GS2.png","targets/45.png","","direct","","89"
"","image-slider-response","238","25377056","0.0-12.0-0.18","l8504tsezc","one_one","1","indirect_first","0","er08in24","0","20","1","1","3","1","5654.454999953508","","","","","pos","GS","GSnew","1","category1/GS3.png","targets/31.png","","direct","","26"
"","image-slider-response","239","25380250","0.0-12.0-0.19","l8504tsezc","one_one","1","indirect_first","0","er08in24","0","20","1","1","3","1","3192.750000048429","","","","","pos","GS","GSold","1","category1/CS4.png","targets/39.png","","direct","","-62"
"","image-slider-response","240","25382921","0.0-12.0-0.20","l8504tsezc","one_one","1","indirect_first","0","er08in24","0","20","1","1","3","1","2668.990000035614","","","","","neg","GS","GSold","2","category2/CS3.png","targets/48.png","","direct","","-100"
"","image-slider-response","241","25390440","0.0-12.0-0.21","l8504tsezc","one_one","1","indirect_first","0","er08in24","0","20","1","1","3","1","7518.204999972135","","","","","pos","CS","CS","1","category1/CS7.png","targets/10.png","","direct","","34"
"","image-slider-response","242","25393609","0.0-12.0-0.22","l8504tsezc","one_one","1","indirect_first","0","er08in24","0","20","1","1","3","1","3167.125000037253","","","","","neg","GS","GSnew","2","category2/GS1.png","targets/22.png","","direct","","-100"
"","image-slider-response","243","25397761","0.0-12.0-0.23","l8504tsezc","one_one","1","indirect_first","0","er08in24","0","20","1","1","3","1","4150.220000009984","","","","","neg","GS","GSold","3","category3/CS10.png","targets/4.png","","direct","","27"
"","image-slider-response","244","25400465","0.0-12.0-0.24","l8504tsezc","one_one","1","indirect_first","0","er08in24","0","20","1","1","3","1","2702.56499998644","","","","","pos","GS","abstract","1","category1/ma.png","targets/12.png","","direct","","-25"
"","image-slider-response","245","25402497","0.0-12.0-0.25","l8504tsezc","one_one","1","indirect_first","0","er08in24","0","20","1","1","3","1","2030.204999960959","","","","","neg","GS","GSold","2","category2/CS9.png","targets/6.png","","direct","","-88"
"","image-slider-response","246","25405160","0.0-12.0-0.26","l8504tsezc","one_one","1","indirect_first","0","er08in24","0","20","1","1","3","1","2662.690000027418","","","","","neg","GS","GSold","2","category2/CS10.png","targets/38.png","","direct","","-77"
"","image-slider-response","247","25407480","0.0-12.0-0.27","l8504tsezc","one_one","1","indirect_first","0","er08in24","0","20","1","1","3","1","2318.6049999780953","","","","","neg","GS","GSnew","2","category2/GS2.png","targets/7.png","","direct","","-100"
"","image-slider-response","248","25414297","0.0-12.0-0.28","l8504tsezc","one_one","1","indirect_first","0","er08in24","0","20","1","1","3","1","6815.5649999938905","","","","","pos","GS","GSnew","1","category1/GS2.png","targets/23.png","","direct","","-53"
"","image-slider-response","249","25417848","0.0-12.0-0.29","l8504tsezc","one_one","1","indirect_first","0","er08in24","0","20","1","1","3","1","3549.9500000178814","","","","","pos","GS","GSold","4","category4/CS10.png","targets/8.png","","direct","","18"
"","image-slider-response","250","25420074","0.0-12.0-0.30","l8504tsezc","one_one","1","indirect_first","0","er08in24","0","20","1","1","3","1","2224.7249999791384","","","","","neg","GS","abstract","2","category2/men.png","targets/18.png","","direct","","-100"
"","image-slider-response","251","25422840","0.0-12.0-0.31","l8504tsezc","one_one","1","indirect_first","0","er08in24","0","20","1","1","3","1","2763.6099999658763","","","","","neg","GS","GSold","3","category3/CS9.png","targets/13.png","","direct","","-54"
"","survey-html-form","252","25423880","0.0-13.0","l8504tsezc","one_one","1","indirect_first","0","er08in24","0","20","1","1","3","1","1039.3800000287592","","{}","","","","","","","","","","","",""
"","image-slider-response","253","25434601","0.0-14.0-0.0","l8504tsezc","one_one","1","indirect_first","0","er08in24","0","20","1","1","3","1","9718.725000046194","","","","","neg","All","all","2","category2/men_all.png","","","all","","-78"
"","image-slider-response","254","25440289","0.0-14.0-0.1","l8504tsezc","one_one","1","indirect_first","0","er08in24","0","20","1","1","3","1","5686.529999949038","","","","","pos","All","all","1","category1/ma_all.png","","","all","","-32"
"","image-slider-response","255","25450753","0.0-14.0-0.2","l8504tsezc","one_one","1","indirect_first","0","er08in24","0","20","1","1","3","1","10462.799999978393","","","","","neg","All","all","3","category3/wang_all.png","","","all","","10"
"","image-slider-response","256","25454006","0.0-14.0-0.3","l8504tsezc","one_one","1","indirect_first","0","er08in24","0","20","1","1","3","1","3251.219999976456","","","","","pos","All","all","4","category4/lin_all.png","","","all","","100"
"","survey-text","257","25466833","0.0-15.0","l8504tsezc","one_one","1","indirect_first","0","er08in24","0","20","1","1","3","1","12811.879999995232","","{""Q0"":""""}","","","","","","","","","","","",""
