"success","trial_type","trial_index","time_elapsed","internal_node_id","subject","condition","condition_code","measure","measure_code","codeword","gender","age","education","chinese","fach","handedness","rt","url","responses","stimulus","key_press","val","type","type_specific","category","cs_selected","response","target","task","indirect","nr_pres"
"true","fullscreen","0","10153","0.0-0.0","uebu1eampj","one_one","1","direct_first","1","er09ov19","1","23","1","1","2","1","","","","","","","","","","","","","","",""
"","external-html","1","110003","0.0-1.0","uebu1eampj","one_one","1","direct_first","1","er09ov19","1","23","1","1","2","1","99839","text/information.html","","","","","","","","","","","","",""
"","external-html","2","140105","0.0-2.0","uebu1eampj","one_one","1","direct_first","1","er09ov19","1","23","1","1","2","1","30093","text/consent.html","","","","","","","","","","","","",""
"","survey-html-form","3","188696","0.0-3.0","uebu1eampj","one_one","1","direct_first","1","er09ov19","1","23","1","1","2","1","48589","","{""codeword_enter"":""er09ov19""}","","","","","","","","","","","",""
"","survey-html-form","4","207259","0.0-4.0","uebu1eampj","one_one","1","direct_first","1","er09ov19","1","23","1","1","2","1","18562","","{""age"":""23"",""education"":""1"",""subject"":""2"",""gender"":""1"",""handedness"":""1"",""chinese"":""1""}","","","","","","","","","","","",""
"","survey-html-form","5","222745","0.0-5.0","uebu1eampj","one_one","1","direct_first","1","er09ov19","1","23","1","1","2","1","15486","","{}","","","","","","","","","","","",""
"","html-keyboard-response","6","226761","0.0-6.0-0.0-0.0","uebu1eampj","one_one","1","direct_first","1","er09ov19","1","23","1","1","2","1","null","","","<div class = 'row'><div class = 'column'><img src = 'usneg/9635.2.bmp' width = '100%;'></div><div class = 'column'><img src = 'category4/CS8.png' width = '70%;'></div></div>","null","neg","CS","CS","4","category4/CS8.png","","","","",""
"","html-keyboard-response","7","229270","0.0-6.0-0.0-0.1","uebu1eampj","one_one","1","direct_first","1","er09ov19","1","23","1","1","2","1","null","","","<div class = 'row'><div class = 'column'><img src = 'category2/CS10.png' width = '70%;'></div><div class = 'column'><img src = 'uspos/2057.bmp' width = '100%;'></div></div>","null","pos","CS","CS","2","category2/CS10.png","","","","",""
"","html-keyboard-response","8","231809","0.0-6.0-0.0-0.2","uebu1eampj","one_one","1","direct_first","1","er09ov19","1","23","1","1","2","1","null","","","<div class = 'row'><div class = 'column'><img src = 'uspos/2341.bmp' width = '100%;'></div><div class = 'column'><img src = 'category3/CS5.png' width = '70%;'></div></div>","null","pos","CS","CS","3","category3/CS5.png","","","","",""
"","html-keyboard-response","9","234350","0.0-6.0-0.0-0.3","uebu1eampj","one_one","1","direct_first","1","er09ov19","1","23","1","1","2","1","null","","","<div class = 'row'><div class = 'column'><img src = 'usneg/9635.2.bmp' width = '100%;'></div><div class = 'column'><img src = 'category4/CS8.png' width = '70%;'></div></div>","null","neg","CS","CS","4","category4/CS8.png","","","","",""
"","html-keyboard-response","10","236890","0.0-6.0-0.0-0.4","uebu1eampj","one_one","1","direct_first","1","er09ov19","1","23","1","1","2","1","null","","","<div class = 'row'><div class = 'column'><img src = 'category1/CS2.png' width = '70%;'></div><div class = 'column'><img src = 'usneg/9280.bmp' width = '100%;'></div></div>","null","neg","CS","CS","1","category1/CS2.png","","","","",""
"","html-keyboard-response","11","239429","0.0-6.0-0.0-0.5","uebu1eampj","one_one","1","direct_first","1","er09ov19","1","23","1","1","2","1","null","","","<div class = 'row'><div class = 'column'><img src = 'uspos/2057.bmp' width = '100%;'></div><div class = 'column'><img src = 'category2/CS10.png' width = '70%;'></div></div>","null","pos","CS","CS","2","category2/CS10.png","","","","",""
"","html-keyboard-response","12","241969","0.0-6.0-0.0-0.6","uebu1eampj","one_one","1","direct_first","1","er09ov19","1","23","1","1","2","1","null","","","<div class = 'row'><div class = 'column'><img src = 'category4/CS8.png' width = '70%;'></div><div class = 'column'><img src = 'usneg/9635.2.bmp' width = '100%;'></div></div>","null","neg","CS","CS","4","category4/CS8.png","","","","",""
"","html-keyboard-response","13","244489","0.0-6.0-0.0-0.7","uebu1eampj","one_one","1","direct_first","1","er09ov19","1","23","1","1","2","1","null","","","<div class = 'row'><div class = 'column'><img src = 'usneg/9280.bmp' width = '100%;'></div><div class = 'column'><img src = 'category1/CS2.png' width = '70%;'></div></div>","null","neg","CS","CS","1","category1/CS2.png","","","","",""
"","html-keyboard-response","14","247029","0.0-6.0-0.0-0.8","uebu1eampj","one_one","1","direct_first","1","er09ov19","1","23","1","1","2","1","null","","","<div class = 'row'><div class = 'column'><img src = 'uspos/2341.bmp' width = '100%;'></div><div class = 'column'><img src = 'category3/CS5.png' width = '70%;'></div></div>","null","pos","CS","CS","3","category3/CS5.png","","","","",""
"","html-keyboard-response","15","249549","0.0-6.0-0.0-0.9","uebu1eampj","one_one","1","direct_first","1","er09ov19","1","23","1","1","2","1","null","","","<div class = 'row'><div class = 'column'><img src = 'uspos/2057.bmp' width = '100%;'></div><div class = 'column'><img src = 'category2/CS10.png' width = '70%;'></div></div>","null","pos","CS","CS","2","category2/CS10.png","","","","",""
"","html-keyboard-response","16","252089","0.0-6.0-0.0-0.10","uebu1eampj","one_one","1","direct_first","1","er09ov19","1","23","1","1","2","1","null","","","<div class = 'row'><div class = 'column'><img src = 'category3/CS5.png' width = '70%;'></div><div class = 'column'><img src = 'uspos/2341.bmp' width = '100%;'></div></div>","null","pos","CS","CS","3","category3/CS5.png","","","","",""
"","html-keyboard-response","17","254629","0.0-6.0-0.0-0.11","uebu1eampj","one_one","1","direct_first","1","er09ov19","1","23","1","1","2","1","null","","","<div class = 'row'><div class = 'column'><img src = 'usneg/9280.bmp' width = '100%;'></div><div class = 'column'><img src = 'category1/CS2.png' width = '70%;'></div></div>","null","neg","CS","CS","1","category1/CS2.png","","","","",""
"","html-keyboard-response","18","257168","0.0-6.0-0.0-0.12","uebu1eampj","one_one","1","direct_first","1","er09ov19","1","23","1","1","2","1","null","","","<div class = 'row'><div class = 'column'><img src = 'category4/CS8.png' width = '70%;'></div><div class = 'column'><img src = 'usneg/9635.2.bmp' width = '100%;'></div></div>","null","neg","CS","CS","4","category4/CS8.png","","","","",""
"","html-keyboard-response","19","259709","0.0-6.0-0.0-0.13","uebu1eampj","one_one","1","direct_first","1","er09ov19","1","23","1","1","2","1","null","","","<div class = 'row'><div class = 'column'><img src = 'uspos/2341.bmp' width = '100%;'></div><div class = 'column'><img src = 'category3/CS5.png' width = '70%;'></div></div>","null","pos","CS","CS","3","category3/CS5.png","","","","",""
"","html-keyboard-response","20","262249","0.0-6.0-0.0-0.14","uebu1eampj","one_one","1","direct_first","1","er09ov19","1","23","1","1","2","1","null","","","<div class = 'row'><div class = 'column'><img src = 'category2/CS10.png' width = '70%;'></div><div class = 'column'><img src = 'uspos/2057.bmp' width = '100%;'></div></div>","null","pos","CS","CS","2","category2/CS10.png","","","","",""
"","html-keyboard-response","21","264789","0.0-6.0-0.0-0.15","uebu1eampj","one_one","1","direct_first","1","er09ov19","1","23","1","1","2","1","null","","","<div class = 'row'><div class = 'column'><img src = 'usneg/9280.bmp' width = '100%;'></div><div class = 'column'><img src = 'category1/CS2.png' width = '70%;'></div></div>","null","neg","CS","CS","1","category1/CS2.png","","","","",""
"","html-keyboard-response","22","267329","0.0-6.0-0.0-0.16","uebu1eampj","one_one","1","direct_first","1","er09ov19","1","23","1","1","2","1","null","","","<div class = 'row'><div class = 'column'><img src = 'category2/CS10.png' width = '70%;'></div><div class = 'column'><img src = 'uspos/2057.bmp' width = '100%;'></div></div>","null","pos","CS","CS","2","category2/CS10.png","","","","",""
"","html-keyboard-response","23","269869","0.0-6.0-0.0-0.17","uebu1eampj","one_one","1","direct_first","1","er09ov19","1","23","1","1","2","1","null","","","<div class = 'row'><div class = 'column'><img src = 'category3/CS5.png' width = '70%;'></div><div class = 'column'><img src = 'uspos/2341.bmp' width = '100%;'></div></div>","null","pos","CS","CS","3","category3/CS5.png","","","","",""
"","html-keyboard-response","24","272408","0.0-6.0-0.0-0.18","uebu1eampj","one_one","1","direct_first","1","er09ov19","1","23","1","1","2","1","null","","","<div class = 'row'><div class = 'column'><img src = 'usneg/9635.2.bmp' width = '100%;'></div><div class = 'column'><img src = 'category4/CS8.png' width = '70%;'></div></div>","null","neg","CS","CS","4","category4/CS8.png","","","","",""
"","html-keyboard-response","25","274949","0.0-6.0-0.0-0.19","uebu1eampj","one_one","1","direct_first","1","er09ov19","1","23","1","1","2","1","null","","","<div class = 'row'><div class = 'column'><img src = 'category1/CS2.png' width = '70%;'></div><div class = 'column'><img src = 'usneg/9280.bmp' width = '100%;'></div></div>","null","neg","CS","CS","1","category1/CS2.png","","","","",""
"","survey-html-form","26","278712","0.0-6.0-1.0","uebu1eampj","one_one","1","direct_first","1","er09ov19","1","23","1","1","2","1","3242","","{}","","","","","","","","","","","",""
"","html-keyboard-response","27","282748","0.0-6.0-2.0-0.0","uebu1eampj","one_one","1","direct_first","1","er09ov19","1","23","1","1","2","1","null","","","<div class = 'row'><div class = 'column'><img src = 'category2/CS10.png' width = '70%;'></div><div class = 'column'><img src = 'uspos/2057.bmp' width = '100%;'></div></div>","null","pos","CS","CS","2","category2/CS10.png","","","","",""
"","html-keyboard-response","28","285288","0.0-6.0-2.0-0.1","uebu1eampj","one_one","1","direct_first","1","er09ov19","1","23","1","1","2","1","null","","","<div class = 'row'><div class = 'column'><img src = 'usneg/9280.bmp' width = '100%;'></div><div class = 'column'><img src = 'category1/CS2.png' width = '70%;'></div></div>","null","neg","CS","CS","1","category1/CS2.png","","","","",""
"","html-keyboard-response","29","287829","0.0-6.0-2.0-0.2","uebu1eampj","one_one","1","direct_first","1","er09ov19","1","23","1","1","2","1","null","","","<div class = 'row'><div class = 'column'><img src = 'category2/CS10.png' width = '70%;'></div><div class = 'column'><img src = 'uspos/2057.bmp' width = '100%;'></div></div>","null","pos","CS","CS","2","category2/CS10.png","","","","",""
"","html-keyboard-response","30","290359","0.0-6.0-2.0-0.3","uebu1eampj","one_one","1","direct_first","1","er09ov19","1","23","1","1","2","1","null","","","<div class = 'row'><div class = 'column'><img src = 'usneg/9280.bmp' width = '100%;'></div><div class = 'column'><img src = 'category1/CS2.png' width = '70%;'></div></div>","null","neg","CS","CS","1","category1/CS2.png","","","","",""
"","html-keyboard-response","31","292898","0.0-6.0-2.0-0.4","uebu1eampj","one_one","1","direct_first","1","er09ov19","1","23","1","1","2","1","null","","","<div class = 'row'><div class = 'column'><img src = 'category3/CS5.png' width = '70%;'></div><div class = 'column'><img src = 'uspos/2341.bmp' width = '100%;'></div></div>","null","pos","CS","CS","3","category3/CS5.png","","","","",""
"","html-keyboard-response","32","295438","0.0-6.0-2.0-0.5","uebu1eampj","one_one","1","direct_first","1","er09ov19","1","23","1","1","2","1","null","","","<div class = 'row'><div class = 'column'><img src = 'category2/CS10.png' width = '70%;'></div><div class = 'column'><img src = 'uspos/2057.bmp' width = '100%;'></div></div>","null","pos","CS","CS","2","category2/CS10.png","","","","",""
"","html-keyboard-response","33","297978","0.0-6.0-2.0-0.6","uebu1eampj","one_one","1","direct_first","1","er09ov19","1","23","1","1","2","1","null","","","<div class = 'row'><div class = 'column'><img src = 'usneg/9635.2.bmp' width = '100%;'></div><div class = 'column'><img src = 'category4/CS8.png' width = '70%;'></div></div>","null","neg","CS","CS","4","category4/CS8.png","","","","",""
"","html-keyboard-response","34","300518","0.0-6.0-2.0-0.7","uebu1eampj","one_one","1","direct_first","1","er09ov19","1","23","1","1","2","1","null","","","<div class = 'row'><div class = 'column'><img src = 'category3/CS5.png' width = '70%;'></div><div class = 'column'><img src = 'uspos/2341.bmp' width = '100%;'></div></div>","null","pos","CS","CS","3","category3/CS5.png","","","","",""
"","html-keyboard-response","35","303058","0.0-6.0-2.0-0.8","uebu1eampj","one_one","1","direct_first","1","er09ov19","1","23","1","1","2","1","null","","","<div class = 'row'><div class = 'column'><img src = 'usneg/9280.bmp' width = '100%;'></div><div class = 'column'><img src = 'category1/CS2.png' width = '70%;'></div></div>","null","neg","CS","CS","1","category1/CS2.png","","","","",""
"","html-keyboard-response","36","305598","0.0-6.0-2.0-0.9","uebu1eampj","one_one","1","direct_first","1","er09ov19","1","23","1","1","2","1","null","","","<div class = 'row'><div class = 'column'><img src = 'category2/CS10.png' width = '70%;'></div><div class = 'column'><img src = 'uspos/2057.bmp' width = '100%;'></div></div>","null","pos","CS","CS","2","category2/CS10.png","","","","",""
"","html-keyboard-response","37","308138","0.0-6.0-2.0-0.10","uebu1eampj","one_one","1","direct_first","1","er09ov19","1","23","1","1","2","1","null","","","<div class = 'row'><div class = 'column'><img src = 'category3/CS5.png' width = '70%;'></div><div class = 'column'><img src = 'uspos/2341.bmp' width = '100%;'></div></div>","null","pos","CS","CS","3","category3/CS5.png","","","","",""
"","html-keyboard-response","38","310676","0.0-6.0-2.0-0.11","uebu1eampj","one_one","1","direct_first","1","er09ov19","1","23","1","1","2","1","null","","","<div class = 'row'><div class = 'column'><img src = 'usneg/9635.2.bmp' width = '100%;'></div><div class = 'column'><img src = 'category4/CS8.png' width = '70%;'></div></div>","null","neg","CS","CS","4","category4/CS8.png","","","","",""
"","html-keyboard-response","39","313178","0.0-6.0-2.0-0.12","uebu1eampj","one_one","1","direct_first","1","er09ov19","1","23","1","1","2","1","null","","","<div class = 'row'><div class = 'column'><img src = 'uspos/2341.bmp' width = '100%;'></div><div class = 'column'><img src = 'category3/CS5.png' width = '70%;'></div></div>","null","pos","CS","CS","3","category3/CS5.png","","","","",""
"","html-keyboard-response","40","315718","0.0-6.0-2.0-0.13","uebu1eampj","one_one","1","direct_first","1","er09ov19","1","23","1","1","2","1","null","","","<div class = 'row'><div class = 'column'><img src = 'category4/CS8.png' width = '70%;'></div><div class = 'column'><img src = 'usneg/9635.2.bmp' width = '100%;'></div></div>","null","neg","CS","CS","4","category4/CS8.png","","","","",""
"","html-keyboard-response","41","318258","0.0-6.0-2.0-0.14","uebu1eampj","one_one","1","direct_first","1","er09ov19","1","23","1","1","2","1","null","","","<div class = 'row'><div class = 'column'><img src = 'category1/CS2.png' width = '70%;'></div><div class = 'column'><img src = 'usneg/9280.bmp' width = '100%;'></div></div>","null","neg","CS","CS","1","category1/CS2.png","","","","",""
"","html-keyboard-response","42","320797","0.0-6.0-2.0-0.15","uebu1eampj","one_one","1","direct_first","1","er09ov19","1","23","1","1","2","1","null","","","<div class = 'row'><div class = 'column'><img src = 'usneg/9635.2.bmp' width = '100%;'></div><div class = 'column'><img src = 'category4/CS8.png' width = '70%;'></div></div>","null","neg","CS","CS","4","category4/CS8.png","","","","",""
"","html-keyboard-response","43","323338","0.0-6.0-2.0-0.16","uebu1eampj","one_one","1","direct_first","1","er09ov19","1","23","1","1","2","1","null","","","<div class = 'row'><div class = 'column'><img src = 'uspos/2057.bmp' width = '100%;'></div><div class = 'column'><img src = 'category2/CS10.png' width = '70%;'></div></div>","null","pos","CS","CS","2","category2/CS10.png","","","","",""
"","html-keyboard-response","44","325878","0.0-6.0-2.0-0.17","uebu1eampj","one_one","1","direct_first","1","er09ov19","1","23","1","1","2","1","null","","","<div class = 'row'><div class = 'column'><img src = 'uspos/2341.bmp' width = '100%;'></div><div class = 'column'><img src = 'category3/CS5.png' width = '70%;'></div></div>","null","pos","CS","CS","3","category3/CS5.png","","","","",""
"","html-keyboard-response","45","328417","0.0-6.0-2.0-0.18","uebu1eampj","one_one","1","direct_first","1","er09ov19","1","23","1","1","2","1","null","","","<div class = 'row'><div class = 'column'><img src = 'usneg/9280.bmp' width = '100%;'></div><div class = 'column'><img src = 'category1/CS2.png' width = '70%;'></div></div>","null","neg","CS","CS","1","category1/CS2.png","","","","",""
"","html-keyboard-response","46","330947","0.0-6.0-2.0-0.19","uebu1eampj","one_one","1","direct_first","1","er09ov19","1","23","1","1","2","1","null","","","<div class = 'row'><div class = 'column'><img src = 'category4/CS8.png' width = '70%;'></div><div class = 'column'><img src = 'usneg/9635.2.bmp' width = '100%;'></div></div>","null","neg","CS","CS","4","category4/CS8.png","","","","",""
"","survey-html-form","47","334448","0.0-6.0-3.0","uebu1eampj","one_one","1","direct_first","1","er09ov19","1","23","1","1","2","1","2979","","{}","","","","","","","","","","","",""
"","html-keyboard-response","48","338468","0.0-6.0-4.0-0.0","uebu1eampj","one_one","1","direct_first","1","er09ov19","1","23","1","1","2","1","null","","","<div class = 'row'><div class = 'column'><img src = 'uspos/2341.bmp' width = '100%;'></div><div class = 'column'><img src = 'category3/CS5.png' width = '70%;'></div></div>","null","pos","CS","CS","3","category3/CS5.png","","","","",""
"","html-keyboard-response","49","341008","0.0-6.0-4.0-0.1","uebu1eampj","one_one","1","direct_first","1","er09ov19","1","23","1","1","2","1","null","","","<div class = 'row'><div class = 'column'><img src = 'category4/CS8.png' width = '70%;'></div><div class = 'column'><img src = 'usneg/9635.2.bmp' width = '100%;'></div></div>","null","neg","CS","CS","4","category4/CS8.png","","","","",""
"","html-keyboard-response","50","343547","0.0-6.0-4.0-0.2","uebu1eampj","one_one","1","direct_first","1","er09ov19","1","23","1","1","2","1","null","","","<div class = 'row'><div class = 'column'><img src = 'category1/CS2.png' width = '70%;'></div><div class = 'column'><img src = 'usneg/9280.bmp' width = '100%;'></div></div>","null","neg","CS","CS","1","category1/CS2.png","","","","",""
"","html-keyboard-response","51","346087","0.0-6.0-4.0-0.3","uebu1eampj","one_one","1","direct_first","1","er09ov19","1","23","1","1","2","1","null","","","<div class = 'row'><div class = 'column'><img src = 'uspos/2341.bmp' width = '100%;'></div><div class = 'column'><img src = 'category3/CS5.png' width = '70%;'></div></div>","null","pos","CS","CS","3","category3/CS5.png","","","","",""
"","html-keyboard-response","52","348627","0.0-6.0-4.0-0.4","uebu1eampj","one_one","1","direct_first","1","er09ov19","1","23","1","1","2","1","null","","","<div class = 'row'><div class = 'column'><img src = 'category1/CS2.png' width = '70%;'></div><div class = 'column'><img src = 'usneg/9280.bmp' width = '100%;'></div></div>","null","neg","CS","CS","1","category1/CS2.png","","","","",""
"","html-keyboard-response","53","351167","0.0-6.0-4.0-0.5","uebu1eampj","one_one","1","direct_first","1","er09ov19","1","23","1","1","2","1","null","","","<div class = 'row'><div class = 'column'><img src = 'category3/CS5.png' width = '70%;'></div><div class = 'column'><img src = 'uspos/2341.bmp' width = '100%;'></div></div>","null","pos","CS","CS","3","category3/CS5.png","","","","",""
"","html-keyboard-response","54","353707","0.0-6.0-4.0-0.6","uebu1eampj","one_one","1","direct_first","1","er09ov19","1","23","1","1","2","1","null","","","<div class = 'row'><div class = 'column'><img src = 'uspos/2057.bmp' width = '100%;'></div><div class = 'column'><img src = 'category2/CS10.png' width = '70%;'></div></div>","null","pos","CS","CS","2","category2/CS10.png","","","","",""
"","html-keyboard-response","55","356247","0.0-6.0-4.0-0.7","uebu1eampj","one_one","1","direct_first","1","er09ov19","1","23","1","1","2","1","null","","","<div class = 'row'><div class = 'column'><img src = 'category4/CS8.png' width = '70%;'></div><div class = 'column'><img src = 'usneg/9635.2.bmp' width = '100%;'></div></div>","null","neg","CS","CS","4","category4/CS8.png","","","","",""
"","html-keyboard-response","56","358786","0.0-6.0-4.0-0.8","uebu1eampj","one_one","1","direct_first","1","er09ov19","1","23","1","1","2","1","null","","","<div class = 'row'><div class = 'column'><img src = 'category1/CS2.png' width = '70%;'></div><div class = 'column'><img src = 'usneg/9280.bmp' width = '100%;'></div></div>","null","neg","CS","CS","1","category1/CS2.png","","","","",""
"","html-keyboard-response","57","361326","0.0-6.0-4.0-0.9","uebu1eampj","one_one","1","direct_first","1","er09ov19","1","23","1","1","2","1","null","","","<div class = 'row'><div class = 'column'><img src = 'category2/CS10.png' width = '70%;'></div><div class = 'column'><img src = 'uspos/2057.bmp' width = '100%;'></div></div>","null","pos","CS","CS","2","category2/CS10.png","","","","",""
"","html-keyboard-response","58","363837","0.0-6.0-4.0-0.10","uebu1eampj","one_one","1","direct_first","1","er09ov19","1","23","1","1","2","1","null","","","<div class = 'row'><div class = 'column'><img src = 'category4/CS8.png' width = '70%;'></div><div class = 'column'><img src = 'usneg/9635.2.bmp' width = '100%;'></div></div>","null","neg","CS","CS","4","category4/CS8.png","","","","",""
"","html-keyboard-response","59","366377","0.0-6.0-4.0-0.11","uebu1eampj","one_one","1","direct_first","1","er09ov19","1","23","1","1","2","1","null","","","<div class = 'row'><div class = 'column'><img src = 'category2/CS10.png' width = '70%;'></div><div class = 'column'><img src = 'uspos/2057.bmp' width = '100%;'></div></div>","null","pos","CS","CS","2","category2/CS10.png","","","","",""
"","html-keyboard-response","60","368917","0.0-6.0-4.0-0.12","uebu1eampj","one_one","1","direct_first","1","er09ov19","1","23","1","1","2","1","null","","","<div class = 'row'><div class = 'column'><img src = 'category4/CS8.png' width = '70%;'></div><div class = 'column'><img src = 'usneg/9635.2.bmp' width = '100%;'></div></div>","null","neg","CS","CS","4","category4/CS8.png","","","","",""
"","html-keyboard-response","61","371444","0.0-6.0-4.0-0.13","uebu1eampj","one_one","1","direct_first","1","er09ov19","1","23","1","1","2","1","null","","","<div class = 'row'><div class = 'column'><img src = 'uspos/2057.bmp' width = '100%;'></div><div class = 'column'><img src = 'category2/CS10.png' width = '70%;'></div></div>","null","pos","CS","CS","2","category2/CS10.png","","","","",""
"","html-keyboard-response","62","373947","0.0-6.0-4.0-0.14","uebu1eampj","one_one","1","direct_first","1","er09ov19","1","23","1","1","2","1","null","","","<div class = 'row'><div class = 'column'><img src = 'category1/CS2.png' width = '70%;'></div><div class = 'column'><img src = 'usneg/9280.bmp' width = '100%;'></div></div>","null","neg","CS","CS","1","category1/CS2.png","","","","",""
"","html-keyboard-response","63","376486","0.0-6.0-4.0-0.15","uebu1eampj","one_one","1","direct_first","1","er09ov19","1","23","1","1","2","1","null","","","<div class = 'row'><div class = 'column'><img src = 'uspos/2341.bmp' width = '100%;'></div><div class = 'column'><img src = 'category3/CS5.png' width = '70%;'></div></div>","null","pos","CS","CS","3","category3/CS5.png","","","","",""
"","html-keyboard-response","64","379027","0.0-6.0-4.0-0.16","uebu1eampj","one_one","1","direct_first","1","er09ov19","1","23","1","1","2","1","null","","","<div class = 'row'><div class = 'column'><img src = 'usneg/9280.bmp' width = '100%;'></div><div class = 'column'><img src = 'category1/CS2.png' width = '70%;'></div></div>","null","neg","CS","CS","1","category1/CS2.png","","","","",""
"","html-keyboard-response","65","381547","0.0-6.0-4.0-0.17","uebu1eampj","one_one","1","direct_first","1","er09ov19","1","23","1","1","2","1","null","","","<div class = 'row'><div class = 'column'><img src = 'category2/CS10.png' width = '70%;'></div><div class = 'column'><img src = 'uspos/2057.bmp' width = '100%;'></div></div>","null","pos","CS","CS","2","category2/CS10.png","","","","",""
"","html-keyboard-response","66","384087","0.0-6.0-4.0-0.18","uebu1eampj","one_one","1","direct_first","1","er09ov19","1","23","1","1","2","1","null","","","<div class = 'row'><div class = 'column'><img src = 'usneg/9635.2.bmp' width = '100%;'></div><div class = 'column'><img src = 'category4/CS8.png' width = '70%;'></div></div>","null","neg","CS","CS","4","category4/CS8.png","","","","",""
"","html-keyboard-response","67","386627","0.0-6.0-4.0-0.19","uebu1eampj","one_one","1","direct_first","1","er09ov19","1","23","1","1","2","1","null","","","<div class = 'row'><div class = 'column'><img src = 'uspos/2341.bmp' width = '100%;'></div><div class = 'column'><img src = 'category3/CS5.png' width = '70%;'></div></div>","null","pos","CS","CS","3","category3/CS5.png","","","","",""
"","survey-html-form","68","389934","0.0-6.0-5.0","uebu1eampj","one_one","1","direct_first","1","er09ov19","1","23","1","1","2","1","2787","","{}","","","","","","","","","","","",""
"","html-keyboard-response","69","393966","0.0-6.0-6.0-0.0","uebu1eampj","one_one","1","direct_first","1","er09ov19","1","23","1","1","2","1","null","","","<div class = 'row'><div class = 'column'><img src = 'category2/CS10.png' width = '70%;'></div><div class = 'column'><img src = 'uspos/2057.bmp' width = '100%;'></div></div>","null","pos","CS","CS","2","category2/CS10.png","","","","",""
"","html-keyboard-response","70","396507","0.0-6.0-6.0-0.1","uebu1eampj","one_one","1","direct_first","1","er09ov19","1","23","1","1","2","1","null","","","<div class = 'row'><div class = 'column'><img src = 'usneg/9280.bmp' width = '100%;'></div><div class = 'column'><img src = 'category1/CS2.png' width = '70%;'></div></div>","null","neg","CS","CS","1","category1/CS2.png","","","","",""
"","html-keyboard-response","71","399047","0.0-6.0-6.0-0.2","uebu1eampj","one_one","1","direct_first","1","er09ov19","1","23","1","1","2","1","null","","","<div class = 'row'><div class = 'column'><img src = 'usneg/9635.2.bmp' width = '100%;'></div><div class = 'column'><img src = 'category4/CS8.png' width = '70%;'></div></div>","null","neg","CS","CS","4","category4/CS8.png","","","","",""
"","html-keyboard-response","72","401586","0.0-6.0-6.0-0.3","uebu1eampj","one_one","1","direct_first","1","er09ov19","1","23","1","1","2","1","null","","","<div class = 'row'><div class = 'column'><img src = 'usneg/9280.bmp' width = '100%;'></div><div class = 'column'><img src = 'category1/CS2.png' width = '70%;'></div></div>","null","neg","CS","CS","1","category1/CS2.png","","","","",""
"","html-keyboard-response","73","404125","0.0-6.0-6.0-0.4","uebu1eampj","one_one","1","direct_first","1","er09ov19","1","23","1","1","2","1","null","","","<div class = 'row'><div class = 'column'><img src = 'uspos/2341.bmp' width = '100%;'></div><div class = 'column'><img src = 'category3/CS5.png' width = '70%;'></div></div>","null","pos","CS","CS","3","category3/CS5.png","","","","",""
"","html-keyboard-response","74","406646","0.0-6.0-6.0-0.5","uebu1eampj","one_one","1","direct_first","1","er09ov19","1","23","1","1","2","1","null","","","<div class = 'row'><div class = 'column'><img src = 'category2/CS10.png' width = '70%;'></div><div class = 'column'><img src = 'uspos/2057.bmp' width = '100%;'></div></div>","null","pos","CS","CS","2","category2/CS10.png","","","","",""
"","html-keyboard-response","75","409187","0.0-6.0-6.0-0.6","uebu1eampj","one_one","1","direct_first","1","er09ov19","1","23","1","1","2","1","null","","","<div class = 'row'><div class = 'column'><img src = 'category3/CS5.png' width = '70%;'></div><div class = 'column'><img src = 'uspos/2341.bmp' width = '100%;'></div></div>","null","pos","CS","CS","3","category3/CS5.png","","","","",""
"","html-keyboard-response","76","411726","0.0-6.0-6.0-0.7","uebu1eampj","one_one","1","direct_first","1","er09ov19","1","23","1","1","2","1","null","","","<div class = 'row'><div class = 'column'><img src = 'usneg/9635.2.bmp' width = '100%;'></div><div class = 'column'><img src = 'category4/CS8.png' width = '70%;'></div></div>","null","neg","CS","CS","4","category4/CS8.png","","","","",""
"","html-keyboard-response","77","414256","0.0-6.0-6.0-0.8","uebu1eampj","one_one","1","direct_first","1","er09ov19","1","23","1","1","2","1","null","","","<div class = 'row'><div class = 'column'><img src = 'category3/CS5.png' width = '70%;'></div><div class = 'column'><img src = 'uspos/2341.bmp' width = '100%;'></div></div>","null","pos","CS","CS","3","category3/CS5.png","","","","",""
"","html-keyboard-response","78","416796","0.0-6.0-6.0-0.9","uebu1eampj","one_one","1","direct_first","1","er09ov19","1","23","1","1","2","1","null","","","<div class = 'row'><div class = 'column'><img src = 'category4/CS8.png' width = '70%;'></div><div class = 'column'><img src = 'usneg/9635.2.bmp' width = '100%;'></div></div>","null","neg","CS","CS","4","category4/CS8.png","","","","",""
"","html-keyboard-response","79","419337","0.0-6.0-6.0-0.10","uebu1eampj","one_one","1","direct_first","1","er09ov19","1","23","1","1","2","1","null","","","<div class = 'row'><div class = 'column'><img src = 'uspos/2341.bmp' width = '100%;'></div><div class = 'column'><img src = 'category3/CS5.png' width = '70%;'></div></div>","null","pos","CS","CS","3","category3/CS5.png","","","","",""
"","html-keyboard-response","80","421873","0.0-6.0-6.0-0.11","uebu1eampj","one_one","1","direct_first","1","er09ov19","1","23","1","1","2","1","null","","","<div class = 'row'><div class = 'column'><img src = 'usneg/9280.bmp' width = '100%;'></div><div class = 'column'><img src = 'category1/CS2.png' width = '70%;'></div></div>","null","neg","CS","CS","1","category1/CS2.png","","","","",""
"","html-keyboard-response","81","424377","0.0-6.0-6.0-0.12","uebu1eampj","one_one","1","direct_first","1","er09ov19","1","23","1","1","2","1","null","","","<div class = 'row'><div class = 'column'><img src = 'uspos/2057.bmp' width = '100%;'></div><div class = 'column'><img src = 'category2/CS10.png' width = '70%;'></div></div>","null","pos","CS","CS","2","category2/CS10.png","","","","",""
"","html-keyboard-response","82","426916","0.0-6.0-6.0-0.13","uebu1eampj","one_one","1","direct_first","1","er09ov19","1","23","1","1","2","1","null","","","<div class = 'row'><div class = 'column'><img src = 'category4/CS8.png' width = '70%;'></div><div class = 'column'><img src = 'usneg/9635.2.bmp' width = '100%;'></div></div>","null","neg","CS","CS","4","category4/CS8.png","","","","",""
"","html-keyboard-response","83","429456","0.0-6.0-6.0-0.14","uebu1eampj","one_one","1","direct_first","1","er09ov19","1","23","1","1","2","1","null","","","<div class = 'row'><div class = 'column'><img src = 'usneg/9280.bmp' width = '100%;'></div><div class = 'column'><img src = 'category1/CS2.png' width = '70%;'></div></div>","null","neg","CS","CS","1","category1/CS2.png","","","","",""
"","html-keyboard-response","84","431996","0.0-6.0-6.0-0.15","uebu1eampj","one_one","1","direct_first","1","er09ov19","1","23","1","1","2","1","null","","","<div class = 'row'><div class = 'column'><img src = 'uspos/2057.bmp' width = '100%;'></div><div class = 'column'><img src = 'category2/CS10.png' width = '70%;'></div></div>","null","pos","CS","CS","2","category2/CS10.png","","","","",""
"","html-keyboard-response","85","434516","0.0-6.0-6.0-0.16","uebu1eampj","one_one","1","direct_first","1","er09ov19","1","23","1","1","2","1","null","","","<div class = 'row'><div class = 'column'><img src = 'category3/CS5.png' width = '70%;'></div><div class = 'column'><img src = 'uspos/2341.bmp' width = '100%;'></div></div>","null","pos","CS","CS","3","category3/CS5.png","","","","",""
"","html-keyboard-response","86","437046","0.0-6.0-6.0-0.17","uebu1eampj","one_one","1","direct_first","1","er09ov19","1","23","1","1","2","1","null","","","<div class = 'row'><div class = 'column'><img src = 'usneg/9280.bmp' width = '100%;'></div><div class = 'column'><img src = 'category1/CS2.png' width = '70%;'></div></div>","null","neg","CS","CS","1","category1/CS2.png","","","","",""
"","html-keyboard-response","87","439587","0.0-6.0-6.0-0.18","uebu1eampj","one_one","1","direct_first","1","er09ov19","1","23","1","1","2","1","null","","","<div class = 'row'><div class = 'column'><img src = 'category4/CS8.png' width = '70%;'></div><div class = 'column'><img src = 'usneg/9635.2.bmp' width = '100%;'></div></div>","null","neg","CS","CS","4","category4/CS8.png","","","","",""
"","html-keyboard-response","88","442117","0.0-6.0-6.0-0.19","uebu1eampj","one_one","1","direct_first","1","er09ov19","1","23","1","1","2","1","null","","","<div class = 'row'><div class = 'column'><img src = 'category2/CS10.png' width = '70%;'></div><div class = 'column'><img src = 'uspos/2057.bmp' width = '100%;'></div></div>","null","pos","CS","CS","2","category2/CS10.png","","","","",""
"","survey-html-form","89","452806","0.0-7.0","uebu1eampj","one_one","1","direct_first","1","er09ov19","1","23","1","1","2","1","10169","","{}","","","","","","","","","","","",""
"","image-slider-response","90","468293","0.0-8.0-0.0","uebu1eampj","one_one","1","direct_first","1","er09ov19","1","23","1","1","2","1","13482","","","","","neg","GS","GSold","1","category1/CS1.png","-34","targets/16.png","direct","",""
"","image-slider-response","91","471852","0.0-8.0-0.1","uebu1eampj","one_one","1","direct_first","1","er09ov19","1","23","1","1","2","1","3559","","","","","pos","GS","GSold","2","category2/CS3.png","36","targets/39.png","direct","",""
"","image-slider-response","92","477981","0.0-8.0-0.2","uebu1eampj","one_one","1","direct_first","1","er09ov19","1","23","1","1","2","1","6126","","","","","pos","GS","GSnew","2","category2/GS3.png","-15","targets/29.png","direct","",""
"","image-slider-response","93","482620","0.0-8.0-0.3","uebu1eampj","one_one","1","direct_first","1","er09ov19","1","23","1","1","2","1","4639","","","","","pos","GS","GSnew","3","category3/GS2.png","-87","targets/18.png","direct","",""
"","image-slider-response","94","487509","0.0-8.0-0.4","uebu1eampj","one_one","1","direct_first","1","er09ov19","1","23","1","1","2","1","4887","","","","","pos","GS","GSold","3","category3/CS1.png","-23","targets/26.png","direct","",""
"","image-slider-response","95","490237","0.0-8.0-0.5","uebu1eampj","one_one","1","direct_first","1","er09ov19","1","23","1","1","2","1","2728","","","","","neg","GS","GSold","4","category4/CS1.png","-63","targets/8.png","direct","",""
"","image-slider-response","96","493293","0.0-8.0-0.6","uebu1eampj","one_one","1","direct_first","1","er09ov19","1","23","1","1","2","1","3055","","","","","neg","GS","GSnew","1","category1/GS3.png","-63","targets/21.png","direct","",""
"","image-slider-response","97","495469","0.0-8.0-0.7","uebu1eampj","one_one","1","direct_first","1","er09ov19","1","23","1","1","2","1","2174","","","","","neg","GS","abstract","1","category1/ma.png","-32","targets/7.png","direct","",""
"","image-slider-response","98","497836","0.0-8.0-0.8","uebu1eampj","one_one","1","direct_first","1","er09ov19","1","23","1","1","2","1","2367","","","","","pos","GS","GSnew","2","category2/GS1.png","-15","targets/23.png","direct","",""
"","image-slider-response","99","500421","0.0-8.0-0.9","uebu1eampj","one_one","1","direct_first","1","er09ov19","1","23","1","1","2","1","2583","","","","","neg","CS","CS","1","category1/CS2.png","-84","targets/35.png","direct","",""
"","image-slider-response","100","503213","0.0-8.0-0.10","uebu1eampj","one_one","1","direct_first","1","er09ov19","1","23","1","1","2","1","2790","","","","","pos","GS","GSnew","2","category2/GS2.png","-37","targets/12.png","direct","",""
"","image-slider-response","101","507468","0.0-8.0-0.11","uebu1eampj","one_one","1","direct_first","1","er09ov19","1","23","1","1","2","1","4254","","","","","pos","GS","GSnew","3","category3/GS3.png","57","targets/17.png","direct","",""
"","image-slider-response","102","509636","0.0-8.0-0.12","uebu1eampj","one_one","1","direct_first","1","er09ov19","1","23","1","1","2","1","2166","","","","","pos","GS","GSnew","3","category3/GS1.png","-45","targets/1.png","direct","",""
"","image-slider-response","103","512036","0.0-8.0-0.13","uebu1eampj","one_one","1","direct_first","1","er09ov19","1","23","1","1","2","1","2398","","","","","pos","GS","GSold","3","category3/CS7.png","-26","targets/46.png","direct","",""
"","image-slider-response","104","514165","0.0-8.0-0.14","uebu1eampj","one_one","1","direct_first","1","er09ov19","1","23","1","1","2","1","2127","","","","","pos","CS","CS","2","category2/CS10.png","62","targets/37.png","direct","",""
"","image-slider-response","105","516365","0.0-8.0-0.15","uebu1eampj","one_one","1","direct_first","1","er09ov19","1","23","1","1","2","1","2199","","","","","pos","GS","GSold","2","category2/CS1.png","46","targets/5.png","direct","",""
"","image-slider-response","106","520020","0.0-8.0-0.16","uebu1eampj","one_one","1","direct_first","1","er09ov19","1","23","1","1","2","1","3655","","","","","neg","GS","GSnew","4","category4/GS3.png","-63","targets/6.png","direct","",""
"","image-slider-response","107","522132","0.0-8.0-0.17","uebu1eampj","one_one","1","direct_first","1","er09ov19","1","23","1","1","2","1","2111","","","","","neg","GS","GSnew","4","category4/GS1.png","-40","targets/2.png","direct","",""
"","image-slider-response","108","525100","0.0-8.0-0.18","uebu1eampj","one_one","1","direct_first","1","er09ov19","1","23","1","1","2","1","2966","","","","","neg","GS","GSold","1","category1/CS10.png","-57","targets/11.png","direct","",""
"","image-slider-response","109","529076","0.0-8.0-0.19","uebu1eampj","one_one","1","direct_first","1","er09ov19","1","23","1","1","2","1","3975","","","","","pos","GS","GSold","3","category3/CS10.png","-52","targets/15.png","direct","",""
"","image-slider-response","110","531036","0.0-8.0-0.20","uebu1eampj","one_one","1","direct_first","1","er09ov19","1","23","1","1","2","1","1959","","","","","pos","GS","GSold","2","category2/CS2.png","64","targets/13.png","direct","",""
"","image-slider-response","111","533476","0.0-8.0-0.21","uebu1eampj","one_one","1","direct_first","1","er09ov19","1","23","1","1","2","1","2439","","","","","neg","GS","GSold","4","category4/CS9.png","-56","targets/36.png","direct","",""
"","image-slider-response","112","535540","0.0-8.0-0.22","uebu1eampj","one_one","1","direct_first","1","er09ov19","1","23","1","1","2","1","2062","","","","","neg","CS","CS","4","category4/CS8.png","-100","targets/33.png","direct","",""
"","image-slider-response","113","539604","0.0-8.0-0.23","uebu1eampj","one_one","1","direct_first","1","er09ov19","1","23","1","1","2","1","4063","","","","","pos","GS","abstract","2","category2/men.png","100","targets/4.png","direct","",""
"","image-slider-response","114","541708","0.0-8.0-0.24","uebu1eampj","one_one","1","direct_first","1","er09ov19","1","23","1","1","2","1","2101","","","","","pos","CS","CS","3","category3/CS5.png","86","targets/19.png","direct","",""
"","image-slider-response","115","544524","0.0-8.0-0.25","uebu1eampj","one_one","1","direct_first","1","er09ov19","1","23","1","1","2","1","2816","","","","","neg","GS","GSold","4","category4/CS5.png","-58","targets/32.png","direct","",""
"","image-slider-response","116","546564","0.0-8.0-0.26","uebu1eampj","one_one","1","direct_first","1","er09ov19","1","23","1","1","2","1","2038","","","","","neg","GS","GSold","1","category1/CS9.png","-40","targets/20.png","direct","",""
"","image-slider-response","117","548828","0.0-8.0-0.27","uebu1eampj","one_one","1","direct_first","1","er09ov19","1","23","1","1","2","1","2262","","","","","neg","GS","abstract","4","category4/lin.png","-40","targets/9.png","direct","",""
"","image-slider-response","118","550988","0.0-8.0-0.28","uebu1eampj","one_one","1","direct_first","1","er09ov19","1","23","1","1","2","1","2158","","","","","neg","GS","GSnew","1","category1/GS2.png","-63","targets/30.png","direct","",""
"","image-slider-response","119","552996","0.0-8.0-0.29","uebu1eampj","one_one","1","direct_first","1","er09ov19","1","23","1","1","2","1","2007","","","","","neg","GS","GSnew","1","category1/GS1.png","-36","targets/25.png","direct","",""
"","image-slider-response","120","555316","0.0-8.0-0.30","uebu1eampj","one_one","1","direct_first","1","er09ov19","1","23","1","1","2","1","2319","","","","","pos","GS","abstract","3","category3/wang.png","43","targets/10.png","direct","",""
"","image-slider-response","121","557428","0.0-8.0-0.31","uebu1eampj","one_one","1","direct_first","1","er09ov19","1","23","1","1","2","1","2111","","","","","neg","GS","GSnew","4","category4/GS2.png","-51","targets/27.png","direct","",""
"","html-keyboard-response","122","602518","0.0-9.0","uebu1eampj","one_one","1","direct_first","1","er09ov19","1","23","1","1","2","1","45089","","","<p>Sie sehen nun die chinesischen Zeichen nur ganz kurz. Danach sehen Sie die jeweilige Aussprache der Zeichen als Silbe auf dem Bildschrim. Ihre Aufgabe ist es, für jede Silbe anzugeben, ob diese etwas angenehmes, oder unangenehmes bedeuten könnte. Verlassen Sie sich hier vor allem auf Ihre Intuition.<br><br>Die Zeichen werden nur zur Orientierung dargestellt, beachten Sie sie deshalb nicht. Konzentrieren Sie sich vor allem auf die Silben. <br>Reagieren Sie mit folgenden zwei Tasten: <br><br><b>'D' </b> wenn die Silbe etwas <b>unangenehmes</b> bedeuten könnte. <br><b>'K'</b> wenn die Silbe etwas <b>angenehmes</b> bedeuten könnte. <br><br>Bitte legen Sie nun den Zeigefinger der linken Hand auf die Taste 'D' und den Zeigefinger der rechten Hand auf die Taste 'K'. <br>Reagieren Sie auf jede Silbe so schnell wie möglich. Uns interessiert Ihre spontane Reaktion. <br> <br> <br>Drücken Sie 'D' oder 'K', um die nächste Aufgabe zu starten. </p>","75","","","","","","","","","",""
"","html-keyboard-response","123","605555","0.0-10.0-0.0","uebu1eampj","one_one","1","direct_first","1","er09ov19","1","23","1","1","2","1","null","","","<div style=""font-size:60px;"">+</div>","null","","","","","","","","","",""
"","html-keyboard-response","124","605655","0.0-10.0-1.0","uebu1eampj","one_one","1","direct_first","1","er09ov19","1","23","1","1","2","1","null","","","<img src = 'category1/CS9.png' width = '100%;'>","null","","","","","","","","","",""
"","html-keyboard-response","125","605936","0.0-10.0-2.0","uebu1eampj","one_one","1","direct_first","1","er09ov19","1","23","1","1","2","1","null","","","<img src = 'targets/20.png' width = '100%;'>","null","","","","","","","","","",""
"","html-keyboard-response","126","612277","0.0-10.0-3.0","uebu1eampj","one_one","1","direct_first","1","er09ov19","1","23","1","1","2","1","6340","","","<img src = 'targets/mask.png' width = '100%;'>","75","neg","GS","GSold","1","category1/CS9.png","","targets/20.png","indirect","1","0"
"","html-keyboard-response","127","613815","0.0-10.0-0.1","uebu1eampj","one_one","1","direct_first","1","er09ov19","1","23","1","1","2","1","null","","","<div style=""font-size:60px;"">+</div>","null","","","","","","","","","",""
"","html-keyboard-response","128","613915","0.0-10.0-1.1","uebu1eampj","one_one","1","direct_first","1","er09ov19","1","23","1","1","2","1","null","","","<img src = 'category4/CS5.png' width = '100%;'>","null","","","","","","","","","",""
"","html-keyboard-response","129","614185","0.0-10.0-2.1","uebu1eampj","one_one","1","direct_first","1","er09ov19","1","23","1","1","2","1","null","","","<img src = 'targets/32.png' width = '100%;'>","null","","","","","","","","","",""
"","html-keyboard-response","130","614861","0.0-10.0-3.1","uebu1eampj","one_one","1","direct_first","1","er09ov19","1","23","1","1","2","1","676","","","<img src = 'targets/mask.png' width = '100%;'>","68","neg","GS","GSold","4","category4/CS5.png","","targets/32.png","indirect","0","1"
"","html-keyboard-response","131","616364","0.0-10.0-0.2","uebu1eampj","one_one","1","direct_first","1","er09ov19","1","23","1","1","2","1","null","","","<div style=""font-size:60px;"">+</div>","null","","","","","","","","","",""
"","html-keyboard-response","132","616466","0.0-10.0-1.2","uebu1eampj","one_one","1","direct_first","1","er09ov19","1","23","1","1","2","1","null","","","<img src = 'category1/CS1.png' width = '100%;'>","null","","","","","","","","","",""
"","html-keyboard-response","133","616745","0.0-10.0-2.2","uebu1eampj","one_one","1","direct_first","1","er09ov19","1","23","1","1","2","1","null","","","<img src = 'targets/16.png' width = '100%;'>","null","","","","","","","","","",""
"","html-keyboard-response","134","617549","0.0-10.0-3.2","uebu1eampj","one_one","1","direct_first","1","er09ov19","1","23","1","1","2","1","802","","","<img src = 'targets/mask.png' width = '100%;'>","68","neg","GS","GSold","1","category1/CS1.png","","targets/16.png","indirect","0","2"
"","html-keyboard-response","135","619084","0.0-10.0-0.3","uebu1eampj","one_one","1","direct_first","1","er09ov19","1","23","1","1","2","1","null","","","<div style=""font-size:60px;"">+</div>","null","","","","","","","","","",""
"","html-keyboard-response","136","619185","0.0-10.0-1.3","uebu1eampj","one_one","1","direct_first","1","er09ov19","1","23","1","1","2","1","null","","","<img src = 'category1/CS2.png' width = '100%;'>","null","","","","","","","","","",""
"","html-keyboard-response","137","619465","0.0-10.0-2.3","uebu1eampj","one_one","1","direct_first","1","er09ov19","1","23","1","1","2","1","null","","","<img src = 'targets/35.png' width = '100%;'>","null","","","","","","","","","",""
"","html-keyboard-response","138","620349","0.0-10.0-3.3","uebu1eampj","one_one","1","direct_first","1","er09ov19","1","23","1","1","2","1","882","","","<img src = 'targets/mask.png' width = '100%;'>","68","neg","CS","CS","1","category1/CS2.png","","targets/35.png","indirect","0","3"
"","html-keyboard-response","139","621885","0.0-10.0-0.4","uebu1eampj","one_one","1","direct_first","1","er09ov19","1","23","1","1","2","1","null","","","<div style=""font-size:60px;"">+</div>","null","","","","","","","","","",""
"","html-keyboard-response","140","621985","0.0-10.0-1.4","uebu1eampj","one_one","1","direct_first","1","er09ov19","1","23","1","1","2","1","null","","","<img src = 'category3/CS10.png' width = '100%;'>","null","","","","","","","","","",""
"","html-keyboard-response","141","622260","0.0-10.0-2.4","uebu1eampj","one_one","1","direct_first","1","er09ov19","1","23","1","1","2","1","null","","","<img src = 'targets/15.png' width = '100%;'>","null","","","","","","","","","",""
"","html-keyboard-response","142","623133","0.0-10.0-3.4","uebu1eampj","one_one","1","direct_first","1","er09ov19","1","23","1","1","2","1","871","","","<img src = 'targets/mask.png' width = '100%;'>","75","pos","GS","GSold","3","category3/CS10.png","","targets/15.png","indirect","1","4"
"","html-keyboard-response","143","624664","0.0-10.0-0.5","uebu1eampj","one_one","1","direct_first","1","er09ov19","1","23","1","1","2","1","null","","","<div style=""font-size:60px;"">+</div>","null","","","","","","","","","",""
"","html-keyboard-response","144","624765","0.0-10.0-1.5","uebu1eampj","one_one","1","direct_first","1","er09ov19","1","23","1","1","2","1","null","","","<img src = 'category1/CS10.png' width = '100%;'>","null","","","","","","","","","",""
"","html-keyboard-response","145","625045","0.0-10.0-2.5","uebu1eampj","one_one","1","direct_first","1","er09ov19","1","23","1","1","2","1","null","","","<img src = 'targets/11.png' width = '100%;'>","null","","","","","","","","","",""
"","html-keyboard-response","146","628525","0.0-10.0-3.5","uebu1eampj","one_one","1","direct_first","1","er09ov19","1","23","1","1","2","1","3478","","","<img src = 'targets/mask.png' width = '100%;'>","75","neg","GS","GSold","1","category1/CS10.png","","targets/11.png","indirect","1","5"
"","html-keyboard-response","147","630065","0.0-10.0-0.6","uebu1eampj","one_one","1","direct_first","1","er09ov19","1","23","1","1","2","1","null","","","<div style=""font-size:60px;"">+</div>","null","","","","","","","","","",""
"","html-keyboard-response","148","630165","0.0-10.0-1.6","uebu1eampj","one_one","1","direct_first","1","er09ov19","1","23","1","1","2","1","null","","","<img src = 'category3/CS1.png' width = '100%;'>","null","","","","","","","","","",""
"","html-keyboard-response","149","630445","0.0-10.0-2.6","uebu1eampj","one_one","1","direct_first","1","er09ov19","1","23","1","1","2","1","null","","","<img src = 'targets/26.png' width = '100%;'>","null","","","","","","","","","",""
"","html-keyboard-response","150","631173","0.0-10.0-3.6","uebu1eampj","one_one","1","direct_first","1","er09ov19","1","23","1","1","2","1","725","","","<img src = 'targets/mask.png' width = '100%;'>","75","pos","GS","GSold","3","category3/CS1.png","","targets/26.png","indirect","1","6"
"","html-keyboard-response","151","632694","0.0-10.0-0.7","uebu1eampj","one_one","1","direct_first","1","er09ov19","1","23","1","1","2","1","null","","","<div style=""font-size:60px;"">+</div>","null","","","","","","","","","",""
"","html-keyboard-response","152","632795","0.0-10.0-1.7","uebu1eampj","one_one","1","direct_first","1","er09ov19","1","23","1","1","2","1","null","","","<img src = 'category3/CS7.png' width = '100%;'>","null","","","","","","","","","",""
"","html-keyboard-response","153","633074","0.0-10.0-2.7","uebu1eampj","one_one","1","direct_first","1","er09ov19","1","23","1","1","2","1","null","","","<img src = 'targets/46.png' width = '100%;'>","null","","","","","","","","","",""
"","html-keyboard-response","154","633549","0.0-10.0-3.7","uebu1eampj","one_one","1","direct_first","1","er09ov19","1","23","1","1","2","1","473","","","<img src = 'targets/mask.png' width = '100%;'>","68","pos","GS","GSold","3","category3/CS7.png","","targets/46.png","indirect","0","7"
"","html-keyboard-response","155","635055","0.0-10.0-0.8","uebu1eampj","one_one","1","direct_first","1","er09ov19","1","23","1","1","2","1","null","","","<div style=""font-size:60px;"">+</div>","null","","","","","","","","","",""
"","html-keyboard-response","156","635155","0.0-10.0-1.8","uebu1eampj","one_one","1","direct_first","1","er09ov19","1","23","1","1","2","1","null","","","<img src = 'category4/CS1.png' width = '100%;'>","null","","","","","","","","","",""
"","html-keyboard-response","157","635435","0.0-10.0-2.8","uebu1eampj","one_one","1","direct_first","1","er09ov19","1","23","1","1","2","1","null","","","<img src = 'targets/8.png' width = '100%;'>","null","","","","","","","","","",""
"","html-keyboard-response","158","638205","0.0-10.0-3.8","uebu1eampj","one_one","1","direct_first","1","er09ov19","1","23","1","1","2","1","2768","","","<img src = 'targets/mask.png' width = '100%;'>","68","neg","GS","GSold","4","category4/CS1.png","","targets/8.png","indirect","0","8"
"","html-keyboard-response","159","639745","0.0-10.0-0.9","uebu1eampj","one_one","1","direct_first","1","er09ov19","1","23","1","1","2","1","null","","","<div style=""font-size:60px;"">+</div>","null","","","","","","","","","",""
"","html-keyboard-response","160","639845","0.0-10.0-1.9","uebu1eampj","one_one","1","direct_first","1","er09ov19","1","23","1","1","2","1","null","","","<img src = 'category3/CS5.png' width = '100%;'>","null","","","","","","","","","",""
"","html-keyboard-response","161","640104","0.0-10.0-2.9","uebu1eampj","one_one","1","direct_first","1","er09ov19","1","23","1","1","2","1","null","","","<img src = 'targets/19.png' width = '100%;'>","null","","","","","","","","","",""
"","html-keyboard-response","162","640476","0.0-10.0-3.9","uebu1eampj","one_one","1","direct_first","1","er09ov19","1","23","1","1","2","1","370","","","<img src = 'targets/mask.png' width = '100%;'>","75","pos","CS","CS","3","category3/CS5.png","","targets/19.png","indirect","1","9"
"","html-keyboard-response","163","642005","0.0-10.0-0.10","uebu1eampj","one_one","1","direct_first","1","er09ov19","1","23","1","1","2","1","null","","","<div style=""font-size:60px;"">+</div>","null","","","","","","","","","",""
"","html-keyboard-response","164","642105","0.0-10.0-1.10","uebu1eampj","one_one","1","direct_first","1","er09ov19","1","23","1","1","2","1","null","","","<img src = 'category2/CS2.png' width = '100%;'>","null","","","","","","","","","",""
"","html-keyboard-response","165","642385","0.0-10.0-2.10","uebu1eampj","one_one","1","direct_first","1","er09ov19","1","23","1","1","2","1","null","","","<img src = 'targets/13.png' width = '100%;'>","null","","","","","","","","","",""
"","html-keyboard-response","166","642717","0.0-10.0-3.10","uebu1eampj","one_one","1","direct_first","1","er09ov19","1","23","1","1","2","1","330","","","<img src = 'targets/mask.png' width = '100%;'>","75","pos","GS","GSold","2","category2/CS2.png","","targets/13.png","indirect","1","10"
"","html-keyboard-response","167","644245","0.0-10.0-0.11","uebu1eampj","one_one","1","direct_first","1","er09ov19","1","23","1","1","2","1","null","","","<div style=""font-size:60px;"">+</div>","null","","","","","","","","","",""
"","html-keyboard-response","168","644345","0.0-10.0-1.11","uebu1eampj","one_one","1","direct_first","1","er09ov19","1","23","1","1","2","1","null","","","<img src = 'category4/CS9.png' width = '100%;'>","null","","","","","","","","","",""
"","html-keyboard-response","169","644624","0.0-10.0-2.11","uebu1eampj","one_one","1","direct_first","1","er09ov19","1","23","1","1","2","1","null","","","<img src = 'targets/36.png' width = '100%;'>","null","","","","","","","","","",""
"","html-keyboard-response","170","645149","0.0-10.0-3.11","uebu1eampj","one_one","1","direct_first","1","er09ov19","1","23","1","1","2","1","522","","","<img src = 'targets/mask.png' width = '100%;'>","68","neg","GS","GSold","4","category4/CS9.png","","targets/36.png","indirect","0","11"
"","html-keyboard-response","171","646685","0.0-10.0-0.12","uebu1eampj","one_one","1","direct_first","1","er09ov19","1","23","1","1","2","1","null","","","<div style=""font-size:60px;"">+</div>","null","","","","","","","","","",""
"","html-keyboard-response","172","646785","0.0-10.0-1.12","uebu1eampj","one_one","1","direct_first","1","er09ov19","1","23","1","1","2","1","null","","","<img src = 'category2/CS3.png' width = '100%;'>","null","","","","","","","","","",""
"","html-keyboard-response","173","647064","0.0-10.0-2.12","uebu1eampj","one_one","1","direct_first","1","er09ov19","1","23","1","1","2","1","null","","","<img src = 'targets/39.png' width = '100%;'>","null","","","","","","","","","",""
"","html-keyboard-response","174","647412","0.0-10.0-3.12","uebu1eampj","one_one","1","direct_first","1","er09ov19","1","23","1","1","2","1","347","","","<img src = 'targets/mask.png' width = '100%;'>","75","pos","GS","GSold","2","category2/CS3.png","","targets/39.png","indirect","1","12"
"","html-keyboard-response","175","648923","0.0-10.0-0.13","uebu1eampj","one_one","1","direct_first","1","er09ov19","1","23","1","1","2","1","null","","","<div style=""font-size:60px;"">+</div>","null","","","","","","","","","",""
"","html-keyboard-response","176","649023","0.0-10.0-1.13","uebu1eampj","one_one","1","direct_first","1","er09ov19","1","23","1","1","2","1","null","","","<img src = 'category2/CS1.png' width = '100%;'>","null","","","","","","","","","",""
"","html-keyboard-response","177","649305","0.0-10.0-2.13","uebu1eampj","one_one","1","direct_first","1","er09ov19","1","23","1","1","2","1","null","","","<img src = 'targets/5.png' width = '100%;'>","null","","","","","","","","","",""
"","html-keyboard-response","178","649628","0.0-10.0-3.13","uebu1eampj","one_one","1","direct_first","1","er09ov19","1","23","1","1","2","1","323","","","<img src = 'targets/mask.png' width = '100%;'>","75","pos","GS","GSold","2","category2/CS1.png","","targets/5.png","indirect","1","13"
"","html-keyboard-response","179","651145","0.0-10.0-0.14","uebu1eampj","one_one","1","direct_first","1","er09ov19","1","23","1","1","2","1","null","","","<div style=""font-size:60px;"">+</div>","null","","","","","","","","","",""
"","html-keyboard-response","180","651244","0.0-10.0-1.14","uebu1eampj","one_one","1","direct_first","1","er09ov19","1","23","1","1","2","1","null","","","<img src = 'category2/CS10.png' width = '100%;'>","null","","","","","","","","","",""
"","html-keyboard-response","181","651525","0.0-10.0-2.14","uebu1eampj","one_one","1","direct_first","1","er09ov19","1","23","1","1","2","1","null","","","<img src = 'targets/37.png' width = '100%;'>","null","","","","","","","","","",""
"","html-keyboard-response","182","651645","0.0-10.0-3.14","uebu1eampj","one_one","1","direct_first","1","er09ov19","1","23","1","1","2","1","119","","","<img src = 'targets/mask.png' width = '100%;'>","75","pos","CS","CS","2","category2/CS10.png","","targets/37.png","indirect","1","14"
"","html-keyboard-response","183","653185","0.0-10.0-0.15","uebu1eampj","one_one","1","direct_first","1","er09ov19","1","23","1","1","2","1","null","","","<div style=""font-size:60px;"">+</div>","null","","","","","","","","","",""
"","html-keyboard-response","184","653284","0.0-10.0-1.15","uebu1eampj","one_one","1","direct_first","1","er09ov19","1","23","1","1","2","1","null","","","<img src = 'category4/CS8.png' width = '100%;'>","null","","","","","","","","","",""
"","html-keyboard-response","185","653564","0.0-10.0-2.15","uebu1eampj","one_one","1","direct_first","1","er09ov19","1","23","1","1","2","1","null","","","<img src = 'targets/33.png' width = '100%;'>","null","","","","","","","","","",""
"","html-keyboard-response","186","653916","0.0-10.0-3.15","uebu1eampj","one_one","1","direct_first","1","er09ov19","1","23","1","1","2","1","351","","","<img src = 'targets/mask.png' width = '100%;'>","68","neg","CS","CS","4","category4/CS8.png","","targets/33.png","indirect","0","15"
"","survey-html-form","187","656892","0.0-11.0","uebu1eampj","one_one","1","direct_first","1","er09ov19","1","23","1","1","2","1","2468","","{}","","","","","","","","","","","",""
"","html-keyboard-response","188","659924","0.0-12.0-0.0","uebu1eampj","one_one","1","direct_first","1","er09ov19","1","23","1","1","2","1","null","","","<div style=""font-size:60px;"">+</div>","null","","","","","","","","","",""
"","html-keyboard-response","189","660025","0.0-12.0-1.0","uebu1eampj","one_one","1","direct_first","1","er09ov19","1","23","1","1","2","1","null","","","<img src = 'category1/GS3.png' width = '100%;'>","null","","","","","","","","","",""
"","html-keyboard-response","190","660305","0.0-12.0-2.0","uebu1eampj","one_one","1","direct_first","1","er09ov19","1","23","1","1","2","1","null","","","<img src = 'targets/21.png' width = '100%;'>","null","","","","","","","","","",""
"","html-keyboard-response","191","660581","0.0-12.0-3.0","uebu1eampj","one_one","1","direct_first","1","er09ov19","1","23","1","1","2","1","275","","","<img src = 'targets/mask.png' width = '100%;'>","68","neg","GS","GSnew","1","category1/GS3.png","","targets/21.png","indirect","0","16"
"","html-keyboard-response","192","662104","0.0-12.0-0.1","uebu1eampj","one_one","1","direct_first","1","er09ov19","1","23","1","1","2","1","null","","","<div style=""font-size:60px;"">+</div>","null","","","","","","","","","",""
"","html-keyboard-response","193","662204","0.0-12.0-1.1","uebu1eampj","one_one","1","direct_first","1","er09ov19","1","23","1","1","2","1","null","","","<img src = 'category2/GS2.png' width = '100%;'>","null","","","","","","","","","",""
"","html-keyboard-response","194","662484","0.0-12.0-2.1","uebu1eampj","one_one","1","direct_first","1","er09ov19","1","23","1","1","2","1","null","","","<img src = 'targets/12.png' width = '100%;'>","null","","","","","","","","","",""
"","html-keyboard-response","195","662772","0.0-12.0-3.1","uebu1eampj","one_one","1","direct_first","1","er09ov19","1","23","1","1","2","1","286","","","<img src = 'targets/mask.png' width = '100%;'>","68","pos","GS","GSnew","2","category2/GS2.png","","targets/12.png","indirect","0","17"
"","html-keyboard-response","196","664294","0.0-12.0-0.2","uebu1eampj","one_one","1","direct_first","1","er09ov19","1","23","1","1","2","1","null","","","<div style=""font-size:60px;"">+</div>","null","","","","","","","","","",""
"","html-keyboard-response","197","664394","0.0-12.0-1.2","uebu1eampj","one_one","1","direct_first","1","er09ov19","1","23","1","1","2","1","null","","","<img src = 'category2/GS3.png' width = '100%;'>","null","","","","","","","","","",""
"","html-keyboard-response","198","664675","0.0-12.0-2.2","uebu1eampj","one_one","1","direct_first","1","er09ov19","1","23","1","1","2","1","null","","","<img src = 'targets/29.png' width = '100%;'>","null","","","","","","","","","",""
"","html-keyboard-response","199","665221","0.0-12.0-3.2","uebu1eampj","one_one","1","direct_first","1","er09ov19","1","23","1","1","2","1","545","","","<img src = 'targets/mask.png' width = '100%;'>","68","pos","GS","GSnew","2","category2/GS3.png","","targets/29.png","indirect","0","18"
"","html-keyboard-response","200","666755","0.0-12.0-0.3","uebu1eampj","one_one","1","direct_first","1","er09ov19","1","23","1","1","2","1","null","","","<div style=""font-size:60px;"">+</div>","null","","","","","","","","","",""
"","html-keyboard-response","201","666855","0.0-12.0-1.3","uebu1eampj","one_one","1","direct_first","1","er09ov19","1","23","1","1","2","1","null","","","<img src = 'category4/lin.png' width = '100%;'>","null","","","","","","","","","",""
"","html-keyboard-response","202","667134","0.0-12.0-2.3","uebu1eampj","one_one","1","direct_first","1","er09ov19","1","23","1","1","2","1","null","","","<img src = 'targets/9.png' width = '100%;'>","null","","","","","","","","","",""
"","html-keyboard-response","203","667445","0.0-12.0-3.3","uebu1eampj","one_one","1","direct_first","1","er09ov19","1","23","1","1","2","1","309","","","<img src = 'targets/mask.png' width = '100%;'>","68","neg","GS","abstract","4","category4/lin.png","","targets/9.png","indirect","0","19"
"","html-keyboard-response","204","668972","0.0-12.0-0.4","uebu1eampj","one_one","1","direct_first","1","er09ov19","1","23","1","1","2","1","null","","","<div style=""font-size:60px;"">+</div>","null","","","","","","","","","",""
"","html-keyboard-response","205","669072","0.0-12.0-1.4","uebu1eampj","one_one","1","direct_first","1","er09ov19","1","23","1","1","2","1","null","","","<img src = 'category4/GS1.png' width = '100%;'>","null","","","","","","","","","",""
"","html-keyboard-response","206","669355","0.0-12.0-2.4","uebu1eampj","one_one","1","direct_first","1","er09ov19","1","23","1","1","2","1","null","","","<img src = 'targets/2.png' width = '100%;'>","null","","","","","","","","","",""
"","html-keyboard-response","207","669636","0.0-12.0-3.4","uebu1eampj","one_one","1","direct_first","1","er09ov19","1","23","1","1","2","1","280","","","<img src = 'targets/mask.png' width = '100%;'>","68","neg","GS","GSnew","4","category4/GS1.png","","targets/2.png","indirect","0","20"
"","html-keyboard-response","208","671175","0.0-12.0-0.5","uebu1eampj","one_one","1","direct_first","1","er09ov19","1","23","1","1","2","1","null","","","<div style=""font-size:60px;"">+</div>","null","","","","","","","","","",""
"","html-keyboard-response","209","671275","0.0-12.0-1.5","uebu1eampj","one_one","1","direct_first","1","er09ov19","1","23","1","1","2","1","null","","","<img src = 'category1/ma.png' width = '100%;'>","null","","","","","","","","","",""
"","html-keyboard-response","210","671554","0.0-12.0-2.5","uebu1eampj","one_one","1","direct_first","1","er09ov19","1","23","1","1","2","1","null","","","<img src = 'targets/7.png' width = '100%;'>","null","","","","","","","","","",""
"","html-keyboard-response","211","672293","0.0-12.0-3.5","uebu1eampj","one_one","1","direct_first","1","er09ov19","1","23","1","1","2","1","736","","","<img src = 'targets/mask.png' width = '100%;'>","75","neg","GS","abstract","1","category1/ma.png","","targets/7.png","indirect","1","21"
"","html-keyboard-response","212","673804","0.0-12.0-0.6","uebu1eampj","one_one","1","direct_first","1","er09ov19","1","23","1","1","2","1","null","","","<div style=""font-size:60px;"">+</div>","null","","","","","","","","","",""
"","html-keyboard-response","213","673905","0.0-12.0-1.6","uebu1eampj","one_one","1","direct_first","1","er09ov19","1","23","1","1","2","1","null","","","<img src = 'category1/GS1.png' width = '100%;'>","null","","","","","","","","","",""
"","html-keyboard-response","214","674184","0.0-12.0-2.6","uebu1eampj","one_one","1","direct_first","1","er09ov19","1","23","1","1","2","1","null","","","<img src = 'targets/25.png' width = '100%;'>","null","","","","","","","","","",""
"","html-keyboard-response","215","674525","0.0-12.0-3.6","uebu1eampj","one_one","1","direct_first","1","er09ov19","1","23","1","1","2","1","339","","","<img src = 'targets/mask.png' width = '100%;'>","68","neg","GS","GSnew","1","category1/GS1.png","","targets/25.png","indirect","0","22"
"","html-keyboard-response","216","676045","0.0-12.0-0.7","uebu1eampj","one_one","1","direct_first","1","er09ov19","1","23","1","1","2","1","null","","","<div style=""font-size:60px;"">+</div>","null","","","","","","","","","",""
"","html-keyboard-response","217","676136","0.0-12.0-1.7","uebu1eampj","one_one","1","direct_first","1","er09ov19","1","23","1","1","2","1","null","","","<img src = 'category2/men.png' width = '100%;'>","null","","","","","","","","","",""
"","html-keyboard-response","218","676387","0.0-12.0-2.7","uebu1eampj","one_one","1","direct_first","1","er09ov19","1","23","1","1","2","1","null","","","<img src = 'targets/4.png' width = '100%;'>","null","","","","","","","","","",""
"","html-keyboard-response","219","676692","0.0-12.0-3.7","uebu1eampj","one_one","1","direct_first","1","er09ov19","1","23","1","1","2","1","304","","","<img src = 'targets/mask.png' width = '100%;'>","75","pos","GS","abstract","2","category2/men.png","","targets/4.png","indirect","1","23"
"","html-keyboard-response","220","678204","0.0-12.0-0.8","uebu1eampj","one_one","1","direct_first","1","er09ov19","1","23","1","1","2","1","null","","","<div style=""font-size:60px;"">+</div>","null","","","","","","","","","",""
"","html-keyboard-response","221","678304","0.0-12.0-1.8","uebu1eampj","one_one","1","direct_first","1","er09ov19","1","23","1","1","2","1","null","","","<img src = 'category3/GS2.png' width = '100%;'>","null","","","","","","","","","",""
"","html-keyboard-response","222","678584","0.0-12.0-2.8","uebu1eampj","one_one","1","direct_first","1","er09ov19","1","23","1","1","2","1","null","","","<img src = 'targets/18.png' width = '100%;'>","null","","","","","","","","","",""
"","html-keyboard-response","223","679397","0.0-12.0-3.8","uebu1eampj","one_one","1","direct_first","1","er09ov19","1","23","1","1","2","1","811","","","<img src = 'targets/mask.png' width = '100%;'>","68","pos","GS","GSnew","3","category3/GS2.png","","targets/18.png","indirect","0","24"
"","html-keyboard-response","224","680925","0.0-12.0-0.9","uebu1eampj","one_one","1","direct_first","1","er09ov19","1","23","1","1","2","1","null","","","<div style=""font-size:60px;"">+</div>","null","","","","","","","","","",""
"","html-keyboard-response","225","681025","0.0-12.0-1.9","uebu1eampj","one_one","1","direct_first","1","er09ov19","1","23","1","1","2","1","null","","","<img src = 'category4/GS2.png' width = '100%;'>","null","","","","","","","","","",""
"","html-keyboard-response","226","681304","0.0-12.0-2.9","uebu1eampj","one_one","1","direct_first","1","er09ov19","1","23","1","1","2","1","null","","","<img src = 'targets/27.png' width = '100%;'>","null","","","","","","","","","",""
"","html-keyboard-response","227","681524","0.0-12.0-3.9","uebu1eampj","one_one","1","direct_first","1","er09ov19","1","23","1","1","2","1","218","","","<img src = 'targets/mask.png' width = '100%;'>","68","neg","GS","GSnew","4","category4/GS2.png","","targets/27.png","indirect","0","25"
"","html-keyboard-response","228","683064","0.0-12.0-0.10","uebu1eampj","one_one","1","direct_first","1","er09ov19","1","23","1","1","2","1","null","","","<div style=""font-size:60px;"">+</div>","null","","","","","","","","","",""
"","html-keyboard-response","229","683164","0.0-12.0-1.10","uebu1eampj","one_one","1","direct_first","1","er09ov19","1","23","1","1","2","1","null","","","<img src = 'category4/GS3.png' width = '100%;'>","null","","","","","","","","","",""
"","html-keyboard-response","230","683445","0.0-12.0-2.10","uebu1eampj","one_one","1","direct_first","1","er09ov19","1","23","1","1","2","1","null","","","<img src = 'targets/6.png' width = '100%;'>","null","","","","","","","","","",""
"","html-keyboard-response","231","683604","0.0-12.0-3.10","uebu1eampj","one_one","1","direct_first","1","er09ov19","1","23","1","1","2","1","158","","","<img src = 'targets/mask.png' width = '100%;'>","68","neg","GS","GSnew","4","category4/GS3.png","","targets/6.png","indirect","0","26"
"","html-keyboard-response","232","685145","0.0-12.0-0.11","uebu1eampj","one_one","1","direct_first","1","er09ov19","1","23","1","1","2","1","null","","","<div style=""font-size:60px;"">+</div>","null","","","","","","","","","",""
"","html-keyboard-response","233","685245","0.0-12.0-1.11","uebu1eampj","one_one","1","direct_first","1","er09ov19","1","23","1","1","2","1","null","","","<img src = 'category3/GS3.png' width = '100%;'>","null","","","","","","","","","",""
"","html-keyboard-response","234","685525","0.0-12.0-2.11","uebu1eampj","one_one","1","direct_first","1","er09ov19","1","23","1","1","2","1","null","","","<img src = 'targets/17.png' width = '100%;'>","null","","","","","","","","","",""
"","html-keyboard-response","235","685796","0.0-12.0-3.11","uebu1eampj","one_one","1","direct_first","1","er09ov19","1","23","1","1","2","1","271","","","<img src = 'targets/mask.png' width = '100%;'>","75","pos","GS","GSnew","3","category3/GS3.png","","targets/17.png","indirect","1","27"
"","html-keyboard-response","236","687324","0.0-12.0-0.12","uebu1eampj","one_one","1","direct_first","1","er09ov19","1","23","1","1","2","1","null","","","<div style=""font-size:60px;"">+</div>","null","","","","","","","","","",""
"","html-keyboard-response","237","687425","0.0-12.0-1.12","uebu1eampj","one_one","1","direct_first","1","er09ov19","1","23","1","1","2","1","null","","","<img src = 'category2/GS1.png' width = '100%;'>","null","","","","","","","","","",""
"","html-keyboard-response","238","687704","0.0-12.0-2.12","uebu1eampj","one_one","1","direct_first","1","er09ov19","1","23","1","1","2","1","null","","","<img src = 'targets/23.png' width = '100%;'>","null","","","","","","","","","",""
"","html-keyboard-response","239","688668","0.0-12.0-3.12","uebu1eampj","one_one","1","direct_first","1","er09ov19","1","23","1","1","2","1","961","","","<img src = 'targets/mask.png' width = '100%;'>","68","pos","GS","GSnew","2","category2/GS1.png","","targets/23.png","indirect","0","28"
"","html-keyboard-response","240","690204","0.0-12.0-0.13","uebu1eampj","one_one","1","direct_first","1","er09ov19","1","23","1","1","2","1","null","","","<div style=""font-size:60px;"">+</div>","null","","","","","","","","","",""
"","html-keyboard-response","241","690305","0.0-12.0-1.13","uebu1eampj","one_one","1","direct_first","1","er09ov19","1","23","1","1","2","1","null","","","<img src = 'category3/GS1.png' width = '100%;'>","null","","","","","","","","","",""
"","html-keyboard-response","242","690584","0.0-12.0-2.13","uebu1eampj","one_one","1","direct_first","1","er09ov19","1","23","1","1","2","1","null","","","<img src = 'targets/1.png' width = '100%;'>","null","","","","","","","","","",""
"","html-keyboard-response","243","690884","0.0-12.0-3.13","uebu1eampj","one_one","1","direct_first","1","er09ov19","1","23","1","1","2","1","299","","","<img src = 'targets/mask.png' width = '100%;'>","75","pos","GS","GSnew","3","category3/GS1.png","","targets/1.png","indirect","1","29"
"","html-keyboard-response","244","692424","0.0-12.0-0.14","uebu1eampj","one_one","1","direct_first","1","er09ov19","1","23","1","1","2","1","null","","","<div style=""font-size:60px;"">+</div>","null","","","","","","","","","",""
"","html-keyboard-response","245","692524","0.0-12.0-1.14","uebu1eampj","one_one","1","direct_first","1","er09ov19","1","23","1","1","2","1","null","","","<img src = 'category1/GS2.png' width = '100%;'>","null","","","","","","","","","",""
"","html-keyboard-response","246","692804","0.0-12.0-2.14","uebu1eampj","one_one","1","direct_first","1","er09ov19","1","23","1","1","2","1","null","","","<img src = 'targets/30.png' width = '100%;'>","null","","","","","","","","","",""
"","html-keyboard-response","247","693076","0.0-12.0-3.14","uebu1eampj","one_one","1","direct_first","1","er09ov19","1","23","1","1","2","1","270","","","<img src = 'targets/mask.png' width = '100%;'>","68","neg","GS","GSnew","1","category1/GS2.png","","targets/30.png","indirect","0","30"
"","html-keyboard-response","248","694604","0.0-12.0-0.15","uebu1eampj","one_one","1","direct_first","1","er09ov19","1","23","1","1","2","1","null","","","<div style=""font-size:60px;"">+</div>","null","","","","","","","","","",""
"","html-keyboard-response","249","694705","0.0-12.0-1.15","uebu1eampj","one_one","1","direct_first","1","er09ov19","1","23","1","1","2","1","null","","","<img src = 'category3/wang.png' width = '100%;'>","null","","","","","","","","","",""
"","html-keyboard-response","250","694984","0.0-12.0-2.15","uebu1eampj","one_one","1","direct_first","1","er09ov19","1","23","1","1","2","1","null","","","<img src = 'targets/10.png' width = '100%;'>","null","","","","","","","","","",""
"","html-keyboard-response","251","695260","0.0-12.0-3.15","uebu1eampj","one_one","1","direct_first","1","er09ov19","1","23","1","1","2","1","274","","","<img src = 'targets/mask.png' width = '100%;'>","75","pos","GS","abstract","3","category3/wang.png","","targets/10.png","indirect","1","31"
"","survey-html-form","252","700180","0.0-13.0","uebu1eampj","one_one","1","direct_first","1","er09ov19","1","23","1","1","2","1","4416","","{}","","","","","","","","","","","",""
"","image-slider-response","253","705939","0.0-14.0-0.0","uebu1eampj","one_one","1","direct_first","1","er09ov19","1","23","1","1","2","1","4750","","","","","neg","All","all","1","category1/ma_all.png","-36","","all","",""
"","image-slider-response","254","710643","0.0-14.0-0.1","uebu1eampj","one_one","1","direct_first","1","er09ov19","1","23","1","1","2","1","4702","","","","","pos","All","all","3","category3/wang_all.png","25","","all","",""
"","image-slider-response","255","713051","0.0-14.0-0.2","uebu1eampj","one_one","1","direct_first","1","er09ov19","1","23","1","1","2","1","2406","","","","","neg","All","all","4","category4/lin_all.png","-100","","all","",""
"","image-slider-response","256","716235","0.0-14.0-0.3","uebu1eampj","one_one","1","direct_first","1","er09ov19","1","23","1","1","2","1","3183","","","","","pos","All","all","2","category2/men_all.png","100","","all","",""
"","survey-text","257","892132","0.0-15.0","uebu1eampj","one_one","1","direct_first","1","er09ov19","1","23","1","1","2","1","175893","","{""Q0"":""Die \""angenehmen\"" Bilder waren entweder von eckigen Strukturen umhüllt oder bestanden nur aus quadratischen Strukturen.\nDie \""unangenehmen\"" Bilder liefen sehr spitz zu und selbst wenn eckige Strukturen vorhanden gewesen sind, so schien es als würden diese von den spitzen Strukturen angegriffen werden, was negativ gewichtet ist.\n\nAggressive Zeichen schienen negativ besetzt zu sein, während schöne und einfache Strukturen positiv besetzt gewesen sind.""}","","","","","","","","","","","",""
