"success","trial_type","trial_index","time_elapsed","internal_node_id","subject","condition","condition_code","measure","measure_code","codeword","gender","age","education","chinese","fach","handedness","comment","hinschauen","ablenkung","gewissenhaft","rt","url","responses","stimulus","key_press","val","type","type_specific","category","cs_selected","target","indirect","task","nr_pres","response"
"true","fullscreen","0","3358","0.0-0.0","13sseude43","one_one","1","indirect_first","0","er04ul90","1","24","2","2","2","1","","0","0","0","","","","","","","","","","","","","","",""
"","external-html","1","6556","0.0-1.0","13sseude43","one_one","1","indirect_first","0","er04ul90","1","24","2","2","2","1","","0","0","0","3132","text/information.html","","","","","","","","","","","","",""
"","external-html","2","21458","0.0-2.0","13sseude43","one_one","1","indirect_first","0","er04ul90","1","24","2","2","2","1","","0","0","0","14834","text/consent.html","","","","","","","","","","","","",""
"","survey-html-form","3","33318","0.0-3.0","13sseude43","one_one","1","indirect_first","0","er04ul90","1","24","2","2","2","1","","0","0","0","11858","","{""codeword_enter"":""er04ul90""}","","","","","","","","","","","",""
"","survey-html-form","4","46028","0.0-4.0","13sseude43","one_one","1","indirect_first","0","er04ul90","1","24","2","2","2","1","","0","0","0","12708","","{""age"":""24"",""education"":""2"",""subject"":""2"",""gender"":""1"",""handedness"":""1"",""chinese"":""2""}","","","","","","","","","","","",""
"","survey-html-form","5","47314","0.0-5.0","13sseude43","one_one","1","indirect_first","0","er04ul90","1","24","2","2","2","1","","0","0","0","1286","","{}","","","","","","","","","","","",""
"","html-keyboard-response","6","51334","0.0-6.0-0.0-0.0","13sseude43","one_one","1","indirect_first","0","er04ul90","1","24","2","2","2","1","","0","0","0","null","","","<div class = 'row'><div class = 'column'><img src = 'usneg/9220.bmp' width = '100%;'></div><div class = 'column'><img src = 'category1/CS2.png' width = '70%;'></div></div>","null","neg","CS","CS","1","category1/CS2.png","","","","",""
"","html-keyboard-response","7","53854","0.0-6.0-0.0-0.1","13sseude43","one_one","1","indirect_first","0","er04ul90","1","24","2","2","2","1","","0","0","0","null","","","<div class = 'row'><div class = 'column'><img src = 'category4/CS1.png' width = '70%;'></div><div class = 'column'><img src = 'uspos/2550.bmp' width = '100%;'></div></div>","null","pos","CS","CS","4","category4/CS1.png","","","","",""
"","html-keyboard-response","8","56384","0.0-6.0-0.0-0.2","13sseude43","one_one","1","indirect_first","0","er04ul90","1","24","2","2","2","1","","0","0","0","null","","","<div class = 'row'><div class = 'column'><img src = 'category3/CS2.png' width = '70%;'></div><div class = 'column'><img src = 'uspos/5621.bmp' width = '100%;'></div></div>","null","pos","CS","CS","3","category3/CS2.png","","","","",""
"","html-keyboard-response","9","58904","0.0-6.0-0.0-0.3","13sseude43","one_one","1","indirect_first","0","er04ul90","1","24","2","2","2","1","","0","0","0","null","","","<div class = 'row'><div class = 'column'><img src = 'category1/CS2.png' width = '70%;'></div><div class = 'column'><img src = 'usneg/9220.bmp' width = '100%;'></div></div>","null","neg","CS","CS","1","category1/CS2.png","","","","",""
"","html-keyboard-response","10","61424","0.0-6.0-0.0-0.4","13sseude43","one_one","1","indirect_first","0","er04ul90","1","24","2","2","2","1","","0","0","0","null","","","<div class = 'row'><div class = 'column'><img src = 'usneg/9340.bmp' width = '100%;'></div><div class = 'column'><img src = 'category2/CS4.png' width = '70%;'></div></div>","null","neg","CS","CS","2","category2/CS4.png","","","","",""
"","html-keyboard-response","11","63948","0.0-6.0-0.0-0.5","13sseude43","one_one","1","indirect_first","0","er04ul90","1","24","2","2","2","1","","0","0","0","null","","","<div class = 'row'><div class = 'column'><img src = 'category4/CS1.png' width = '70%;'></div><div class = 'column'><img src = 'uspos/2550.bmp' width = '100%;'></div></div>","null","pos","CS","CS","4","category4/CS1.png","","","","",""
"","html-keyboard-response","12","66472","0.0-6.0-0.0-0.6","13sseude43","one_one","1","indirect_first","0","er04ul90","1","24","2","2","2","1","","0","0","0","null","","","<div class = 'row'><div class = 'column'><img src = 'uspos/5621.bmp' width = '100%;'></div><div class = 'column'><img src = 'category3/CS2.png' width = '70%;'></div></div>","null","pos","CS","CS","3","category3/CS2.png","","","","",""
"","html-keyboard-response","13","68990","0.0-6.0-0.0-0.7","13sseude43","one_one","1","indirect_first","0","er04ul90","1","24","2","2","2","1","","0","0","0","null","","","<div class = 'row'><div class = 'column'><img src = 'category1/CS2.png' width = '70%;'></div><div class = 'column'><img src = 'usneg/9220.bmp' width = '100%;'></div></div>","null","neg","CS","CS","1","category1/CS2.png","","","","",""
"","html-keyboard-response","14","71516","0.0-6.0-0.0-0.8","13sseude43","one_one","1","indirect_first","0","er04ul90","1","24","2","2","2","1","","0","0","0","null","","","<div class = 'row'><div class = 'column'><img src = 'usneg/9340.bmp' width = '100%;'></div><div class = 'column'><img src = 'category2/CS4.png' width = '70%;'></div></div>","null","neg","CS","CS","2","category2/CS4.png","","","","",""
"","html-keyboard-response","15","74038","0.0-6.0-0.0-0.9","13sseude43","one_one","1","indirect_first","0","er04ul90","1","24","2","2","2","1","","0","0","0","null","","","<div class = 'row'><div class = 'column'><img src = 'uspos/5621.bmp' width = '100%;'></div><div class = 'column'><img src = 'category3/CS2.png' width = '70%;'></div></div>","null","pos","CS","CS","3","category3/CS2.png","","","","",""
"","html-keyboard-response","16","76570","0.0-6.0-0.0-0.10","13sseude43","one_one","1","indirect_first","0","er04ul90","1","24","2","2","2","1","","0","0","0","null","","","<div class = 'row'><div class = 'column'><img src = 'category2/CS4.png' width = '70%;'></div><div class = 'column'><img src = 'usneg/9340.bmp' width = '100%;'></div></div>","null","neg","CS","CS","2","category2/CS4.png","","","","",""
"","html-keyboard-response","17","79088","0.0-6.0-0.0-0.11","13sseude43","one_one","1","indirect_first","0","er04ul90","1","24","2","2","2","1","","0","0","0","null","","","<div class = 'row'><div class = 'column'><img src = 'category4/CS1.png' width = '70%;'></div><div class = 'column'><img src = 'uspos/2550.bmp' width = '100%;'></div></div>","null","pos","CS","CS","4","category4/CS1.png","","","","",""
"","html-keyboard-response","18","81600","0.0-6.0-0.0-0.12","13sseude43","one_one","1","indirect_first","0","er04ul90","1","24","2","2","2","1","","0","0","0","null","","","<div class = 'row'><div class = 'column'><img src = 'category3/CS2.png' width = '70%;'></div><div class = 'column'><img src = 'uspos/5621.bmp' width = '100%;'></div></div>","null","pos","CS","CS","3","category3/CS2.png","","","","",""
"","html-keyboard-response","19","84134","0.0-6.0-0.0-0.13","13sseude43","one_one","1","indirect_first","0","er04ul90","1","24","2","2","2","1","","0","0","0","null","","","<div class = 'row'><div class = 'column'><img src = 'category1/CS2.png' width = '70%;'></div><div class = 'column'><img src = 'usneg/9220.bmp' width = '100%;'></div></div>","null","neg","CS","CS","1","category1/CS2.png","","","","",""
"","html-keyboard-response","20","86654","0.0-6.0-0.0-0.14","13sseude43","one_one","1","indirect_first","0","er04ul90","1","24","2","2","2","1","","0","0","0","null","","","<div class = 'row'><div class = 'column'><img src = 'category2/CS4.png' width = '70%;'></div><div class = 'column'><img src = 'usneg/9340.bmp' width = '100%;'></div></div>","null","neg","CS","CS","2","category2/CS4.png","","","","",""
"","html-keyboard-response","21","89186","0.0-6.0-0.0-0.15","13sseude43","one_one","1","indirect_first","0","er04ul90","1","24","2","2","2","1","","0","0","0","null","","","<div class = 'row'><div class = 'column'><img src = 'usneg/9220.bmp' width = '100%;'></div><div class = 'column'><img src = 'category1/CS2.png' width = '70%;'></div></div>","null","neg","CS","CS","1","category1/CS2.png","","","","",""
"","html-keyboard-response","22","91710","0.0-6.0-0.0-0.16","13sseude43","one_one","1","indirect_first","0","er04ul90","1","24","2","2","2","1","","0","0","0","null","","","<div class = 'row'><div class = 'column'><img src = 'usneg/9340.bmp' width = '100%;'></div><div class = 'column'><img src = 'category2/CS4.png' width = '70%;'></div></div>","null","neg","CS","CS","2","category2/CS4.png","","","","",""
"","html-keyboard-response","23","94228","0.0-6.0-0.0-0.17","13sseude43","one_one","1","indirect_first","0","er04ul90","1","24","2","2","2","1","","0","0","0","null","","","<div class = 'row'><div class = 'column'><img src = 'category4/CS1.png' width = '70%;'></div><div class = 'column'><img src = 'uspos/2550.bmp' width = '100%;'></div></div>","null","pos","CS","CS","4","category4/CS1.png","","","","",""
"","html-keyboard-response","24","96752","0.0-6.0-0.0-0.18","13sseude43","one_one","1","indirect_first","0","er04ul90","1","24","2","2","2","1","","0","0","0","null","","","<div class = 'row'><div class = 'column'><img src = 'category3/CS2.png' width = '70%;'></div><div class = 'column'><img src = 'uspos/5621.bmp' width = '100%;'></div></div>","null","pos","CS","CS","3","category3/CS2.png","","","","",""
"","html-keyboard-response","25","99264","0.0-6.0-0.0-0.19","13sseude43","one_one","1","indirect_first","0","er04ul90","1","24","2","2","2","1","","0","0","0","null","","","<div class = 'row'><div class = 'column'><img src = 'category4/CS1.png' width = '70%;'></div><div class = 'column'><img src = 'uspos/2550.bmp' width = '100%;'></div></div>","null","pos","CS","CS","4","category4/CS1.png","","","","",""
"","survey-html-form","26","150242","0.0-6.0-1.0","13sseude43","one_one","1","indirect_first","0","er04ul90","1","24","2","2","2","1","","0","0","0","50476","","{}","","","","","","","","","","","",""
"","html-keyboard-response","27","154262","0.0-6.0-2.0-0.0","13sseude43","one_one","1","indirect_first","0","er04ul90","1","24","2","2","2","1","","0","0","0","null","","","<div class = 'row'><div class = 'column'><img src = 'category3/CS2.png' width = '70%;'></div><div class = 'column'><img src = 'uspos/5621.bmp' width = '100%;'></div></div>","null","pos","CS","CS","3","category3/CS2.png","","","","",""
"","html-keyboard-response","28","156790","0.0-6.0-2.0-0.1","13sseude43","one_one","1","indirect_first","0","er04ul90","1","24","2","2","2","1","","0","0","0","null","","","<div class = 'row'><div class = 'column'><img src = 'usneg/9220.bmp' width = '100%;'></div><div class = 'column'><img src = 'category1/CS2.png' width = '70%;'></div></div>","null","neg","CS","CS","1","category1/CS2.png","","","","",""
"","html-keyboard-response","29","159314","0.0-6.0-2.0-0.2","13sseude43","one_one","1","indirect_first","0","er04ul90","1","24","2","2","2","1","","0","0","0","null","","","<div class = 'row'><div class = 'column'><img src = 'uspos/2550.bmp' width = '100%;'></div><div class = 'column'><img src = 'category4/CS1.png' width = '70%;'></div></div>","null","pos","CS","CS","4","category4/CS1.png","","","","",""
"","html-keyboard-response","30","161838","0.0-6.0-2.0-0.3","13sseude43","one_one","1","indirect_first","0","er04ul90","1","24","2","2","2","1","","0","0","0","null","","","<div class = 'row'><div class = 'column'><img src = 'category1/CS2.png' width = '70%;'></div><div class = 'column'><img src = 'usneg/9220.bmp' width = '100%;'></div></div>","null","neg","CS","CS","1","category1/CS2.png","","","","",""
"","html-keyboard-response","31","164366","0.0-6.0-2.0-0.4","13sseude43","one_one","1","indirect_first","0","er04ul90","1","24","2","2","2","1","","0","0","0","null","","","<div class = 'row'><div class = 'column'><img src = 'category2/CS4.png' width = '70%;'></div><div class = 'column'><img src = 'usneg/9340.bmp' width = '100%;'></div></div>","null","neg","CS","CS","2","category2/CS4.png","","","","",""
"","html-keyboard-response","32","166890","0.0-6.0-2.0-0.5","13sseude43","one_one","1","indirect_first","0","er04ul90","1","24","2","2","2","1","","0","0","0","null","","","<div class = 'row'><div class = 'column'><img src = 'category1/CS2.png' width = '70%;'></div><div class = 'column'><img src = 'usneg/9220.bmp' width = '100%;'></div></div>","null","neg","CS","CS","1","category1/CS2.png","","","","",""
"","html-keyboard-response","33","169394","0.0-6.0-2.0-0.6","13sseude43","one_one","1","indirect_first","0","er04ul90","1","24","2","2","2","1","","0","0","0","null","","","<div class = 'row'><div class = 'column'><img src = 'category4/CS1.png' width = '70%;'></div><div class = 'column'><img src = 'uspos/2550.bmp' width = '100%;'></div></div>","null","pos","CS","CS","4","category4/CS1.png","","","","",""
"","html-keyboard-response","34","171912","0.0-6.0-2.0-0.7","13sseude43","one_one","1","indirect_first","0","er04ul90","1","24","2","2","2","1","","0","0","0","null","","","<div class = 'row'><div class = 'column'><img src = 'category1/CS2.png' width = '70%;'></div><div class = 'column'><img src = 'usneg/9220.bmp' width = '100%;'></div></div>","null","neg","CS","CS","1","category1/CS2.png","","","","",""
"","html-keyboard-response","35","174434","0.0-6.0-2.0-0.8","13sseude43","one_one","1","indirect_first","0","er04ul90","1","24","2","2","2","1","","0","0","0","null","","","<div class = 'row'><div class = 'column'><img src = 'category4/CS1.png' width = '70%;'></div><div class = 'column'><img src = 'uspos/2550.bmp' width = '100%;'></div></div>","null","pos","CS","CS","4","category4/CS1.png","","","","",""
"","html-keyboard-response","36","176960","0.0-6.0-2.0-0.9","13sseude43","one_one","1","indirect_first","0","er04ul90","1","24","2","2","2","1","","0","0","0","null","","","<div class = 'row'><div class = 'column'><img src = 'usneg/9340.bmp' width = '100%;'></div><div class = 'column'><img src = 'category2/CS4.png' width = '70%;'></div></div>","null","neg","CS","CS","2","category2/CS4.png","","","","",""
"","html-keyboard-response","37","179482","0.0-6.0-2.0-0.10","13sseude43","one_one","1","indirect_first","0","er04ul90","1","24","2","2","2","1","","0","0","0","null","","","<div class = 'row'><div class = 'column'><img src = 'category3/CS2.png' width = '70%;'></div><div class = 'column'><img src = 'uspos/5621.bmp' width = '100%;'></div></div>","null","pos","CS","CS","3","category3/CS2.png","","","","",""
"","html-keyboard-response","38","181998","0.0-6.0-2.0-0.11","13sseude43","one_one","1","indirect_first","0","er04ul90","1","24","2","2","2","1","","0","0","0","null","","","<div class = 'row'><div class = 'column'><img src = 'category4/CS1.png' width = '70%;'></div><div class = 'column'><img src = 'uspos/2550.bmp' width = '100%;'></div></div>","null","pos","CS","CS","4","category4/CS1.png","","","","",""
"","html-keyboard-response","39","184512","0.0-6.0-2.0-0.12","13sseude43","one_one","1","indirect_first","0","er04ul90","1","24","2","2","2","1","","0","0","0","null","","","<div class = 'row'><div class = 'column'><img src = 'category3/CS2.png' width = '70%;'></div><div class = 'column'><img src = 'uspos/5621.bmp' width = '100%;'></div></div>","null","pos","CS","CS","3","category3/CS2.png","","","","",""
"","html-keyboard-response","40","187044","0.0-6.0-2.0-0.13","13sseude43","one_one","1","indirect_first","0","er04ul90","1","24","2","2","2","1","","0","0","0","null","","","<div class = 'row'><div class = 'column'><img src = 'category2/CS4.png' width = '70%;'></div><div class = 'column'><img src = 'usneg/9340.bmp' width = '100%;'></div></div>","null","neg","CS","CS","2","category2/CS4.png","","","","",""
"","html-keyboard-response","41","189570","0.0-6.0-2.0-0.14","13sseude43","one_one","1","indirect_first","0","er04ul90","1","24","2","2","2","1","","0","0","0","null","","","<div class = 'row'><div class = 'column'><img src = 'uspos/5621.bmp' width = '100%;'></div><div class = 'column'><img src = 'category3/CS2.png' width = '70%;'></div></div>","null","pos","CS","CS","3","category3/CS2.png","","","","",""
"","html-keyboard-response","42","192236","0.0-6.0-2.0-0.15","13sseude43","one_one","1","indirect_first","0","er04ul90","1","24","2","2","2","1","","0","0","0","null","","","<div class = 'row'><div class = 'column'><img src = 'usneg/9220.bmp' width = '100%;'></div><div class = 'column'><img src = 'category1/CS2.png' width = '70%;'></div></div>","null","neg","CS","CS","1","category1/CS2.png","","","","",""
"","html-keyboard-response","43","194748","0.0-6.0-2.0-0.16","13sseude43","one_one","1","indirect_first","0","er04ul90","1","24","2","2","2","1","","0","0","0","null","","","<div class = 'row'><div class = 'column'><img src = 'category2/CS4.png' width = '70%;'></div><div class = 'column'><img src = 'usneg/9340.bmp' width = '100%;'></div></div>","null","neg","CS","CS","2","category2/CS4.png","","","","",""
"","html-keyboard-response","44","197262","0.0-6.0-2.0-0.17","13sseude43","one_one","1","indirect_first","0","er04ul90","1","24","2","2","2","1","","0","0","0","null","","","<div class = 'row'><div class = 'column'><img src = 'category4/CS1.png' width = '70%;'></div><div class = 'column'><img src = 'uspos/2550.bmp' width = '100%;'></div></div>","null","pos","CS","CS","4","category4/CS1.png","","","","",""
"","html-keyboard-response","45","199776","0.0-6.0-2.0-0.18","13sseude43","one_one","1","indirect_first","0","er04ul90","1","24","2","2","2","1","","0","0","0","null","","","<div class = 'row'><div class = 'column'><img src = 'category2/CS4.png' width = '70%;'></div><div class = 'column'><img src = 'usneg/9340.bmp' width = '100%;'></div></div>","null","neg","CS","CS","2","category2/CS4.png","","","","",""
"","html-keyboard-response","46","202298","0.0-6.0-2.0-0.19","13sseude43","one_one","1","indirect_first","0","er04ul90","1","24","2","2","2","1","","0","0","0","null","","","<div class = 'row'><div class = 'column'><img src = 'uspos/5621.bmp' width = '100%;'></div><div class = 'column'><img src = 'category3/CS2.png' width = '70%;'></div></div>","null","pos","CS","CS","3","category3/CS2.png","","","","",""
"","survey-html-form","47","2148532","0.0-6.0-3.0","13sseude43","one_one","1","indirect_first","0","er04ul90","1","24","2","2","2","1","","0","0","0","1945726","","{}","","","","","","","","","","","",""
"","html-keyboard-response","48","2152548","0.0-6.0-4.0-0.0","13sseude43","one_one","1","indirect_first","0","er04ul90","1","24","2","2","2","1","","0","0","0","null","","","<div class = 'row'><div class = 'column'><img src = 'category1/CS2.png' width = '70%;'></div><div class = 'column'><img src = 'usneg/9220.bmp' width = '100%;'></div></div>","null","neg","CS","CS","1","category1/CS2.png","","","","",""
"","html-keyboard-response","49","2155074","0.0-6.0-4.0-0.1","13sseude43","one_one","1","indirect_first","0","er04ul90","1","24","2","2","2","1","","0","0","0","null","","","<div class = 'row'><div class = 'column'><img src = 'usneg/9340.bmp' width = '100%;'></div><div class = 'column'><img src = 'category2/CS4.png' width = '70%;'></div></div>","null","neg","CS","CS","2","category2/CS4.png","","","","",""
"","html-keyboard-response","50","2157592","0.0-6.0-4.0-0.2","13sseude43","one_one","1","indirect_first","0","er04ul90","1","24","2","2","2","1","","0","0","0","null","","","<div class = 'row'><div class = 'column'><img src = 'category4/CS1.png' width = '70%;'></div><div class = 'column'><img src = 'uspos/2550.bmp' width = '100%;'></div></div>","null","pos","CS","CS","4","category4/CS1.png","","","","",""
"","html-keyboard-response","51","2160112","0.0-6.0-4.0-0.3","13sseude43","one_one","1","indirect_first","0","er04ul90","1","24","2","2","2","1","","0","0","0","null","","","<div class = 'row'><div class = 'column'><img src = 'category1/CS2.png' width = '70%;'></div><div class = 'column'><img src = 'usneg/9220.bmp' width = '100%;'></div></div>","null","neg","CS","CS","1","category1/CS2.png","","","","",""
"","html-keyboard-response","52","2162634","0.0-6.0-4.0-0.4","13sseude43","one_one","1","indirect_first","0","er04ul90","1","24","2","2","2","1","","0","0","0","null","","","<div class = 'row'><div class = 'column'><img src = 'uspos/2550.bmp' width = '100%;'></div><div class = 'column'><img src = 'category4/CS1.png' width = '70%;'></div></div>","null","pos","CS","CS","4","category4/CS1.png","","","","",""
"","html-keyboard-response","53","2165148","0.0-6.0-4.0-0.5","13sseude43","one_one","1","indirect_first","0","er04ul90","1","24","2","2","2","1","","0","0","0","null","","","<div class = 'row'><div class = 'column'><img src = 'usneg/9220.bmp' width = '100%;'></div><div class = 'column'><img src = 'category1/CS2.png' width = '70%;'></div></div>","null","neg","CS","CS","1","category1/CS2.png","","","","",""
"","html-keyboard-response","54","2167672","0.0-6.0-4.0-0.6","13sseude43","one_one","1","indirect_first","0","er04ul90","1","24","2","2","2","1","","0","0","0","null","","","<div class = 'row'><div class = 'column'><img src = 'category3/CS2.png' width = '70%;'></div><div class = 'column'><img src = 'uspos/5621.bmp' width = '100%;'></div></div>","null","pos","CS","CS","3","category3/CS2.png","","","","",""
"","html-keyboard-response","55","2170196","0.0-6.0-4.0-0.7","13sseude43","one_one","1","indirect_first","0","er04ul90","1","24","2","2","2","1","","0","0","0","null","","","<div class = 'row'><div class = 'column'><img src = 'uspos/2550.bmp' width = '100%;'></div><div class = 'column'><img src = 'category4/CS1.png' width = '70%;'></div></div>","null","pos","CS","CS","4","category4/CS1.png","","","","",""
"","html-keyboard-response","56","2172708","0.0-6.0-4.0-0.8","13sseude43","one_one","1","indirect_first","0","er04ul90","1","24","2","2","2","1","","0","0","0","null","","","<div class = 'row'><div class = 'column'><img src = 'uspos/5621.bmp' width = '100%;'></div><div class = 'column'><img src = 'category3/CS2.png' width = '70%;'></div></div>","null","pos","CS","CS","3","category3/CS2.png","","","","",""
"","html-keyboard-response","57","2175230","0.0-6.0-4.0-0.9","13sseude43","one_one","1","indirect_first","0","er04ul90","1","24","2","2","2","1","","0","0","0","null","","","<div class = 'row'><div class = 'column'><img src = 'usneg/9340.bmp' width = '100%;'></div><div class = 'column'><img src = 'category2/CS4.png' width = '70%;'></div></div>","null","neg","CS","CS","2","category2/CS4.png","","","","",""
"","html-keyboard-response","58","2177746","0.0-6.0-4.0-0.10","13sseude43","one_one","1","indirect_first","0","er04ul90","1","24","2","2","2","1","","0","0","0","null","","","<div class = 'row'><div class = 'column'><img src = 'usneg/9220.bmp' width = '100%;'></div><div class = 'column'><img src = 'category1/CS2.png' width = '70%;'></div></div>","null","neg","CS","CS","1","category1/CS2.png","","","","",""
"","html-keyboard-response","59","2180268","0.0-6.0-4.0-0.11","13sseude43","one_one","1","indirect_first","0","er04ul90","1","24","2","2","2","1","","0","0","0","null","","","<div class = 'row'><div class = 'column'><img src = 'category2/CS4.png' width = '70%;'></div><div class = 'column'><img src = 'usneg/9340.bmp' width = '100%;'></div></div>","null","neg","CS","CS","2","category2/CS4.png","","","","",""
"","html-keyboard-response","60","2182790","0.0-6.0-4.0-0.12","13sseude43","one_one","1","indirect_first","0","er04ul90","1","24","2","2","2","1","","0","0","0","null","","","<div class = 'row'><div class = 'column'><img src = 'category4/CS1.png' width = '70%;'></div><div class = 'column'><img src = 'uspos/2550.bmp' width = '100%;'></div></div>","null","pos","CS","CS","4","category4/CS1.png","","","","",""
"","html-keyboard-response","61","2185294","0.0-6.0-4.0-0.13","13sseude43","one_one","1","indirect_first","0","er04ul90","1","24","2","2","2","1","","0","0","0","null","","","<div class = 'row'><div class = 'column'><img src = 'uspos/5621.bmp' width = '100%;'></div><div class = 'column'><img src = 'category3/CS2.png' width = '70%;'></div></div>","null","pos","CS","CS","3","category3/CS2.png","","","","",""
"","html-keyboard-response","62","2187810","0.0-6.0-4.0-0.14","13sseude43","one_one","1","indirect_first","0","er04ul90","1","24","2","2","2","1","","0","0","0","null","","","<div class = 'row'><div class = 'column'><img src = 'usneg/9340.bmp' width = '100%;'></div><div class = 'column'><img src = 'category2/CS4.png' width = '70%;'></div></div>","null","neg","CS","CS","2","category2/CS4.png","","","","",""
"","html-keyboard-response","63","2190328","0.0-6.0-4.0-0.15","13sseude43","one_one","1","indirect_first","0","er04ul90","1","24","2","2","2","1","","0","0","0","null","","","<div class = 'row'><div class = 'column'><img src = 'uspos/5621.bmp' width = '100%;'></div><div class = 'column'><img src = 'category3/CS2.png' width = '70%;'></div></div>","null","pos","CS","CS","3","category3/CS2.png","","","","",""
"","html-keyboard-response","64","2192850","0.0-6.0-4.0-0.16","13sseude43","one_one","1","indirect_first","0","er04ul90","1","24","2","2","2","1","","0","0","0","null","","","<div class = 'row'><div class = 'column'><img src = 'category4/CS1.png' width = '70%;'></div><div class = 'column'><img src = 'uspos/2550.bmp' width = '100%;'></div></div>","null","pos","CS","CS","4","category4/CS1.png","","","","",""
"","html-keyboard-response","65","2195378","0.0-6.0-4.0-0.17","13sseude43","one_one","1","indirect_first","0","er04ul90","1","24","2","2","2","1","","0","0","0","null","","","<div class = 'row'><div class = 'column'><img src = 'category1/CS2.png' width = '70%;'></div><div class = 'column'><img src = 'usneg/9220.bmp' width = '100%;'></div></div>","null","neg","CS","CS","1","category1/CS2.png","","","","",""
"","html-keyboard-response","66","2197906","0.0-6.0-4.0-0.18","13sseude43","one_one","1","indirect_first","0","er04ul90","1","24","2","2","2","1","","0","0","0","null","","","<div class = 'row'><div class = 'column'><img src = 'category3/CS2.png' width = '70%;'></div><div class = 'column'><img src = 'uspos/5621.bmp' width = '100%;'></div></div>","null","pos","CS","CS","3","category3/CS2.png","","","","",""
"","html-keyboard-response","67","2200430","0.0-6.0-4.0-0.19","13sseude43","one_one","1","indirect_first","0","er04ul90","1","24","2","2","2","1","","0","0","0","null","","","<div class = 'row'><div class = 'column'><img src = 'usneg/9340.bmp' width = '100%;'></div><div class = 'column'><img src = 'category2/CS4.png' width = '70%;'></div></div>","null","neg","CS","CS","2","category2/CS4.png","","","","",""
"","survey-html-form","68","4610668","0.0-6.0-5.0","13sseude43","one_one","1","indirect_first","0","er04ul90","1","24","2","2","2","1","","0","0","0","2409732","","{}","","","","","","","","","","","",""
"","html-keyboard-response","69","4614690","0.0-6.0-6.0-0.0","13sseude43","one_one","1","indirect_first","0","er04ul90","1","24","2","2","2","1","","0","0","0","null","","","<div class = 'row'><div class = 'column'><img src = 'uspos/5621.bmp' width = '100%;'></div><div class = 'column'><img src = 'category3/CS2.png' width = '70%;'></div></div>","null","pos","CS","CS","3","category3/CS2.png","","","","",""
"","html-keyboard-response","70","4617210","0.0-6.0-6.0-0.1","13sseude43","one_one","1","indirect_first","0","er04ul90","1","24","2","2","2","1","","0","0","0","null","","","<div class = 'row'><div class = 'column'><img src = 'category1/CS2.png' width = '70%;'></div><div class = 'column'><img src = 'usneg/9220.bmp' width = '100%;'></div></div>","null","neg","CS","CS","1","category1/CS2.png","","","","",""
"","html-keyboard-response","71","4619734","0.0-6.0-6.0-0.2","13sseude43","one_one","1","indirect_first","0","er04ul90","1","24","2","2","2","1","","0","0","0","null","","","<div class = 'row'><div class = 'column'><img src = 'uspos/5621.bmp' width = '100%;'></div><div class = 'column'><img src = 'category3/CS2.png' width = '70%;'></div></div>","null","pos","CS","CS","3","category3/CS2.png","","","","",""
"","html-keyboard-response","72","4622250","0.0-6.0-6.0-0.3","13sseude43","one_one","1","indirect_first","0","er04ul90","1","24","2","2","2","1","","0","0","0","null","","","<div class = 'row'><div class = 'column'><img src = 'category2/CS4.png' width = '70%;'></div><div class = 'column'><img src = 'usneg/9340.bmp' width = '100%;'></div></div>","null","neg","CS","CS","2","category2/CS4.png","","","","",""
"","html-keyboard-response","73","4624766","0.0-6.0-6.0-0.4","13sseude43","one_one","1","indirect_first","0","er04ul90","1","24","2","2","2","1","","0","0","0","null","","","<div class = 'row'><div class = 'column'><img src = 'category4/CS1.png' width = '70%;'></div><div class = 'column'><img src = 'uspos/2550.bmp' width = '100%;'></div></div>","null","pos","CS","CS","4","category4/CS1.png","","","","",""
"","html-keyboard-response","74","4627278","0.0-6.0-6.0-0.5","13sseude43","one_one","1","indirect_first","0","er04ul90","1","24","2","2","2","1","","0","0","0","null","","","<div class = 'row'><div class = 'column'><img src = 'uspos/5621.bmp' width = '100%;'></div><div class = 'column'><img src = 'category3/CS2.png' width = '70%;'></div></div>","null","pos","CS","CS","3","category3/CS2.png","","","","",""
"","html-keyboard-response","75","4629790","0.0-6.0-6.0-0.6","13sseude43","one_one","1","indirect_first","0","er04ul90","1","24","2","2","2","1","","0","0","0","null","","","<div class = 'row'><div class = 'column'><img src = 'uspos/2550.bmp' width = '100%;'></div><div class = 'column'><img src = 'category4/CS1.png' width = '70%;'></div></div>","null","pos","CS","CS","4","category4/CS1.png","","","","",""
"","html-keyboard-response","76","4632296","0.0-6.0-6.0-0.7","13sseude43","one_one","1","indirect_first","0","er04ul90","1","24","2","2","2","1","","0","0","0","null","","","<div class = 'row'><div class = 'column'><img src = 'usneg/9220.bmp' width = '100%;'></div><div class = 'column'><img src = 'category1/CS2.png' width = '70%;'></div></div>","null","neg","CS","CS","1","category1/CS2.png","","","","",""
"","html-keyboard-response","77","4634812","0.0-6.0-6.0-0.8","13sseude43","one_one","1","indirect_first","0","er04ul90","1","24","2","2","2","1","","0","0","0","null","","","<div class = 'row'><div class = 'column'><img src = 'category2/CS4.png' width = '70%;'></div><div class = 'column'><img src = 'usneg/9340.bmp' width = '100%;'></div></div>","null","neg","CS","CS","2","category2/CS4.png","","","","",""
"","html-keyboard-response","78","4637326","0.0-6.0-6.0-0.9","13sseude43","one_one","1","indirect_first","0","er04ul90","1","24","2","2","2","1","","0","0","0","null","","","<div class = 'row'><div class = 'column'><img src = 'uspos/2550.bmp' width = '100%;'></div><div class = 'column'><img src = 'category4/CS1.png' width = '70%;'></div></div>","null","pos","CS","CS","4","category4/CS1.png","","","","",""
"","html-keyboard-response","79","4639848","0.0-6.0-6.0-0.10","13sseude43","one_one","1","indirect_first","0","er04ul90","1","24","2","2","2","1","","0","0","0","null","","","<div class = 'row'><div class = 'column'><img src = 'category1/CS2.png' width = '70%;'></div><div class = 'column'><img src = 'usneg/9220.bmp' width = '100%;'></div></div>","null","neg","CS","CS","1","category1/CS2.png","","","","",""
"","html-keyboard-response","80","4642360","0.0-6.0-6.0-0.11","13sseude43","one_one","1","indirect_first","0","er04ul90","1","24","2","2","2","1","","0","0","0","null","","","<div class = 'row'><div class = 'column'><img src = 'uspos/2550.bmp' width = '100%;'></div><div class = 'column'><img src = 'category4/CS1.png' width = '70%;'></div></div>","null","pos","CS","CS","4","category4/CS1.png","","","","",""
"","html-keyboard-response","81","4644872","0.0-6.0-6.0-0.12","13sseude43","one_one","1","indirect_first","0","er04ul90","1","24","2","2","2","1","","0","0","0","null","","","<div class = 'row'><div class = 'column'><img src = 'category2/CS4.png' width = '70%;'></div><div class = 'column'><img src = 'usneg/9340.bmp' width = '100%;'></div></div>","null","neg","CS","CS","2","category2/CS4.png","","","","",""
"","html-keyboard-response","82","4647386","0.0-6.0-6.0-0.13","13sseude43","one_one","1","indirect_first","0","er04ul90","1","24","2","2","2","1","","0","0","0","null","","","<div class = 'row'><div class = 'column'><img src = 'usneg/9220.bmp' width = '100%;'></div><div class = 'column'><img src = 'category1/CS2.png' width = '70%;'></div></div>","null","neg","CS","CS","1","category1/CS2.png","","","","",""
"","html-keyboard-response","83","4649902","0.0-6.0-6.0-0.14","13sseude43","one_one","1","indirect_first","0","er04ul90","1","24","2","2","2","1","","0","0","0","null","","","<div class = 'row'><div class = 'column'><img src = 'usneg/9340.bmp' width = '100%;'></div><div class = 'column'><img src = 'category2/CS4.png' width = '70%;'></div></div>","null","neg","CS","CS","2","category2/CS4.png","","","","",""
"","html-keyboard-response","84","4652416","0.0-6.0-6.0-0.15","13sseude43","one_one","1","indirect_first","0","er04ul90","1","24","2","2","2","1","","0","0","0","null","","","<div class = 'row'><div class = 'column'><img src = 'category3/CS2.png' width = '70%;'></div><div class = 'column'><img src = 'uspos/5621.bmp' width = '100%;'></div></div>","null","pos","CS","CS","3","category3/CS2.png","","","","",""
"","html-keyboard-response","85","4654938","0.0-6.0-6.0-0.16","13sseude43","one_one","1","indirect_first","0","er04ul90","1","24","2","2","2","1","","0","0","0","null","","","<div class = 'row'><div class = 'column'><img src = 'usneg/9220.bmp' width = '100%;'></div><div class = 'column'><img src = 'category1/CS2.png' width = '70%;'></div></div>","null","neg","CS","CS","1","category1/CS2.png","","","","",""
"","html-keyboard-response","86","4657452","0.0-6.0-6.0-0.17","13sseude43","one_one","1","indirect_first","0","er04ul90","1","24","2","2","2","1","","0","0","0","null","","","<div class = 'row'><div class = 'column'><img src = 'usneg/9340.bmp' width = '100%;'></div><div class = 'column'><img src = 'category2/CS4.png' width = '70%;'></div></div>","null","neg","CS","CS","2","category2/CS4.png","","","","",""
"","html-keyboard-response","87","4659964","0.0-6.0-6.0-0.18","13sseude43","one_one","1","indirect_first","0","er04ul90","1","24","2","2","2","1","","0","0","0","null","","","<div class = 'row'><div class = 'column'><img src = 'uspos/5621.bmp' width = '100%;'></div><div class = 'column'><img src = 'category3/CS2.png' width = '70%;'></div></div>","null","pos","CS","CS","3","category3/CS2.png","","","","",""
"","html-keyboard-response","88","4662480","0.0-6.0-6.0-0.19","13sseude43","one_one","1","indirect_first","0","er04ul90","1","24","2","2","2","1","","0","0","0","null","","","<div class = 'row'><div class = 'column'><img src = 'category4/CS1.png' width = '70%;'></div><div class = 'column'><img src = 'uspos/2550.bmp' width = '100%;'></div></div>","null","pos","CS","CS","4","category4/CS1.png","","","","",""
"","html-keyboard-response","89","5511326","0.0-7.0","13sseude43","one_one","1","indirect_first","0","er04ul90","1","24","2","2","2","1","","0","0","0","848336","","","<p>Sie sehen nun die chinesischen Zeichen nur ganz kurz. Danach sehen Sie die jeweilige Aussprache der Zeichen als Silbe auf dem Bildschrim. Ihre Aufgabe ist es, für jede Silbe anzugeben, ob diese etwas angenehmes, oder unangenehmes bedeuten könnte. Verlassen Sie sich hier vor allem auf Ihre Intuition.<br><br>Die Zeichen werden nur zur Orientierung dargestellt, beachten Sie sie deshalb nicht. Konzentrieren Sie sich vor allem auf die Silben. <br>Reagieren Sie mit folgenden zwei Tasten: <br><br><b>'D' </b> wenn die Silbe etwas <b>unangenehmes</b> bedeuten könnte. <br><b>'K'</b> wenn die Silbe etwas <b>angenehmes</b> bedeuten könnte. <br><br>Bitte legen Sie nun den Zeigefinger der linken Hand auf die Taste 'D' und den Zeigefinger der rechten Hand auf die Taste 'K'. <br>Reagieren Sie auf jede Silbe so schnell wie möglich. Uns interessiert Ihre spontane Reaktion. <br> <br> <br>Drücken Sie 'D' oder 'K', um die nächste Aufgabe zu starten. </p>","68","","","","","","","","","",""
"","html-keyboard-response","90","5514350","0.0-8.0-0.0","13sseude43","one_one","1","indirect_first","0","er04ul90","1","24","2","2","2","1","","0","0","0","null","","","<div style=""font-size:60px;"">+</div>","null","","","","","","","","","",""
"","html-keyboard-response","91","5514442","0.0-8.0-1.0","13sseude43","one_one","1","indirect_first","0","er04ul90","1","24","2","2","2","1","","0","0","0","null","","","<img src = 'category4/CS1.png' width = '100%;'>","null","","","","","","","","","",""
"","html-keyboard-response","92","5514726","0.0-8.0-2.0","13sseude43","one_one","1","indirect_first","0","er04ul90","1","24","2","2","2","1","","0","0","0","null","","","<img src = 'targets/1.png' width = '100%;'>","null","","","","","","","","","",""
"","html-keyboard-response","93","5516304","0.0-8.0-3.0","13sseude43","one_one","1","indirect_first","0","er04ul90","1","24","2","2","2","1","","0","0","0","1578","","","<img src = 'targets/mask.png' width = '100%;'>","68","pos","CS","CS","4","category4/CS1.png","targets/1.png","0","indirect","0",""
"","html-keyboard-response","94","5517810","0.0-8.0-0.1","13sseude43","one_one","1","indirect_first","0","er04ul90","1","24","2","2","2","1","","0","0","0","null","","","<div style=""font-size:60px;"">+</div>","null","","","","","","","","","",""
"","html-keyboard-response","95","5517906","0.0-8.0-1.1","13sseude43","one_one","1","indirect_first","0","er04ul90","1","24","2","2","2","1","","0","0","0","null","","","<img src = 'category3/CS3.png' width = '100%;'>","null","","","","","","","","","",""
"","html-keyboard-response","96","5518186","0.0-8.0-2.1","13sseude43","one_one","1","indirect_first","0","er04ul90","1","24","2","2","2","1","","0","0","0","null","","","<img src = 'targets/2.png' width = '100%;'>","null","","","","","","","","","",""
"","html-keyboard-response","97","5520346","0.0-8.0-3.1","13sseude43","one_one","1","indirect_first","0","er04ul90","1","24","2","2","2","1","","0","0","0","2158","","","<img src = 'targets/mask.png' width = '100%;'>","68","pos","GS","GSold","3","category3/CS3.png","targets/2.png","0","indirect","1",""
"","html-keyboard-response","98","5521858","0.0-8.0-0.2","13sseude43","one_one","1","indirect_first","0","er04ul90","1","24","2","2","2","1","","0","0","0","null","","","<div style=""font-size:60px;"">+</div>","null","","","","","","","","","",""
"","html-keyboard-response","99","5521952","0.0-8.0-1.2","13sseude43","one_one","1","indirect_first","0","er04ul90","1","24","2","2","2","1","","0","0","0","null","","","<img src = 'category1/CS2.png' width = '100%;'>","null","","","","","","","","","",""
"","html-keyboard-response","100","5522216","0.0-8.0-2.2","13sseude43","one_one","1","indirect_first","0","er04ul90","1","24","2","2","2","1","","0","0","0","null","","","<img src = 'targets/40.png' width = '100%;'>","null","","","","","","","","","",""
"","html-keyboard-response","101","5524814","0.0-8.0-3.2","13sseude43","one_one","1","indirect_first","0","er04ul90","1","24","2","2","2","1","","0","0","0","2596","","","<img src = 'targets/mask.png' width = '100%;'>","68","neg","CS","CS","1","category1/CS2.png","targets/40.png","0","indirect","2",""
"","html-keyboard-response","102","5526340","0.0-8.0-0.3","13sseude43","one_one","1","indirect_first","0","er04ul90","1","24","2","2","2","1","","0","0","0","null","","","<div style=""font-size:60px;"">+</div>","null","","","","","","","","","",""
"","html-keyboard-response","103","5526434","0.0-8.0-1.3","13sseude43","one_one","1","indirect_first","0","er04ul90","1","24","2","2","2","1","","0","0","0","null","","","<img src = 'category3/CS10.png' width = '100%;'>","null","","","","","","","","","",""
"","html-keyboard-response","104","5526696","0.0-8.0-2.3","13sseude43","one_one","1","indirect_first","0","er04ul90","1","24","2","2","2","1","","0","0","0","null","","","<img src = 'targets/21.png' width = '100%;'>","null","","","","","","","","","",""
"","html-keyboard-response","105","5527154","0.0-8.0-3.3","13sseude43","one_one","1","indirect_first","0","er04ul90","1","24","2","2","2","1","","0","0","0","456","","","<img src = 'targets/mask.png' width = '100%;'>","75","pos","GS","GSold","3","category3/CS10.png","targets/21.png","1","indirect","3",""
"","html-keyboard-response","106","5528680","0.0-8.0-0.4","13sseude43","one_one","1","indirect_first","0","er04ul90","1","24","2","2","2","1","","0","0","0","null","","","<div style=""font-size:60px;"">+</div>","null","","","","","","","","","",""
"","html-keyboard-response","107","5528770","0.0-8.0-1.4","13sseude43","one_one","1","indirect_first","0","er04ul90","1","24","2","2","2","1","","0","0","0","null","","","<img src = 'category1/CS7.png' width = '100%;'>","null","","","","","","","","","",""
"","html-keyboard-response","108","5529038","0.0-8.0-2.4","13sseude43","one_one","1","indirect_first","0","er04ul90","1","24","2","2","2","1","","0","0","0","null","","","<img src = 'targets/13.png' width = '100%;'>","null","","","","","","","","","",""
"","html-keyboard-response","109","12926778","0.0-8.0-3.4","13sseude43","one_one","1","indirect_first","0","er04ul90","1","24","2","2","2","1","","0","0","0","7397738","","","<img src = 'targets/mask.png' width = '100%;'>","75","neg","GS","GSold","1","category1/CS7.png","targets/13.png","1","indirect","4",""
"","html-keyboard-response","110","12928300","0.0-8.0-0.5","13sseude43","one_one","1","indirect_first","0","er04ul90","1","24","2","2","2","1","","0","0","0","null","","","<div style=""font-size:60px;"">+</div>","null","","","","","","","","","",""
"","html-keyboard-response","111","12928392","0.0-8.0-1.5","13sseude43","one_one","1","indirect_first","0","er04ul90","1","24","2","2","2","1","","0","0","0","null","","","<img src = 'category4/CS2.png' width = '100%;'>","null","","","","","","","","","",""
"","html-keyboard-response","112","12928660","0.0-8.0-2.5","13sseude43","one_one","1","indirect_first","0","er04ul90","1","24","2","2","2","1","","0","0","0","null","","","<img src = 'targets/20.png' width = '100%;'>","null","","","","","","","","","",""
"","html-keyboard-response","113","12930218","0.0-8.0-3.5","13sseude43","one_one","1","indirect_first","0","er04ul90","1","24","2","2","2","1","","0","0","0","1556","","","<img src = 'targets/mask.png' width = '100%;'>","75","pos","GS","GSold","4","category4/CS2.png","targets/20.png","1","indirect","5",""
"","html-keyboard-response","114","12931730","0.0-8.0-0.6","13sseude43","one_one","1","indirect_first","0","er04ul90","1","24","2","2","2","1","","0","0","0","null","","","<div style=""font-size:60px;"">+</div>","null","","","","","","","","","",""
"","html-keyboard-response","115","12931822","0.0-8.0-1.6","13sseude43","one_one","1","indirect_first","0","er04ul90","1","24","2","2","2","1","","0","0","0","null","","","<img src = 'category3/CS2.png' width = '100%;'>","null","","","","","","","","","",""
"","html-keyboard-response","116","12932104","0.0-8.0-2.6","13sseude43","one_one","1","indirect_first","0","er04ul90","1","24","2","2","2","1","","0","0","0","null","","","<img src = 'targets/29.png' width = '100%;'>","null","","","","","","","","","",""
"","html-keyboard-response","117","12932210","0.0-8.0-3.6","13sseude43","one_one","1","indirect_first","0","er04ul90","1","24","2","2","2","1","","0","0","0","106","","","<img src = 'targets/mask.png' width = '100%;'>","75","pos","CS","CS","3","category3/CS2.png","targets/29.png","1","indirect","6",""
"","html-keyboard-response","118","12933738","0.0-8.0-0.7","13sseude43","one_one","1","indirect_first","0","er04ul90","1","24","2","2","2","1","","0","0","0","null","","","<div style=""font-size:60px;"">+</div>","null","","","","","","","","","",""
"","html-keyboard-response","119","12933834","0.0-8.0-1.7","13sseude43","one_one","1","indirect_first","0","er04ul90","1","24","2","2","2","1","","0","0","0","null","","","<img src = 'category4/CS4.png' width = '100%;'>","null","","","","","","","","","",""
"","html-keyboard-response","120","12934102","0.0-8.0-2.7","13sseude43","one_one","1","indirect_first","0","er04ul90","1","24","2","2","2","1","","0","0","0","null","","","<img src = 'targets/33.png' width = '100%;'>","null","","","","","","","","","",""
"","html-keyboard-response","121","12934114","0.0-8.0-3.7","13sseude43","one_one","1","indirect_first","0","er04ul90","1","24","2","2","2","1","","0","0","0","10","","","<img src = 'targets/mask.png' width = '100%;'>","75","pos","GS","GSold","4","category4/CS4.png","targets/33.png","1","indirect","7",""
"","html-keyboard-response","122","12935634","0.0-8.0-0.8","13sseude43","one_one","1","indirect_first","0","er04ul90","1","24","2","2","2","1","","0","0","0","null","","","<div style=""font-size:60px;"">+</div>","null","","","","","","","","","",""
"","html-keyboard-response","123","12935728","0.0-8.0-1.8","13sseude43","one_one","1","indirect_first","0","er04ul90","1","24","2","2","2","1","","0","0","0","null","","","<img src = 'category2/CS1.png' width = '100%;'>","null","","","","","","","","","",""
"","html-keyboard-response","124","12935994","0.0-8.0-2.8","13sseude43","one_one","1","indirect_first","0","er04ul90","1","24","2","2","2","1","","0","0","0","null","","","<img src = 'targets/44.png' width = '100%;'>","null","","","","","","","","","",""
"","html-keyboard-response","125","12936132","0.0-8.0-3.8","13sseude43","one_one","1","indirect_first","0","er04ul90","1","24","2","2","2","1","","0","0","0","134","","","<img src = 'targets/mask.png' width = '100%;'>","75","neg","GS","GSold","2","category2/CS1.png","targets/44.png","1","indirect","8",""
"","html-keyboard-response","126","12937650","0.0-8.0-0.9","13sseude43","one_one","1","indirect_first","0","er04ul90","1","24","2","2","2","1","","0","0","0","null","","","<div style=""font-size:60px;"">+</div>","null","","","","","","","","","",""
"","html-keyboard-response","127","12937744","0.0-8.0-1.9","13sseude43","one_one","1","indirect_first","0","er04ul90","1","24","2","2","2","1","","0","0","0","null","","","<img src = 'category2/CS5.png' width = '100%;'>","null","","","","","","","","","",""
"","html-keyboard-response","128","12938022","0.0-8.0-2.9","13sseude43","one_one","1","indirect_first","0","er04ul90","1","24","2","2","2","1","","0","0","0","null","","","<img src = 'targets/35.png' width = '100%;'>","null","","","","","","","","","",""
"","html-keyboard-response","129","12938220","0.0-8.0-3.9","13sseude43","one_one","1","indirect_first","0","er04ul90","1","24","2","2","2","1","","0","0","0","192","","","<img src = 'targets/mask.png' width = '100%;'>","75","neg","GS","GSold","2","category2/CS5.png","targets/35.png","1","indirect","9",""
"","html-keyboard-response","130","12939742","0.0-8.0-0.10","13sseude43","one_one","1","indirect_first","0","er04ul90","1","24","2","2","2","1","","0","0","0","null","","","<div style=""font-size:60px;"">+</div>","null","","","","","","","","","",""
"","html-keyboard-response","131","12939834","0.0-8.0-1.10","13sseude43","one_one","1","indirect_first","0","er04ul90","1","24","2","2","2","1","","0","0","0","null","","","<img src = 'category2/CS2.png' width = '100%;'>","null","","","","","","","","","",""
"","html-keyboard-response","132","12940086","0.0-8.0-2.10","13sseude43","one_one","1","indirect_first","0","er04ul90","1","24","2","2","2","1","","0","0","0","null","","","<img src = 'targets/22.png' width = '100%;'>","null","","","","","","","","","",""
"","html-keyboard-response","133","12940098","0.0-8.0-3.10","13sseude43","one_one","1","indirect_first","0","er04ul90","1","24","2","2","2","1","","0","0","0","10","","","<img src = 'targets/mask.png' width = '100%;'>","68","neg","GS","GSold","2","category2/CS2.png","targets/22.png","0","indirect","10",""
"","html-keyboard-response","134","12941620","0.0-8.0-0.11","13sseude43","one_one","1","indirect_first","0","er04ul90","1","24","2","2","2","1","","0","0","0","null","","","<div style=""font-size:60px;"">+</div>","null","","","","","","","","","",""
"","html-keyboard-response","135","12941710","0.0-8.0-1.11","13sseude43","one_one","1","indirect_first","0","er04ul90","1","24","2","2","2","1","","0","0","0","null","","","<img src = 'category1/CS1.png' width = '100%;'>","null","","","","","","","","","",""
"","html-keyboard-response","136","12941976","0.0-8.0-2.11","13sseude43","one_one","1","indirect_first","0","er04ul90","1","24","2","2","2","1","","0","0","0","null","","","<img src = 'targets/12.png' width = '100%;'>","null","","","","","","","","","",""
"","html-keyboard-response","137","12942222","0.0-8.0-3.11","13sseude43","one_one","1","indirect_first","0","er04ul90","1","24","2","2","2","1","","0","0","0","246","","","<img src = 'targets/mask.png' width = '100%;'>","68","neg","GS","GSold","1","category1/CS1.png","targets/12.png","0","indirect","11",""
"","html-keyboard-response","138","12943736","0.0-8.0-0.12","13sseude43","one_one","1","indirect_first","0","er04ul90","1","24","2","2","2","1","","0","0","0","null","","","<div style=""font-size:60px;"">+</div>","null","","","","","","","","","",""
"","html-keyboard-response","139","12943830","0.0-8.0-1.12","13sseude43","one_one","1","indirect_first","0","er04ul90","1","24","2","2","2","1","","0","0","0","null","","","<img src = 'category4/CS7.png' width = '100%;'>","null","","","","","","","","","",""
"","html-keyboard-response","140","12944110","0.0-8.0-2.12","13sseude43","one_one","1","indirect_first","0","er04ul90","1","24","2","2","2","1","","0","0","0","null","","","<img src = 'targets/10.png' width = '100%;'>","null","","","","","","","","","",""
"","html-keyboard-response","141","12944166","0.0-8.0-3.12","13sseude43","one_one","1","indirect_first","0","er04ul90","1","24","2","2","2","1","","0","0","0","54","","","<img src = 'targets/mask.png' width = '100%;'>","75","pos","GS","GSold","4","category4/CS7.png","targets/10.png","1","indirect","12",""
"","html-keyboard-response","142","12945686","0.0-8.0-0.13","13sseude43","one_one","1","indirect_first","0","er04ul90","1","24","2","2","2","1","","0","0","0","null","","","<div style=""font-size:60px;"">+</div>","null","","","","","","","","","",""
"","html-keyboard-response","143","12945778","0.0-8.0-1.13","13sseude43","one_one","1","indirect_first","0","er04ul90","1","24","2","2","2","1","","0","0","0","null","","","<img src = 'category3/CS9.png' width = '100%;'>","null","","","","","","","","","",""
"","html-keyboard-response","144","12946058","0.0-8.0-2.13","13sseude43","one_one","1","indirect_first","0","er04ul90","1","24","2","2","2","1","","0","0","0","null","","","<img src = 'targets/36.png' width = '100%;'>","null","","","","","","","","","",""
"","html-keyboard-response","145","12946172","0.0-8.0-3.13","13sseude43","one_one","1","indirect_first","0","er04ul90","1","24","2","2","2","1","","0","0","0","114","","","<img src = 'targets/mask.png' width = '100%;'>","75","pos","GS","GSold","3","category3/CS9.png","targets/36.png","1","indirect","13",""
"","html-keyboard-response","146","12947692","0.0-8.0-0.14","13sseude43","one_one","1","indirect_first","0","er04ul90","1","24","2","2","2","1","","0","0","0","null","","","<div style=""font-size:60px;"">+</div>","null","","","","","","","","","",""
"","html-keyboard-response","147","12947786","0.0-8.0-1.14","13sseude43","one_one","1","indirect_first","0","er04ul90","1","24","2","2","2","1","","0","0","0","null","","","<img src = 'category2/CS4.png' width = '100%;'>","null","","","","","","","","","",""
"","html-keyboard-response","148","12948066","0.0-8.0-2.14","13sseude43","one_one","1","indirect_first","0","er04ul90","1","24","2","2","2","1","","0","0","0","null","","","<img src = 'targets/7.png' width = '100%;'>","null","","","","","","","","","",""
"","html-keyboard-response","149","12948138","0.0-8.0-3.14","13sseude43","one_one","1","indirect_first","0","er04ul90","1","24","2","2","2","1","","0","0","0","72","","","<img src = 'targets/mask.png' width = '100%;'>","75","neg","CS","CS","2","category2/CS4.png","targets/7.png","1","indirect","14",""
"","html-keyboard-response","150","12949652","0.0-8.0-0.15","13sseude43","one_one","1","indirect_first","0","er04ul90","1","24","2","2","2","1","","0","0","0","null","","","<div style=""font-size:60px;"">+</div>","null","","","","","","","","","",""
"","html-keyboard-response","151","12949744","0.0-8.0-1.15","13sseude43","one_one","1","indirect_first","0","er04ul90","1","24","2","2","2","1","","0","0","0","null","","","<img src = 'category1/CS6.png' width = '100%;'>","null","","","","","","","","","",""
"","html-keyboard-response","152","12950024","0.0-8.0-2.15","13sseude43","one_one","1","indirect_first","0","er04ul90","1","24","2","2","2","1","","0","0","0","null","","","<img src = 'targets/11.png' width = '100%;'>","null","","","","","","","","","",""
"","html-keyboard-response","153","12950420","0.0-8.0-3.15","13sseude43","one_one","1","indirect_first","0","er04ul90","1","24","2","2","2","1","","0","0","0","394","","","<img src = 'targets/mask.png' width = '100%;'>","68","neg","GS","GSold","1","category1/CS6.png","targets/11.png","0","indirect","15",""
"","survey-html-form","154","12988524","0.0-9.0","13sseude43","one_one","1","indirect_first","0","er04ul90","1","24","2","2","2","1","","0","0","0","37596","","{}","","","","","","","","","","","",""
"","html-keyboard-response","155","12991546","0.0-10.0-0.0","13sseude43","one_one","1","indirect_first","0","er04ul90","1","24","2","2","2","1","","0","0","0","null","","","<div style=""font-size:60px;"">+</div>","null","","","","","","","","","",""
"","html-keyboard-response","156","12991638","0.0-10.0-1.0","13sseude43","one_one","1","indirect_first","0","er04ul90","1","24","2","2","2","1","","0","0","0","null","","","<img src = 'category1/GS3.png' width = '100%;'>","null","","","","","","","","","",""
"","html-keyboard-response","157","12991906","0.0-10.0-2.0","13sseude43","one_one","1","indirect_first","0","er04ul90","1","24","2","2","2","1","","0","0","0","null","","","<img src = 'targets/41.png' width = '100%;'>","null","","","","","","","","","",""
"","html-keyboard-response","158","12991980","0.0-10.0-3.0","13sseude43","one_one","1","indirect_first","0","er04ul90","1","24","2","2","2","1","","0","0","0","72","","","<img src = 'targets/mask.png' width = '100%;'>","68","neg","GS","GSnew","1","category1/GS3.png","targets/41.png","0","indirect","16",""
"","html-keyboard-response","159","12993496","0.0-10.0-0.1","13sseude43","one_one","1","indirect_first","0","er04ul90","1","24","2","2","2","1","","0","0","0","null","","","<div style=""font-size:60px;"">+</div>","null","","","","","","","","","",""
"","html-keyboard-response","160","12993590","0.0-10.0-1.1","13sseude43","one_one","1","indirect_first","0","er04ul90","1","24","2","2","2","1","","0","0","0","null","","","<img src = 'category4/GS1.png' width = '100%;'>","null","","","","","","","","","",""
"","html-keyboard-response","161","12993866","0.0-10.0-2.1","13sseude43","one_one","1","indirect_first","0","er04ul90","1","24","2","2","2","1","","0","0","0","null","","","<img src = 'targets/43.png' width = '100%;'>","null","","","","","","","","","",""
"","html-keyboard-response","162","12994250","0.0-10.0-3.1","13sseude43","one_one","1","indirect_first","0","er04ul90","1","24","2","2","2","1","","0","0","0","382","","","<img src = 'targets/mask.png' width = '100%;'>","68","pos","GS","GSnew","4","category4/GS1.png","targets/43.png","0","indirect","17",""
"","html-keyboard-response","163","12995774","0.0-10.0-0.2","13sseude43","one_one","1","indirect_first","0","er04ul90","1","24","2","2","2","1","","0","0","0","null","","","<div style=""font-size:60px;"">+</div>","null","","","","","","","","","",""
"","html-keyboard-response","164","12995870","0.0-10.0-1.2","13sseude43","one_one","1","indirect_first","0","er04ul90","1","24","2","2","2","1","","0","0","0","null","","","<img src = 'category1/ma.png' width = '100%;'>","null","","","","","","","","","",""
"","html-keyboard-response","165","12996148","0.0-10.0-2.2","13sseude43","one_one","1","indirect_first","0","er04ul90","1","24","2","2","2","1","","0","0","0","null","","","<img src = 'targets/16.png' width = '100%;'>","null","","","","","","","","","",""
"","html-keyboard-response","166","12996206","0.0-10.0-3.2","13sseude43","one_one","1","indirect_first","0","er04ul90","1","24","2","2","2","1","","0","0","0","56","","","<img src = 'targets/mask.png' width = '100%;'>","68","neg","GS","abstract","1","category1/ma.png","targets/16.png","0","indirect","18",""
"","html-keyboard-response","167","12997722","0.0-10.0-0.3","13sseude43","one_one","1","indirect_first","0","er04ul90","1","24","2","2","2","1","","0","0","0","null","","","<div style=""font-size:60px;"">+</div>","null","","","","","","","","","",""
"","html-keyboard-response","168","12997814","0.0-10.0-1.3","13sseude43","one_one","1","indirect_first","0","er04ul90","1","24","2","2","2","1","","0","0","0","null","","","<img src = 'category4/lin.png' width = '100%;'>","null","","","","","","","","","",""
"","html-keyboard-response","169","12998094","0.0-10.0-2.3","13sseude43","one_one","1","indirect_first","0","er04ul90","1","24","2","2","2","1","","0","0","0","null","","","<img src = 'targets/30.png' width = '100%;'>","null","","","","","","","","","",""
"","html-keyboard-response","170","12998098","0.0-10.0-3.3","13sseude43","one_one","1","indirect_first","0","er04ul90","1","24","2","2","2","1","","0","0","0","2","","","<img src = 'targets/mask.png' width = '100%;'>","75","pos","GS","abstract","4","category4/lin.png","targets/30.png","1","indirect","19",""
"","html-keyboard-response","171","12999618","0.0-10.0-0.4","13sseude43","one_one","1","indirect_first","0","er04ul90","1","24","2","2","2","1","","0","0","0","null","","","<div style=""font-size:60px;"">+</div>","null","","","","","","","","","",""
"","html-keyboard-response","172","12999710","0.0-10.0-1.4","13sseude43","one_one","1","indirect_first","0","er04ul90","1","24","2","2","2","1","","0","0","0","null","","","<img src = 'category3/GS1.png' width = '100%;'>","null","","","","","","","","","",""
"","html-keyboard-response","173","12999960","0.0-10.0-2.4","13sseude43","one_one","1","indirect_first","0","er04ul90","1","24","2","2","2","1","","0","0","0","null","","","<img src = 'targets/31.png' width = '100%;'>","null","","","","","","","","","",""
"","html-keyboard-response","174","13000200","0.0-10.0-3.4","13sseude43","one_one","1","indirect_first","0","er04ul90","1","24","2","2","2","1","","0","0","0","238","","","<img src = 'targets/mask.png' width = '100%;'>","68","pos","GS","GSnew","3","category3/GS1.png","targets/31.png","0","indirect","20",""
"","html-keyboard-response","175","13001712","0.0-10.0-0.5","13sseude43","one_one","1","indirect_first","0","er04ul90","1","24","2","2","2","1","","0","0","0","null","","","<div style=""font-size:60px;"">+</div>","null","","","","","","","","","",""
"","html-keyboard-response","176","13001812","0.0-10.0-1.5","13sseude43","one_one","1","indirect_first","0","er04ul90","1","24","2","2","2","1","","0","0","0","null","","","<img src = 'category3/GS3.png' width = '100%;'>","null","","","","","","","","","",""
"","html-keyboard-response","177","13002080","0.0-10.0-2.5","13sseude43","one_one","1","indirect_first","0","er04ul90","1","24","2","2","2","1","","0","0","0","null","","","<img src = 'targets/39.png' width = '100%;'>","null","","","","","","","","","",""
"","html-keyboard-response","178","13002324","0.0-10.0-3.5","13sseude43","one_one","1","indirect_first","0","er04ul90","1","24","2","2","2","1","","0","0","0","242","","","<img src = 'targets/mask.png' width = '100%;'>","68","pos","GS","GSnew","3","category3/GS3.png","targets/39.png","0","indirect","21",""
"","html-keyboard-response","179","13003838","0.0-10.0-0.6","13sseude43","one_one","1","indirect_first","0","er04ul90","1","24","2","2","2","1","","0","0","0","null","","","<div style=""font-size:60px;"">+</div>","null","","","","","","","","","",""
"","html-keyboard-response","180","13003932","0.0-10.0-1.6","13sseude43","one_one","1","indirect_first","0","er04ul90","1","24","2","2","2","1","","0","0","0","null","","","<img src = 'category4/GS3.png' width = '100%;'>","null","","","","","","","","","",""
"","html-keyboard-response","181","13004200","0.0-10.0-2.6","13sseude43","one_one","1","indirect_first","0","er04ul90","1","24","2","2","2","1","","0","0","0","null","","","<img src = 'targets/47.png' width = '100%;'>","null","","","","","","","","","",""
"","html-keyboard-response","182","13004218","0.0-10.0-3.6","13sseude43","one_one","1","indirect_first","0","er04ul90","1","24","2","2","2","1","","0","0","0","18","","","<img src = 'targets/mask.png' width = '100%;'>","75","pos","GS","GSnew","4","category4/GS3.png","targets/47.png","1","indirect","22",""
"","html-keyboard-response","183","13005744","0.0-10.0-0.7","13sseude43","one_one","1","indirect_first","0","er04ul90","1","24","2","2","2","1","","0","0","0","null","","","<div style=""font-size:60px;"">+</div>","null","","","","","","","","","",""
"","html-keyboard-response","184","13005836","0.0-10.0-1.7","13sseude43","one_one","1","indirect_first","0","er04ul90","1","24","2","2","2","1","","0","0","0","null","","","<img src = 'category2/men.png' width = '100%;'>","null","","","","","","","","","",""
"","html-keyboard-response","185","13006114","0.0-10.0-2.7","13sseude43","one_one","1","indirect_first","0","er04ul90","1","24","2","2","2","1","","0","0","0","null","","","<img src = 'targets/26.png' width = '100%;'>","null","","","","","","","","","",""
"","html-keyboard-response","186","13006200","0.0-10.0-3.7","13sseude43","one_one","1","indirect_first","0","er04ul90","1","24","2","2","2","1","","0","0","0","84","","","<img src = 'targets/mask.png' width = '100%;'>","75","neg","GS","abstract","2","category2/men.png","targets/26.png","1","indirect","23",""
"","html-keyboard-response","187","13007710","0.0-10.0-0.8","13sseude43","one_one","1","indirect_first","0","er04ul90","1","24","2","2","2","1","","0","0","0","null","","","<div style=""font-size:60px;"">+</div>","null","","","","","","","","","",""
"","html-keyboard-response","188","13007810","0.0-10.0-1.8","13sseude43","one_one","1","indirect_first","0","er04ul90","1","24","2","2","2","1","","0","0","0","null","","","<img src = 'category3/GS2.png' width = '100%;'>","null","","","","","","","","","",""
"","html-keyboard-response","189","13008076","0.0-10.0-2.8","13sseude43","one_one","1","indirect_first","0","er04ul90","1","24","2","2","2","1","","0","0","0","null","","","<img src = 'targets/14.png' width = '100%;'>","null","","","","","","","","","",""
"","html-keyboard-response","190","13008122","0.0-10.0-3.8","13sseude43","one_one","1","indirect_first","0","er04ul90","1","24","2","2","2","1","","0","0","0","44","","","<img src = 'targets/mask.png' width = '100%;'>","75","pos","GS","GSnew","3","category3/GS2.png","targets/14.png","1","indirect","24",""
"","html-keyboard-response","191","13009630","0.0-10.0-0.9","13sseude43","one_one","1","indirect_first","0","er04ul90","1","24","2","2","2","1","","0","0","0","null","","","<div style=""font-size:60px;"">+</div>","null","","","","","","","","","",""
"","html-keyboard-response","192","13009724","0.0-10.0-1.9","13sseude43","one_one","1","indirect_first","0","er04ul90","1","24","2","2","2","1","","0","0","0","null","","","<img src = 'category3/wang.png' width = '100%;'>","null","","","","","","","","","",""
"","html-keyboard-response","193","13010004","0.0-10.0-2.9","13sseude43","one_one","1","indirect_first","0","er04ul90","1","24","2","2","2","1","","0","0","0","null","","","<img src = 'targets/45.png' width = '100%;'>","null","","","","","","","","","",""
"","html-keyboard-response","194","13013032","0.0-10.0-3.9","13sseude43","one_one","1","indirect_first","0","er04ul90","1","24","2","2","2","1","","0","0","0","3028","","","<img src = 'targets/mask.png' width = '100%;'>","68","pos","GS","abstract","3","category3/wang.png","targets/45.png","0","indirect","25",""
"","html-keyboard-response","195","13014538","0.0-10.0-0.10","13sseude43","one_one","1","indirect_first","0","er04ul90","1","24","2","2","2","1","","0","0","0","null","","","<div style=""font-size:60px;"">+</div>","null","","","","","","","","","",""
"","html-keyboard-response","196","13014632","0.0-10.0-1.10","13sseude43","one_one","1","indirect_first","0","er04ul90","1","24","2","2","2","1","","0","0","0","null","","","<img src = 'category2/GS3.png' width = '100%;'>","null","","","","","","","","","",""
"","html-keyboard-response","197","13014894","0.0-10.0-2.10","13sseude43","one_one","1","indirect_first","0","er04ul90","1","24","2","2","2","1","","0","0","0","null","","","<img src = 'targets/48.png' width = '100%;'>","null","","","","","","","","","",""
"","html-keyboard-response","198","13015028","0.0-10.0-3.10","13sseude43","one_one","1","indirect_first","0","er04ul90","1","24","2","2","2","1","","0","0","0","136","","","<img src = 'targets/mask.png' width = '100%;'>","68","neg","GS","GSnew","2","category2/GS3.png","targets/48.png","0","indirect","26",""
"","html-keyboard-response","199","13016546","0.0-10.0-0.11","13sseude43","one_one","1","indirect_first","0","er04ul90","1","24","2","2","2","1","","0","0","0","null","","","<div style=""font-size:60px;"">+</div>","null","","","","","","","","","",""
"","html-keyboard-response","200","13016642","0.0-10.0-1.11","13sseude43","one_one","1","indirect_first","0","er04ul90","1","24","2","2","2","1","","0","0","0","null","","","<img src = 'category1/GS2.png' width = '100%;'>","null","","","","","","","","","",""
"","html-keyboard-response","201","13016906","0.0-10.0-2.11","13sseude43","one_one","1","indirect_first","0","er04ul90","1","24","2","2","2","1","","0","0","0","null","","","<img src = 'targets/15.png' width = '100%;'>","null","","","","","","","","","",""
"","html-keyboard-response","202","13016990","0.0-10.0-3.11","13sseude43","one_one","1","indirect_first","0","er04ul90","1","24","2","2","2","1","","0","0","0","82","","","<img src = 'targets/mask.png' width = '100%;'>","68","neg","GS","GSnew","1","category1/GS2.png","targets/15.png","0","indirect","27",""
"","html-keyboard-response","203","13018498","0.0-10.0-0.12","13sseude43","one_one","1","indirect_first","0","er04ul90","1","24","2","2","2","1","","0","0","0","null","","","<div style=""font-size:60px;"">+</div>","null","","","","","","","","","",""
"","html-keyboard-response","204","13018594","0.0-10.0-1.12","13sseude43","one_one","1","indirect_first","0","er04ul90","1","24","2","2","2","1","","0","0","0","null","","","<img src = 'category4/GS2.png' width = '100%;'>","null","","","","","","","","","",""
"","html-keyboard-response","205","13018872","0.0-10.0-2.12","13sseude43","one_one","1","indirect_first","0","er04ul90","1","24","2","2","2","1","","0","0","0","null","","","<img src = 'targets/27.png' width = '100%;'>","null","","","","","","","","","",""
"","html-keyboard-response","206","13019038","0.0-10.0-3.12","13sseude43","one_one","1","indirect_first","0","er04ul90","1","24","2","2","2","1","","0","0","0","162","","","<img src = 'targets/mask.png' width = '100%;'>","68","pos","GS","GSnew","4","category4/GS2.png","targets/27.png","0","indirect","28",""
"","html-keyboard-response","207","13020550","0.0-10.0-0.13","13sseude43","one_one","1","indirect_first","0","er04ul90","1","24","2","2","2","1","","0","0","0","null","","","<div style=""font-size:60px;"">+</div>","null","","","","","","","","","",""
"","html-keyboard-response","208","13020644","0.0-10.0-1.13","13sseude43","one_one","1","indirect_first","0","er04ul90","1","24","2","2","2","1","","0","0","0","null","","","<img src = 'category2/GS1.png' width = '100%;'>","null","","","","","","","","","",""
"","html-keyboard-response","209","13020922","0.0-10.0-2.13","13sseude43","one_one","1","indirect_first","0","er04ul90","1","24","2","2","2","1","","0","0","0","null","","","<img src = 'targets/24.png' width = '100%;'>","null","","","","","","","","","",""
"","html-keyboard-response","210","13020958","0.0-10.0-3.13","13sseude43","one_one","1","indirect_first","0","er04ul90","1","24","2","2","2","1","","0","0","0","34","","","<img src = 'targets/mask.png' width = '100%;'>","75","neg","GS","GSnew","2","category2/GS1.png","targets/24.png","1","indirect","29",""
"","html-keyboard-response","211","13022480","0.0-10.0-0.14","13sseude43","one_one","1","indirect_first","0","er04ul90","1","24","2","2","2","1","","0","0","0","null","","","<div style=""font-size:60px;"">+</div>","null","","","","","","","","","",""
"","html-keyboard-response","212","13022576","0.0-10.0-1.14","13sseude43","one_one","1","indirect_first","0","er04ul90","1","24","2","2","2","1","","0","0","0","null","","","<img src = 'category1/GS1.png' width = '100%;'>","null","","","","","","","","","",""
"","html-keyboard-response","213","13022842","0.0-10.0-2.14","13sseude43","one_one","1","indirect_first","0","er04ul90","1","24","2","2","2","1","","0","0","0","null","","","<img src = 'targets/32.png' width = '100%;'>","null","","","","","","","","","",""
"","html-keyboard-response","214","14017848","0.0-10.0-3.14","13sseude43","one_one","1","indirect_first","0","er04ul90","1","24","2","2","2","1","","0","0","0","995004","","","<img src = 'targets/mask.png' width = '100%;'>","68","neg","GS","GSnew","1","category1/GS1.png","targets/32.png","0","indirect","30",""
"","html-keyboard-response","215","14019374","0.0-10.0-0.15","13sseude43","one_one","1","indirect_first","0","er04ul90","1","24","2","2","2","1","","0","0","0","null","","","<div style=""font-size:60px;"">+</div>","null","","","","","","","","","",""
"","html-keyboard-response","216","14019470","0.0-10.0-1.15","13sseude43","one_one","1","indirect_first","0","er04ul90","1","24","2","2","2","1","","0","0","0","null","","","<img src = 'category2/GS2.png' width = '100%;'>","null","","","","","","","","","",""
"","html-keyboard-response","217","14019748","0.0-10.0-2.15","13sseude43","one_one","1","indirect_first","0","er04ul90","1","24","2","2","2","1","","0","0","0","null","","","<img src = 'targets/28.png' width = '100%;'>","null","","","","","","","","","",""
"","html-keyboard-response","218","15468842","0.0-10.0-3.15","13sseude43","one_one","1","indirect_first","0","er04ul90","1","24","2","2","2","1","","0","0","0","1449094","","","<img src = 'targets/mask.png' width = '100%;'>","68","neg","GS","GSnew","2","category2/GS2.png","targets/28.png","0","indirect","31",""
"","survey-html-form","219","15481758","0.0-11.0","13sseude43","one_one","1","indirect_first","0","er04ul90","1","24","2","2","2","1","","0","0","0","12402","","{}","","","","","","","","","","","",""
"","image-slider-response","220","15487164","0.0-12.0-0.0","13sseude43","one_one","1","indirect_first","0","er04ul90","1","24","2","2","2","1","","0","0","0","3386","","","","","pos","GS","GSnew","4","category4/GS2.png","targets/27.png","","direct","","45"
"","image-slider-response","221","15488940","0.0-12.0-0.1","13sseude43","one_one","1","indirect_first","0","er04ul90","1","24","2","2","2","1","","0","0","0","1772","","","","","neg","GS","GSold","1","category1/CS7.png","targets/13.png","","direct","","-44"
"","image-slider-response","222","15490886","0.0-12.0-0.2","13sseude43","one_one","1","indirect_first","0","er04ul90","1","24","2","2","2","1","","0","0","0","1942","","","","","neg","GS","GSnew","2","category2/GS3.png","targets/48.png","","direct","","25"
"","image-slider-response","223","15612238","0.0-12.0-0.3","13sseude43","one_one","1","indirect_first","0","er04ul90","1","24","2","2","2","1","","0","0","0","121348","","","","","neg","GS","GSold","1","category1/CS6.png","targets/11.png","","direct","","-39"
"","image-slider-response","224","15764922","0.0-12.0-0.4","13sseude43","one_one","1","indirect_first","0","er04ul90","1","24","2","2","2","1","","0","0","0","152684","","","","","neg","GS","GSold","2","category2/CS2.png","targets/22.png","","direct","","0"
"","image-slider-response","225","15798958","0.0-12.0-0.5","13sseude43","one_one","1","indirect_first","0","er04ul90","1","24","2","2","2","1","","0","0","0","34034","","","","","pos","GS","GSold","4","category4/CS7.png","targets/10.png","","direct","","0"
"","image-slider-response","226","15858052","0.0-12.0-0.6","13sseude43","one_one","1","indirect_first","0","er04ul90","1","24","2","2","2","1","","0","0","0","59092","","","","","pos","GS","abstract","4","category4/lin.png","targets/30.png","","direct","","0"
"","image-slider-response","227","15859288","0.0-12.0-0.7","13sseude43","one_one","1","indirect_first","0","er04ul90","1","24","2","2","2","1","","0","0","0","1232","","","","","neg","GS","GSold","1","category1/CS1.png","targets/12.png","","direct","","0"
"","image-slider-response","228","15859912","0.0-12.0-0.8","13sseude43","one_one","1","indirect_first","0","er04ul90","1","24","2","2","2","1","","0","0","0","622","","","","","neg","GS","GSnew","1","category1/GS3.png","targets/41.png","","direct","","0"
"","image-slider-response","229","15860402","0.0-12.0-0.9","13sseude43","one_one","1","indirect_first","0","er04ul90","1","24","2","2","2","1","","0","0","0","490","","","","","neg","GS","GSold","2","category2/CS5.png","targets/35.png","","direct","","0"
"","image-slider-response","230","15860708","0.0-12.0-0.10","13sseude43","one_one","1","indirect_first","0","er04ul90","1","24","2","2","2","1","","0","0","0","304","","","","","pos","GS","GSold","4","category4/CS4.png","targets/33.png","","direct","","0"
"","image-slider-response","231","15860964","0.0-12.0-0.11","13sseude43","one_one","1","indirect_first","0","er04ul90","1","24","2","2","2","1","","0","0","0","256","","","","","neg","CS","CS","2","category2/CS4.png","targets/7.png","","direct","","0"
"","image-slider-response","232","15861206","0.0-12.0-0.12","13sseude43","one_one","1","indirect_first","0","er04ul90","1","24","2","2","2","1","","0","0","0","242","","","","","neg","GS","GSnew","1","category1/GS2.png","targets/15.png","","direct","","0"
"","image-slider-response","233","15861412","0.0-12.0-0.13","13sseude43","one_one","1","indirect_first","0","er04ul90","1","24","2","2","2","1","","0","0","0","204","","","","","pos","CS","CS","3","category3/CS2.png","targets/29.png","","direct","","0"
"","image-slider-response","234","15861630","0.0-12.0-0.14","13sseude43","one_one","1","indirect_first","0","er04ul90","1","24","2","2","2","1","","0","0","0","218","","","","","neg","GS","GSnew","2","category2/GS1.png","targets/24.png","","direct","","0"
"","image-slider-response","235","15861868","0.0-12.0-0.15","13sseude43","one_one","1","indirect_first","0","er04ul90","1","24","2","2","2","1","","0","0","0","236","","","","","pos","GS","GSnew","3","category3/GS2.png","targets/14.png","","direct","","0"
"","image-slider-response","236","15862088","0.0-12.0-0.16","13sseude43","one_one","1","indirect_first","0","er04ul90","1","24","2","2","2","1","","0","0","0","218","","","","","neg","GS","GSnew","1","category1/GS1.png","targets/32.png","","direct","","0"
"","image-slider-response","237","15862314","0.0-12.0-0.17","13sseude43","one_one","1","indirect_first","0","er04ul90","1","24","2","2","2","1","","0","0","0","224","","","","","pos","CS","CS","4","category4/CS1.png","targets/1.png","","direct","","0"
"","image-slider-response","238","15862532","0.0-12.0-0.18","13sseude43","one_one","1","indirect_first","0","er04ul90","1","24","2","2","2","1","","0","0","0","216","","","","","pos","GS","GSnew","3","category3/GS3.png","targets/39.png","","direct","","0"
"","image-slider-response","239","15862738","0.0-12.0-0.19","13sseude43","one_one","1","indirect_first","0","er04ul90","1","24","2","2","2","1","","0","0","0","206","","","","","neg","GS","GSold","2","category2/CS1.png","targets/44.png","","direct","","0"
"","image-slider-response","240","15862996","0.0-12.0-0.20","13sseude43","one_one","1","indirect_first","0","er04ul90","1","24","2","2","2","1","","0","0","0","258","","","","","pos","GS","GSold","3","category3/CS9.png","targets/36.png","","direct","","0"
"","image-slider-response","241","15863212","0.0-12.0-0.21","13sseude43","one_one","1","indirect_first","0","er04ul90","1","24","2","2","2","1","","0","0","0","214","","","","","neg","GS","abstract","1","category1/ma.png","targets/16.png","","direct","","0"
"","image-slider-response","242","15863440","0.0-12.0-0.22","13sseude43","one_one","1","indirect_first","0","er04ul90","1","24","2","2","2","1","","0","0","0","224","","","","","pos","GS","GSnew","3","category3/GS1.png","targets/31.png","","direct","","0"
"","image-slider-response","243","15863684","0.0-12.0-0.23","13sseude43","one_one","1","indirect_first","0","er04ul90","1","24","2","2","2","1","","0","0","0","246","","","","","pos","GS","GSnew","4","category4/GS3.png","targets/47.png","","direct","","0"
"","image-slider-response","244","15863908","0.0-12.0-0.24","13sseude43","one_one","1","indirect_first","0","er04ul90","1","24","2","2","2","1","","0","0","0","220","","","","","neg","GS","GSnew","2","category2/GS2.png","targets/28.png","","direct","","0"
"","image-slider-response","245","15864144","0.0-12.0-0.25","13sseude43","one_one","1","indirect_first","0","er04ul90","1","24","2","2","2","1","","0","0","0","236","","","","","pos","GS","GSold","3","category3/CS10.png","targets/21.png","","direct","","0"
"","image-slider-response","246","15864384","0.0-12.0-0.26","13sseude43","one_one","1","indirect_first","0","er04ul90","1","24","2","2","2","1","","0","0","0","236","","","","","pos","GS","GSold","3","category3/CS3.png","targets/2.png","","direct","","0"
"","image-slider-response","247","15864612","0.0-12.0-0.27","13sseude43","one_one","1","indirect_first","0","er04ul90","1","24","2","2","2","1","","0","0","0","228","","","","","pos","GS","GSnew","4","category4/GS1.png","targets/43.png","","direct","","0"
"","image-slider-response","248","15864856","0.0-12.0-0.28","13sseude43","one_one","1","indirect_first","0","er04ul90","1","24","2","2","2","1","","0","0","0","244","","","","","neg","CS","CS","1","category1/CS2.png","targets/40.png","","direct","","0"
"","image-slider-response","249","15865108","0.0-12.0-0.29","13sseude43","one_one","1","indirect_first","0","er04ul90","1","24","2","2","2","1","","0","0","0","250","","","","","pos","GS","GSold","4","category4/CS2.png","targets/20.png","","direct","","0"
"","image-slider-response","250","15865332","0.0-12.0-0.30","13sseude43","one_one","1","indirect_first","0","er04ul90","1","24","2","2","2","1","","0","0","0","224","","","","","neg","GS","abstract","2","category2/men.png","targets/26.png","","direct","","0"
"","image-slider-response","251","15865582","0.0-12.0-0.31","13sseude43","one_one","1","indirect_first","0","er04ul90","1","24","2","2","2","1","","0","0","0","244","","","","","pos","GS","abstract","3","category3/wang.png","targets/45.png","","direct","","0"
"","survey-html-form","252","15889114","0.0-13.0","13sseude43","one_one","1","indirect_first","0","er04ul90","1","24","2","2","2","1","","0","0","0","23528","","{}","","","","","","","","","","","",""
"","image-slider-response","253","16217886","0.0-14.0-0.0","13sseude43","one_one","1","indirect_first","0","er04ul90","1","24","2","2","2","1","","0","0","0","327756","","","","","pos","All","all","4","category4/lin_all.png","","","all","","0"
"","image-slider-response","254","16218692","0.0-14.0-0.1","13sseude43","one_one","1","indirect_first","0","er04ul90","1","24","2","2","2","1","","0","0","0","802","","","","","pos","All","all","3","category3/wang_all.png","","","all","","0"
"","image-slider-response","255","16219498","0.0-14.0-0.2","13sseude43","one_one","1","indirect_first","0","er04ul90","1","24","2","2","2","1","","0","0","0","806","","","","","neg","All","all","2","category2/men_all.png","","","all","","0"
"","image-slider-response","256","16220300","0.0-14.0-0.3","13sseude43","one_one","1","indirect_first","0","er04ul90","1","24","2","2","2","1","","0","0","0","802","","","","","neg","All","all","1","category1/ma_all.png","","","all","","0"
"","survey-text","257","16229418","0.0-15.0","13sseude43","one_one","1","indirect_first","0","er04ul90","1","24","2","2","2","1","","0","0","0","9116","","{""comment"":""""}","","","","","","","","","","","",""
"","survey-html-form","258","16239752","0.0-16.0","13sseude43","one_one","1","indirect_first","0","er04ul90","1","24","2","2","2","1","","0","0","0","10330","","{""hinschauen"":""0"",""ablenkung"":""0"",""gewissenhaft"":""0""}","","","","","","","","","","","",""
