"success","trial_type","trial_index","time_elapsed","internal_node_id","subject","condition","condition_code","measure","measure_code","codeword","gender","age","education","chinese","fach","handedness","comment","hinschauen","ablenkung","gewissenhaft","rt","url","responses","stimulus","key_press","val","type","type_specific","category","cs_selected","response","target","task","indirect","nr_pres"
"true","fullscreen","0","2322","0.0-0.0","k2j77sq8d0","many_one","0","direct_first","1","ng06us16","0","23","1","1","3","1","Die Laute der Aussprache waren fast schon zu kurz, um sie wirklich aufzunehmen. Sonst alles in Ordnung.","0","1","0","","","","","","","","","","","","","","",""
"","external-html","1","108814","0.0-1.0","k2j77sq8d0","many_one","0","direct_first","1","ng06us16","0","23","1","1","3","1","Die Laute der Aussprache waren fast schon zu kurz, um sie wirklich aufzunehmen. Sonst alles in Ordnung.","0","1","0","106484.03499997221","text/information.html","","","","","","","","","","","","",""
"","external-html","2","188958","0.0-2.0","k2j77sq8d0","many_one","0","direct_first","1","ng06us16","0","23","1","1","3","1","Die Laute der Aussprache waren fast schon zu kurz, um sie wirklich aufzunehmen. Sonst alles in Ordnung.","0","1","0","80057.92999989353","text/consent.html","","","","","","","","","","","","",""
"","survey-html-form","3","291448","0.0-3.0","k2j77sq8d0","many_one","0","direct_first","1","ng06us16","0","23","1","1","3","1","Die Laute der Aussprache waren fast schon zu kurz, um sie wirklich aufzunehmen. Sonst alles in Ordnung.","0","1","0","102486.32999998517","","{""codeword_enter"":""ng06us16""}","","","","","","","","","","","",""
"","survey-html-form","4","313383","0.0-4.0","k2j77sq8d0","many_one","0","direct_first","1","ng06us16","0","23","1","1","3","1","Die Laute der Aussprache waren fast schon zu kurz, um sie wirklich aufzunehmen. Sonst alles in Ordnung.","0","1","0","21933.069999795407","","{""age"":""23"",""education"":""1"",""subject"":""3"",""gender"":""0"",""handedness"":""1"",""chinese"":""1""}","","","","","","","","","","","",""
"","survey-html-form","5","327319","0.0-5.0","k2j77sq8d0","many_one","0","direct_first","1","ng06us16","0","23","1","1","3","1","Die Laute der Aussprache waren fast schon zu kurz, um sie wirklich aufzunehmen. Sonst alles in Ordnung.","0","1","0","13933.574999915436","","{}","","","","","","","","","","","",""
"","html-keyboard-response","6","331343","0.0-6.0-0.0-0.0","k2j77sq8d0","many_one","0","direct_first","1","ng06us16","0","23","1","1","3","1","Die Laute der Aussprache waren fast schon zu kurz, um sie wirklich aufzunehmen. Sonst alles in Ordnung.","0","1","0","null","","","<div class = 'row'><div class = 'column'><img src = 'category1/CS9.png' width = '70%;'></div><div class = 'column'><img src = 'uspos/2360.bmp' width = '100%;'></div></div>","null","pos","CS","CS","1","category1/CS9.png","","","","",""
"","html-keyboard-response","7","333864","0.0-6.0-0.0-0.1","k2j77sq8d0","many_one","0","direct_first","1","ng06us16","0","23","1","1","3","1","Die Laute der Aussprache waren fast schon zu kurz, um sie wirklich aufzunehmen. Sonst alles in Ordnung.","0","1","0","null","","","<div class = 'row'><div class = 'column'><img src = 'category3/CS10.png' width = '70%;'></div><div class = 'column'><img src = 'uspos/2040.bmp' width = '100%;'></div></div>","null","pos","CS","CS","3","category3/CS10.png","","","","",""
"","html-keyboard-response","8","336379","0.0-6.0-0.0-0.2","k2j77sq8d0","many_one","0","direct_first","1","ng06us16","0","23","1","1","3","1","Die Laute der Aussprache waren fast schon zu kurz, um sie wirklich aufzunehmen. Sonst alles in Ordnung.","0","1","0","null","","","<div class = 'row'><div class = 'column'><img src = 'category1/CS2.png' width = '70%;'></div><div class = 'column'><img src = 'uspos/8350.bmp' width = '100%;'></div></div>","null","pos","CS","CS","1","category1/CS2.png","","","","",""
"","html-keyboard-response","9","338897","0.0-6.0-0.0-0.3","k2j77sq8d0","many_one","0","direct_first","1","ng06us16","0","23","1","1","3","1","Die Laute der Aussprache waren fast schon zu kurz, um sie wirklich aufzunehmen. Sonst alles in Ordnung.","0","1","0","null","","","<div class = 'row'><div class = 'column'><img src = 'category2/CS5.png' width = '70%;'></div><div class = 'column'><img src = 'usneg/9520.bmp' width = '100%;'></div></div>","null","neg","CS","CS","2","category2/CS5.png","","","","",""
"","html-keyboard-response","10","341412","0.0-6.0-0.0-0.4","k2j77sq8d0","many_one","0","direct_first","1","ng06us16","0","23","1","1","3","1","Die Laute der Aussprache waren fast schon zu kurz, um sie wirklich aufzunehmen. Sonst alles in Ordnung.","0","1","0","null","","","<div class = 'row'><div class = 'column'><img src = 'category4/CS7.png' width = '70%;'></div><div class = 'column'><img src = 'usneg/6212.bmp' width = '100%;'></div></div>","null","neg","CS","CS","4","category4/CS7.png","","","","",""
"","html-keyboard-response","11","343928","0.0-6.0-0.0-0.5","k2j77sq8d0","many_one","0","direct_first","1","ng06us16","0","23","1","1","3","1","Die Laute der Aussprache waren fast schon zu kurz, um sie wirklich aufzunehmen. Sonst alles in Ordnung.","0","1","0","null","","","<div class = 'row'><div class = 'column'><img src = 'uspos/5470.bmp' width = '100%;'></div><div class = 'column'><img src = 'category3/CS6.png' width = '70%;'></div></div>","null","pos","CS","CS","3","category3/CS6.png","","","","",""
"","html-keyboard-response","12","346448","0.0-6.0-0.0-0.6","k2j77sq8d0","many_one","0","direct_first","1","ng06us16","0","23","1","1","3","1","Die Laute der Aussprache waren fast schon zu kurz, um sie wirklich aufzunehmen. Sonst alles in Ordnung.","0","1","0","null","","","<div class = 'row'><div class = 'column'><img src = 'category3/CS1.png' width = '70%;'></div><div class = 'column'><img src = 'uspos/7580.bmp' width = '100%;'></div></div>","null","pos","CS","CS","3","category3/CS1.png","","","","",""
"","html-keyboard-response","13","348952","0.0-6.0-0.0-0.7","k2j77sq8d0","many_one","0","direct_first","1","ng06us16","0","23","1","1","3","1","Die Laute der Aussprache waren fast schon zu kurz, um sie wirklich aufzunehmen. Sonst alles in Ordnung.","0","1","0","null","","","<div class = 'row'><div class = 'column'><img src = 'usneg/6838.bmp' width = '100%;'></div><div class = 'column'><img src = 'category2/CS9.png' width = '70%;'></div></div>","null","neg","CS","CS","2","category2/CS9.png","","","","",""
"","html-keyboard-response","14","351476","0.0-6.0-0.0-0.8","k2j77sq8d0","many_one","0","direct_first","1","ng06us16","0","23","1","1","3","1","Die Laute der Aussprache waren fast schon zu kurz, um sie wirklich aufzunehmen. Sonst alles in Ordnung.","0","1","0","null","","","<div class = 'row'><div class = 'column'><img src = 'category1/CS10.png' width = '70%;'></div><div class = 'column'><img src = 'uspos/2530.bmp' width = '100%;'></div></div>","null","pos","CS","CS","1","category1/CS10.png","","","","",""
"","html-keyboard-response","15","353990","0.0-6.0-0.0-0.9","k2j77sq8d0","many_one","0","direct_first","1","ng06us16","0","23","1","1","3","1","Die Laute der Aussprache waren fast schon zu kurz, um sie wirklich aufzunehmen. Sonst alles in Ordnung.","0","1","0","null","","","<div class = 'row'><div class = 'column'><img src = 'uspos/2550.bmp' width = '100%;'></div><div class = 'column'><img src = 'category3/CS4.png' width = '70%;'></div></div>","null","pos","CS","CS","3","category3/CS4.png","","","","",""
"","html-keyboard-response","16","356507","0.0-6.0-0.0-0.10","k2j77sq8d0","many_one","0","direct_first","1","ng06us16","0","23","1","1","3","1","Die Laute der Aussprache waren fast schon zu kurz, um sie wirklich aufzunehmen. Sonst alles in Ordnung.","0","1","0","null","","","<div class = 'row'><div class = 'column'><img src = 'category1/CS1.png' width = '70%;'></div><div class = 'column'><img src = 'uspos/2058.bmp' width = '100%;'></div></div>","null","pos","CS","CS","1","category1/CS1.png","","","","",""
"","html-keyboard-response","17","359029","0.0-6.0-0.0-0.11","k2j77sq8d0","many_one","0","direct_first","1","ng06us16","0","23","1","1","3","1","Die Laute der Aussprache waren fast schon zu kurz, um sie wirklich aufzunehmen. Sonst alles in Ordnung.","0","1","0","null","","","<div class = 'row'><div class = 'column'><img src = 'uspos/5629.bmp' width = '100%;'></div><div class = 'column'><img src = 'category3/CS5.png' width = '70%;'></div></div>","null","pos","CS","CS","3","category3/CS5.png","","","","",""
"","html-keyboard-response","18","361547","0.0-6.0-0.0-0.12","k2j77sq8d0","many_one","0","direct_first","1","ng06us16","0","23","1","1","3","1","Die Laute der Aussprache waren fast schon zu kurz, um sie wirklich aufzunehmen. Sonst alles in Ordnung.","0","1","0","null","","","<div class = 'row'><div class = 'column'><img src = 'category1/CS6.png' width = '70%;'></div><div class = 'column'><img src = 'uspos/7325.bmp' width = '100%;'></div></div>","null","pos","CS","CS","1","category1/CS6.png","","","","",""
"","html-keyboard-response","19","364060","0.0-6.0-0.0-0.13","k2j77sq8d0","many_one","0","direct_first","1","ng06us16","0","23","1","1","3","1","Die Laute der Aussprache waren fast schon zu kurz, um sie wirklich aufzunehmen. Sonst alles in Ordnung.","0","1","0","null","","","<div class = 'row'><div class = 'column'><img src = 'usneg/9421.bmp' width = '100%;'></div><div class = 'column'><img src = 'category4/CS8.png' width = '70%;'></div></div>","null","neg","CS","CS","4","category4/CS8.png","","","","",""
"","html-keyboard-response","20","366586","0.0-6.0-0.0-0.14","k2j77sq8d0","many_one","0","direct_first","1","ng06us16","0","23","1","1","3","1","Die Laute der Aussprache waren fast schon zu kurz, um sie wirklich aufzunehmen. Sonst alles in Ordnung.","0","1","0","null","","","<div class = 'row'><div class = 'column'><img src = 'usneg/7380.bmp' width = '100%;'></div><div class = 'column'><img src = 'category2/CS2.png' width = '70%;'></div></div>","null","neg","CS","CS","2","category2/CS2.png","","","","",""
"","html-keyboard-response","21","369117","0.0-6.0-0.0-0.15","k2j77sq8d0","many_one","0","direct_first","1","ng06us16","0","23","1","1","3","1","Die Laute der Aussprache waren fast schon zu kurz, um sie wirklich aufzunehmen. Sonst alles in Ordnung.","0","1","0","null","","","<div class = 'row'><div class = 'column'><img src = 'category4/CS5.png' width = '70%;'></div><div class = 'column'><img src = 'usneg/9830.bmp' width = '100%;'></div></div>","null","neg","CS","CS","4","category4/CS5.png","","","","",""
"","html-keyboard-response","22","371640","0.0-6.0-0.0-0.16","k2j77sq8d0","many_one","0","direct_first","1","ng06us16","0","23","1","1","3","1","Die Laute der Aussprache waren fast schon zu kurz, um sie wirklich aufzunehmen. Sonst alles in Ordnung.","0","1","0","null","","","<div class = 'row'><div class = 'column'><img src = 'category2/CS7.png' width = '70%;'></div><div class = 'column'><img src = 'usneg/3181.bmp' width = '100%;'></div></div>","null","neg","CS","CS","2","category2/CS7.png","","","","",""
"","html-keyboard-response","23","374147","0.0-6.0-0.0-0.17","k2j77sq8d0","many_one","0","direct_first","1","ng06us16","0","23","1","1","3","1","Die Laute der Aussprache waren fast schon zu kurz, um sie wirklich aufzunehmen. Sonst alles in Ordnung.","0","1","0","null","","","<div class = 'row'><div class = 'column'><img src = 'usneg/9280.bmp' width = '100%;'></div><div class = 'column'><img src = 'category2/CS6.png' width = '70%;'></div></div>","null","neg","CS","CS","2","category2/CS6.png","","","","",""
"","html-keyboard-response","24","376669","0.0-6.0-0.0-0.18","k2j77sq8d0","many_one","0","direct_first","1","ng06us16","0","23","1","1","3","1","Die Laute der Aussprache waren fast schon zu kurz, um sie wirklich aufzunehmen. Sonst alles in Ordnung.","0","1","0","null","","","<div class = 'row'><div class = 'column'><img src = 'usneg/9560.bmp' width = '100%;'></div><div class = 'column'><img src = 'category4/CS1.png' width = '70%;'></div></div>","null","neg","CS","CS","4","category4/CS1.png","","","","",""
"","html-keyboard-response","25","379183","0.0-6.0-0.0-0.19","k2j77sq8d0","many_one","0","direct_first","1","ng06us16","0","23","1","1","3","1","Die Laute der Aussprache waren fast schon zu kurz, um sie wirklich aufzunehmen. Sonst alles in Ordnung.","0","1","0","null","","","<div class = 'row'><div class = 'column'><img src = 'usneg/9330.bmp' width = '100%;'></div><div class = 'column'><img src = 'category4/CS4.png' width = '70%;'></div></div>","null","neg","CS","CS","4","category4/CS4.png","","","","",""
"","survey-html-form","26","389878","0.0-6.0-1.0","k2j77sq8d0","many_one","0","direct_first","1","ng06us16","0","23","1","1","3","1","Die Laute der Aussprache waren fast schon zu kurz, um sie wirklich aufzunehmen. Sonst alles in Ordnung.","0","1","0","10182.244999799877","","{}","","","","","","","","","","","",""
"","html-keyboard-response","27","393900","0.0-6.0-2.0-0.0","k2j77sq8d0","many_one","0","direct_first","1","ng06us16","0","23","1","1","3","1","Die Laute der Aussprache waren fast schon zu kurz, um sie wirklich aufzunehmen. Sonst alles in Ordnung.","0","1","0","null","","","<div class = 'row'><div class = 'column'><img src = 'uspos/2040.bmp' width = '100%;'></div><div class = 'column'><img src = 'category3/CS10.png' width = '70%;'></div></div>","null","pos","CS","CS","3","category3/CS10.png","","","","",""
"","html-keyboard-response","28","396416","0.0-6.0-2.0-0.1","k2j77sq8d0","many_one","0","direct_first","1","ng06us16","0","23","1","1","3","1","Die Laute der Aussprache waren fast schon zu kurz, um sie wirklich aufzunehmen. Sonst alles in Ordnung.","0","1","0","null","","","<div class = 'row'><div class = 'column'><img src = 'usneg/9421.bmp' width = '100%;'></div><div class = 'column'><img src = 'category4/CS8.png' width = '70%;'></div></div>","null","neg","CS","CS","4","category4/CS8.png","","","","",""
"","html-keyboard-response","29","398936","0.0-6.0-2.0-0.2","k2j77sq8d0","many_one","0","direct_first","1","ng06us16","0","23","1","1","3","1","Die Laute der Aussprache waren fast schon zu kurz, um sie wirklich aufzunehmen. Sonst alles in Ordnung.","0","1","0","null","","","<div class = 'row'><div class = 'column'><img src = 'category2/CS9.png' width = '70%;'></div><div class = 'column'><img src = 'usneg/6838.bmp' width = '100%;'></div></div>","null","neg","CS","CS","2","category2/CS9.png","","","","",""
"","html-keyboard-response","30","401457","0.0-6.0-2.0-0.3","k2j77sq8d0","many_one","0","direct_first","1","ng06us16","0","23","1","1","3","1","Die Laute der Aussprache waren fast schon zu kurz, um sie wirklich aufzunehmen. Sonst alles in Ordnung.","0","1","0","null","","","<div class = 'row'><div class = 'column'><img src = 'usneg/3181.bmp' width = '100%;'></div><div class = 'column'><img src = 'category2/CS7.png' width = '70%;'></div></div>","null","neg","CS","CS","2","category2/CS7.png","","","","",""
"","html-keyboard-response","31","403984","0.0-6.0-2.0-0.4","k2j77sq8d0","many_one","0","direct_first","1","ng06us16","0","23","1","1","3","1","Die Laute der Aussprache waren fast schon zu kurz, um sie wirklich aufzunehmen. Sonst alles in Ordnung.","0","1","0","null","","","<div class = 'row'><div class = 'column'><img src = 'category4/CS1.png' width = '70%;'></div><div class = 'column'><img src = 'usneg/9560.bmp' width = '100%;'></div></div>","null","neg","CS","CS","4","category4/CS1.png","","","","",""
"","html-keyboard-response","32","406514","0.0-6.0-2.0-0.5","k2j77sq8d0","many_one","0","direct_first","1","ng06us16","0","23","1","1","3","1","Die Laute der Aussprache waren fast schon zu kurz, um sie wirklich aufzunehmen. Sonst alles in Ordnung.","0","1","0","null","","","<div class = 'row'><div class = 'column'><img src = 'uspos/2530.bmp' width = '100%;'></div><div class = 'column'><img src = 'category1/CS10.png' width = '70%;'></div></div>","null","pos","CS","CS","1","category1/CS10.png","","","","",""
"","html-keyboard-response","33","409031","0.0-6.0-2.0-0.6","k2j77sq8d0","many_one","0","direct_first","1","ng06us16","0","23","1","1","3","1","Die Laute der Aussprache waren fast schon zu kurz, um sie wirklich aufzunehmen. Sonst alles in Ordnung.","0","1","0","null","","","<div class = 'row'><div class = 'column'><img src = 'uspos/2550.bmp' width = '100%;'></div><div class = 'column'><img src = 'category3/CS4.png' width = '70%;'></div></div>","null","pos","CS","CS","3","category3/CS4.png","","","","",""
"","html-keyboard-response","34","411546","0.0-6.0-2.0-0.7","k2j77sq8d0","many_one","0","direct_first","1","ng06us16","0","23","1","1","3","1","Die Laute der Aussprache waren fast schon zu kurz, um sie wirklich aufzunehmen. Sonst alles in Ordnung.","0","1","0","null","","","<div class = 'row'><div class = 'column'><img src = 'category4/CS5.png' width = '70%;'></div><div class = 'column'><img src = 'usneg/9830.bmp' width = '100%;'></div></div>","null","neg","CS","CS","4","category4/CS5.png","","","","",""
"","html-keyboard-response","35","414068","0.0-6.0-2.0-0.8","k2j77sq8d0","many_one","0","direct_first","1","ng06us16","0","23","1","1","3","1","Die Laute der Aussprache waren fast schon zu kurz, um sie wirklich aufzunehmen. Sonst alles in Ordnung.","0","1","0","null","","","<div class = 'row'><div class = 'column'><img src = 'uspos/5629.bmp' width = '100%;'></div><div class = 'column'><img src = 'category3/CS5.png' width = '70%;'></div></div>","null","pos","CS","CS","3","category3/CS5.png","","","","",""
"","html-keyboard-response","36","416583","0.0-6.0-2.0-0.9","k2j77sq8d0","many_one","0","direct_first","1","ng06us16","0","23","1","1","3","1","Die Laute der Aussprache waren fast schon zu kurz, um sie wirklich aufzunehmen. Sonst alles in Ordnung.","0","1","0","null","","","<div class = 'row'><div class = 'column'><img src = 'category3/CS1.png' width = '70%;'></div><div class = 'column'><img src = 'uspos/7580.bmp' width = '100%;'></div></div>","null","pos","CS","CS","3","category3/CS1.png","","","","",""
"","html-keyboard-response","37","419104","0.0-6.0-2.0-0.10","k2j77sq8d0","many_one","0","direct_first","1","ng06us16","0","23","1","1","3","1","Die Laute der Aussprache waren fast schon zu kurz, um sie wirklich aufzunehmen. Sonst alles in Ordnung.","0","1","0","null","","","<div class = 'row'><div class = 'column'><img src = 'usneg/9280.bmp' width = '100%;'></div><div class = 'column'><img src = 'category2/CS6.png' width = '70%;'></div></div>","null","neg","CS","CS","2","category2/CS6.png","","","","",""
"","html-keyboard-response","38","421624","0.0-6.0-2.0-0.11","k2j77sq8d0","many_one","0","direct_first","1","ng06us16","0","23","1","1","3","1","Die Laute der Aussprache waren fast schon zu kurz, um sie wirklich aufzunehmen. Sonst alles in Ordnung.","0","1","0","null","","","<div class = 'row'><div class = 'column'><img src = 'category4/CS4.png' width = '70%;'></div><div class = 'column'><img src = 'usneg/9330.bmp' width = '100%;'></div></div>","null","neg","CS","CS","4","category4/CS4.png","","","","",""
"","html-keyboard-response","39","424145","0.0-6.0-2.0-0.12","k2j77sq8d0","many_one","0","direct_first","1","ng06us16","0","23","1","1","3","1","Die Laute der Aussprache waren fast schon zu kurz, um sie wirklich aufzunehmen. Sonst alles in Ordnung.","0","1","0","null","","","<div class = 'row'><div class = 'column'><img src = 'usneg/9520.bmp' width = '100%;'></div><div class = 'column'><img src = 'category2/CS5.png' width = '70%;'></div></div>","null","neg","CS","CS","2","category2/CS5.png","","","","",""
"","html-keyboard-response","40","426665","0.0-6.0-2.0-0.13","k2j77sq8d0","many_one","0","direct_first","1","ng06us16","0","23","1","1","3","1","Die Laute der Aussprache waren fast schon zu kurz, um sie wirklich aufzunehmen. Sonst alles in Ordnung.","0","1","0","null","","","<div class = 'row'><div class = 'column'><img src = 'category1/CS1.png' width = '70%;'></div><div class = 'column'><img src = 'uspos/2058.bmp' width = '100%;'></div></div>","null","pos","CS","CS","1","category1/CS1.png","","","","",""
"","html-keyboard-response","41","429179","0.0-6.0-2.0-0.14","k2j77sq8d0","many_one","0","direct_first","1","ng06us16","0","23","1","1","3","1","Die Laute der Aussprache waren fast schon zu kurz, um sie wirklich aufzunehmen. Sonst alles in Ordnung.","0","1","0","null","","","<div class = 'row'><div class = 'column'><img src = 'category2/CS2.png' width = '70%;'></div><div class = 'column'><img src = 'usneg/7380.bmp' width = '100%;'></div></div>","null","neg","CS","CS","2","category2/CS2.png","","","","",""
"","html-keyboard-response","42","431693","0.0-6.0-2.0-0.15","k2j77sq8d0","many_one","0","direct_first","1","ng06us16","0","23","1","1","3","1","Die Laute der Aussprache waren fast schon zu kurz, um sie wirklich aufzunehmen. Sonst alles in Ordnung.","0","1","0","null","","","<div class = 'row'><div class = 'column'><img src = 'uspos/7325.bmp' width = '100%;'></div><div class = 'column'><img src = 'category1/CS6.png' width = '70%;'></div></div>","null","pos","CS","CS","1","category1/CS6.png","","","","",""
"","html-keyboard-response","43","434228","0.0-6.0-2.0-0.16","k2j77sq8d0","many_one","0","direct_first","1","ng06us16","0","23","1","1","3","1","Die Laute der Aussprache waren fast schon zu kurz, um sie wirklich aufzunehmen. Sonst alles in Ordnung.","0","1","0","null","","","<div class = 'row'><div class = 'column'><img src = 'uspos/5470.bmp' width = '100%;'></div><div class = 'column'><img src = 'category3/CS6.png' width = '70%;'></div></div>","null","pos","CS","CS","3","category3/CS6.png","","","","",""
"","html-keyboard-response","44","436750","0.0-6.0-2.0-0.17","k2j77sq8d0","many_one","0","direct_first","1","ng06us16","0","23","1","1","3","1","Die Laute der Aussprache waren fast schon zu kurz, um sie wirklich aufzunehmen. Sonst alles in Ordnung.","0","1","0","null","","","<div class = 'row'><div class = 'column'><img src = 'category1/CS9.png' width = '70%;'></div><div class = 'column'><img src = 'uspos/2360.bmp' width = '100%;'></div></div>","null","pos","CS","CS","1","category1/CS9.png","","","","",""
"","html-keyboard-response","45","439275","0.0-6.0-2.0-0.18","k2j77sq8d0","many_one","0","direct_first","1","ng06us16","0","23","1","1","3","1","Die Laute der Aussprache waren fast schon zu kurz, um sie wirklich aufzunehmen. Sonst alles in Ordnung.","0","1","0","null","","","<div class = 'row'><div class = 'column'><img src = 'category1/CS2.png' width = '70%;'></div><div class = 'column'><img src = 'uspos/8350.bmp' width = '100%;'></div></div>","null","pos","CS","CS","1","category1/CS2.png","","","","",""
"","html-keyboard-response","46","441793","0.0-6.0-2.0-0.19","k2j77sq8d0","many_one","0","direct_first","1","ng06us16","0","23","1","1","3","1","Die Laute der Aussprache waren fast schon zu kurz, um sie wirklich aufzunehmen. Sonst alles in Ordnung.","0","1","0","null","","","<div class = 'row'><div class = 'column'><img src = 'usneg/6212.bmp' width = '100%;'></div><div class = 'column'><img src = 'category4/CS7.png' width = '70%;'></div></div>","null","neg","CS","CS","4","category4/CS7.png","","","","",""
"","survey-html-form","47","452990","0.0-6.0-3.0","k2j77sq8d0","many_one","0","direct_first","1","ng06us16","0","23","1","1","3","1","Die Laute der Aussprache waren fast schon zu kurz, um sie wirklich aufzunehmen. Sonst alles in Ordnung.","0","1","0","10682.914999779314","","{}","","","","","","","","","","","",""
"","html-keyboard-response","48","457022","0.0-6.0-4.0-0.0","k2j77sq8d0","many_one","0","direct_first","1","ng06us16","0","23","1","1","3","1","Die Laute der Aussprache waren fast schon zu kurz, um sie wirklich aufzunehmen. Sonst alles in Ordnung.","0","1","0","null","","","<div class = 'row'><div class = 'column'><img src = 'category2/CS7.png' width = '70%;'></div><div class = 'column'><img src = 'usneg/3181.bmp' width = '100%;'></div></div>","null","neg","CS","CS","2","category2/CS7.png","","","","",""
"","html-keyboard-response","49","459535","0.0-6.0-4.0-0.1","k2j77sq8d0","many_one","0","direct_first","1","ng06us16","0","23","1","1","3","1","Die Laute der Aussprache waren fast schon zu kurz, um sie wirklich aufzunehmen. Sonst alles in Ordnung.","0","1","0","null","","","<div class = 'row'><div class = 'column'><img src = 'category3/CS5.png' width = '70%;'></div><div class = 'column'><img src = 'uspos/5629.bmp' width = '100%;'></div></div>","null","pos","CS","CS","3","category3/CS5.png","","","","",""
"","html-keyboard-response","50","462040","0.0-6.0-4.0-0.2","k2j77sq8d0","many_one","0","direct_first","1","ng06us16","0","23","1","1","3","1","Die Laute der Aussprache waren fast schon zu kurz, um sie wirklich aufzunehmen. Sonst alles in Ordnung.","0","1","0","null","","","<div class = 'row'><div class = 'column'><img src = 'category4/CS1.png' width = '70%;'></div><div class = 'column'><img src = 'usneg/9560.bmp' width = '100%;'></div></div>","null","neg","CS","CS","4","category4/CS1.png","","","","",""
"","html-keyboard-response","51","464556","0.0-6.0-4.0-0.3","k2j77sq8d0","many_one","0","direct_first","1","ng06us16","0","23","1","1","3","1","Die Laute der Aussprache waren fast schon zu kurz, um sie wirklich aufzunehmen. Sonst alles in Ordnung.","0","1","0","null","","","<div class = 'row'><div class = 'column'><img src = 'usneg/9280.bmp' width = '100%;'></div><div class = 'column'><img src = 'category2/CS6.png' width = '70%;'></div></div>","null","neg","CS","CS","2","category2/CS6.png","","","","",""
"","html-keyboard-response","52","467083","0.0-6.0-4.0-0.4","k2j77sq8d0","many_one","0","direct_first","1","ng06us16","0","23","1","1","3","1","Die Laute der Aussprache waren fast schon zu kurz, um sie wirklich aufzunehmen. Sonst alles in Ordnung.","0","1","0","null","","","<div class = 'row'><div class = 'column'><img src = 'category4/CS5.png' width = '70%;'></div><div class = 'column'><img src = 'usneg/9830.bmp' width = '100%;'></div></div>","null","neg","CS","CS","4","category4/CS5.png","","","","",""
"","html-keyboard-response","53","469615","0.0-6.0-4.0-0.5","k2j77sq8d0","many_one","0","direct_first","1","ng06us16","0","23","1","1","3","1","Die Laute der Aussprache waren fast schon zu kurz, um sie wirklich aufzunehmen. Sonst alles in Ordnung.","0","1","0","null","","","<div class = 'row'><div class = 'column'><img src = 'category1/CS10.png' width = '70%;'></div><div class = 'column'><img src = 'uspos/2530.bmp' width = '100%;'></div></div>","null","pos","CS","CS","1","category1/CS10.png","","","","",""
"","html-keyboard-response","54","472134","0.0-6.0-4.0-0.6","k2j77sq8d0","many_one","0","direct_first","1","ng06us16","0","23","1","1","3","1","Die Laute der Aussprache waren fast schon zu kurz, um sie wirklich aufzunehmen. Sonst alles in Ordnung.","0","1","0","null","","","<div class = 'row'><div class = 'column'><img src = 'category1/CS2.png' width = '70%;'></div><div class = 'column'><img src = 'uspos/8350.bmp' width = '100%;'></div></div>","null","pos","CS","CS","1","category1/CS2.png","","","","",""
"","html-keyboard-response","55","474641","0.0-6.0-4.0-0.7","k2j77sq8d0","many_one","0","direct_first","1","ng06us16","0","23","1","1","3","1","Die Laute der Aussprache waren fast schon zu kurz, um sie wirklich aufzunehmen. Sonst alles in Ordnung.","0","1","0","null","","","<div class = 'row'><div class = 'column'><img src = 'category2/CS9.png' width = '70%;'></div><div class = 'column'><img src = 'usneg/6838.bmp' width = '100%;'></div></div>","null","neg","CS","CS","2","category2/CS9.png","","","","",""
"","html-keyboard-response","56","477154","0.0-6.0-4.0-0.8","k2j77sq8d0","many_one","0","direct_first","1","ng06us16","0","23","1","1","3","1","Die Laute der Aussprache waren fast schon zu kurz, um sie wirklich aufzunehmen. Sonst alles in Ordnung.","0","1","0","null","","","<div class = 'row'><div class = 'column'><img src = 'category3/CS1.png' width = '70%;'></div><div class = 'column'><img src = 'uspos/7580.bmp' width = '100%;'></div></div>","null","pos","CS","CS","3","category3/CS1.png","","","","",""
"","html-keyboard-response","57","479659","0.0-6.0-4.0-0.9","k2j77sq8d0","many_one","0","direct_first","1","ng06us16","0","23","1","1","3","1","Die Laute der Aussprache waren fast schon zu kurz, um sie wirklich aufzunehmen. Sonst alles in Ordnung.","0","1","0","null","","","<div class = 'row'><div class = 'column'><img src = 'category2/CS5.png' width = '70%;'></div><div class = 'column'><img src = 'usneg/9520.bmp' width = '100%;'></div></div>","null","neg","CS","CS","2","category2/CS5.png","","","","",""
"","html-keyboard-response","58","482188","0.0-6.0-4.0-0.10","k2j77sq8d0","many_one","0","direct_first","1","ng06us16","0","23","1","1","3","1","Die Laute der Aussprache waren fast schon zu kurz, um sie wirklich aufzunehmen. Sonst alles in Ordnung.","0","1","0","null","","","<div class = 'row'><div class = 'column'><img src = 'uspos/2040.bmp' width = '100%;'></div><div class = 'column'><img src = 'category3/CS10.png' width = '70%;'></div></div>","null","pos","CS","CS","3","category3/CS10.png","","","","",""
"","html-keyboard-response","59","484696","0.0-6.0-4.0-0.11","k2j77sq8d0","many_one","0","direct_first","1","ng06us16","0","23","1","1","3","1","Die Laute der Aussprache waren fast schon zu kurz, um sie wirklich aufzunehmen. Sonst alles in Ordnung.","0","1","0","null","","","<div class = 'row'><div class = 'column'><img src = 'category4/CS4.png' width = '70%;'></div><div class = 'column'><img src = 'usneg/9330.bmp' width = '100%;'></div></div>","null","neg","CS","CS","4","category4/CS4.png","","","","",""
"","html-keyboard-response","60","487224","0.0-6.0-4.0-0.12","k2j77sq8d0","many_one","0","direct_first","1","ng06us16","0","23","1","1","3","1","Die Laute der Aussprache waren fast schon zu kurz, um sie wirklich aufzunehmen. Sonst alles in Ordnung.","0","1","0","null","","","<div class = 'row'><div class = 'column'><img src = 'usneg/9421.bmp' width = '100%;'></div><div class = 'column'><img src = 'category4/CS8.png' width = '70%;'></div></div>","null","neg","CS","CS","4","category4/CS8.png","","","","",""
"","html-keyboard-response","61","489752","0.0-6.0-4.0-0.13","k2j77sq8d0","many_one","0","direct_first","1","ng06us16","0","23","1","1","3","1","Die Laute der Aussprache waren fast schon zu kurz, um sie wirklich aufzunehmen. Sonst alles in Ordnung.","0","1","0","null","","","<div class = 'row'><div class = 'column'><img src = 'uspos/5470.bmp' width = '100%;'></div><div class = 'column'><img src = 'category3/CS6.png' width = '70%;'></div></div>","null","pos","CS","CS","3","category3/CS6.png","","","","",""
"","html-keyboard-response","62","492284","0.0-6.0-4.0-0.14","k2j77sq8d0","many_one","0","direct_first","1","ng06us16","0","23","1","1","3","1","Die Laute der Aussprache waren fast schon zu kurz, um sie wirklich aufzunehmen. Sonst alles in Ordnung.","0","1","0","null","","","<div class = 'row'><div class = 'column'><img src = 'category2/CS2.png' width = '70%;'></div><div class = 'column'><img src = 'usneg/7380.bmp' width = '100%;'></div></div>","null","neg","CS","CS","2","category2/CS2.png","","","","",""
"","html-keyboard-response","63","494802","0.0-6.0-4.0-0.15","k2j77sq8d0","many_one","0","direct_first","1","ng06us16","0","23","1","1","3","1","Die Laute der Aussprache waren fast schon zu kurz, um sie wirklich aufzunehmen. Sonst alles in Ordnung.","0","1","0","null","","","<div class = 'row'><div class = 'column'><img src = 'category3/CS4.png' width = '70%;'></div><div class = 'column'><img src = 'uspos/2550.bmp' width = '100%;'></div></div>","null","pos","CS","CS","3","category3/CS4.png","","","","",""
"","html-keyboard-response","64","497324","0.0-6.0-4.0-0.16","k2j77sq8d0","many_one","0","direct_first","1","ng06us16","0","23","1","1","3","1","Die Laute der Aussprache waren fast schon zu kurz, um sie wirklich aufzunehmen. Sonst alles in Ordnung.","0","1","0","null","","","<div class = 'row'><div class = 'column'><img src = 'category4/CS7.png' width = '70%;'></div><div class = 'column'><img src = 'usneg/6212.bmp' width = '100%;'></div></div>","null","neg","CS","CS","4","category4/CS7.png","","","","",""
"","html-keyboard-response","65","499841","0.0-6.0-4.0-0.17","k2j77sq8d0","many_one","0","direct_first","1","ng06us16","0","23","1","1","3","1","Die Laute der Aussprache waren fast schon zu kurz, um sie wirklich aufzunehmen. Sonst alles in Ordnung.","0","1","0","null","","","<div class = 'row'><div class = 'column'><img src = 'uspos/7325.bmp' width = '100%;'></div><div class = 'column'><img src = 'category1/CS6.png' width = '70%;'></div></div>","null","pos","CS","CS","1","category1/CS6.png","","","","",""
"","html-keyboard-response","66","502360","0.0-6.0-4.0-0.18","k2j77sq8d0","many_one","0","direct_first","1","ng06us16","0","23","1","1","3","1","Die Laute der Aussprache waren fast schon zu kurz, um sie wirklich aufzunehmen. Sonst alles in Ordnung.","0","1","0","null","","","<div class = 'row'><div class = 'column'><img src = 'uspos/2360.bmp' width = '100%;'></div><div class = 'column'><img src = 'category1/CS9.png' width = '70%;'></div></div>","null","pos","CS","CS","1","category1/CS9.png","","","","",""
"","html-keyboard-response","67","504881","0.0-6.0-4.0-0.19","k2j77sq8d0","many_one","0","direct_first","1","ng06us16","0","23","1","1","3","1","Die Laute der Aussprache waren fast schon zu kurz, um sie wirklich aufzunehmen. Sonst alles in Ordnung.","0","1","0","null","","","<div class = 'row'><div class = 'column'><img src = 'category1/CS1.png' width = '70%;'></div><div class = 'column'><img src = 'uspos/2058.bmp' width = '100%;'></div></div>","null","pos","CS","CS","1","category1/CS1.png","","","","",""
"","survey-html-form","68","507686","0.0-6.0-5.0","k2j77sq8d0","many_one","0","direct_first","1","ng06us16","0","23","1","1","3","1","Die Laute der Aussprache waren fast schon zu kurz, um sie wirklich aufzunehmen. Sonst alles in Ordnung.","0","1","0","2293.1000001262873","","{}","","","","","","","","","","","",""
"","html-keyboard-response","69","511696","0.0-6.0-6.0-0.0","k2j77sq8d0","many_one","0","direct_first","1","ng06us16","0","23","1","1","3","1","Die Laute der Aussprache waren fast schon zu kurz, um sie wirklich aufzunehmen. Sonst alles in Ordnung.","0","1","0","null","","","<div class = 'row'><div class = 'column'><img src = 'category2/CS2.png' width = '70%;'></div><div class = 'column'><img src = 'usneg/7380.bmp' width = '100%;'></div></div>","null","neg","CS","CS","2","category2/CS2.png","","","","",""
"","html-keyboard-response","70","514219","0.0-6.0-6.0-0.1","k2j77sq8d0","many_one","0","direct_first","1","ng06us16","0","23","1","1","3","1","Die Laute der Aussprache waren fast schon zu kurz, um sie wirklich aufzunehmen. Sonst alles in Ordnung.","0","1","0","null","","","<div class = 'row'><div class = 'column'><img src = 'category1/CS6.png' width = '70%;'></div><div class = 'column'><img src = 'uspos/7325.bmp' width = '100%;'></div></div>","null","pos","CS","CS","1","category1/CS6.png","","","","",""
"","html-keyboard-response","71","516727","0.0-6.0-6.0-0.2","k2j77sq8d0","many_one","0","direct_first","1","ng06us16","0","23","1","1","3","1","Die Laute der Aussprache waren fast schon zu kurz, um sie wirklich aufzunehmen. Sonst alles in Ordnung.","0","1","0","null","","","<div class = 'row'><div class = 'column'><img src = 'category4/CS1.png' width = '70%;'></div><div class = 'column'><img src = 'usneg/9560.bmp' width = '100%;'></div></div>","null","neg","CS","CS","4","category4/CS1.png","","","","",""
"","html-keyboard-response","72","519248","0.0-6.0-6.0-0.3","k2j77sq8d0","many_one","0","direct_first","1","ng06us16","0","23","1","1","3","1","Die Laute der Aussprache waren fast schon zu kurz, um sie wirklich aufzunehmen. Sonst alles in Ordnung.","0","1","0","null","","","<div class = 'row'><div class = 'column'><img src = 'category1/CS9.png' width = '70%;'></div><div class = 'column'><img src = 'uspos/2360.bmp' width = '100%;'></div></div>","null","pos","CS","CS","1","category1/CS9.png","","","","",""
"","html-keyboard-response","73","521769","0.0-6.0-6.0-0.4","k2j77sq8d0","many_one","0","direct_first","1","ng06us16","0","23","1","1","3","1","Die Laute der Aussprache waren fast schon zu kurz, um sie wirklich aufzunehmen. Sonst alles in Ordnung.","0","1","0","null","","","<div class = 'row'><div class = 'column'><img src = 'category1/CS10.png' width = '70%;'></div><div class = 'column'><img src = 'uspos/2530.bmp' width = '100%;'></div></div>","null","pos","CS","CS","1","category1/CS10.png","","","","",""
"","html-keyboard-response","74","524296","0.0-6.0-6.0-0.5","k2j77sq8d0","many_one","0","direct_first","1","ng06us16","0","23","1","1","3","1","Die Laute der Aussprache waren fast schon zu kurz, um sie wirklich aufzunehmen. Sonst alles in Ordnung.","0","1","0","null","","","<div class = 'row'><div class = 'column'><img src = 'usneg/3181.bmp' width = '100%;'></div><div class = 'column'><img src = 'category2/CS7.png' width = '70%;'></div></div>","null","neg","CS","CS","2","category2/CS7.png","","","","",""
"","html-keyboard-response","75","526820","0.0-6.0-6.0-0.6","k2j77sq8d0","many_one","0","direct_first","1","ng06us16","0","23","1","1","3","1","Die Laute der Aussprache waren fast schon zu kurz, um sie wirklich aufzunehmen. Sonst alles in Ordnung.","0","1","0","null","","","<div class = 'row'><div class = 'column'><img src = 'category1/CS1.png' width = '70%;'></div><div class = 'column'><img src = 'uspos/2058.bmp' width = '100%;'></div></div>","null","pos","CS","CS","1","category1/CS1.png","","","","",""
"","html-keyboard-response","76","529338","0.0-6.0-6.0-0.7","k2j77sq8d0","many_one","0","direct_first","1","ng06us16","0","23","1","1","3","1","Die Laute der Aussprache waren fast schon zu kurz, um sie wirklich aufzunehmen. Sonst alles in Ordnung.","0","1","0","null","","","<div class = 'row'><div class = 'column'><img src = 'uspos/7580.bmp' width = '100%;'></div><div class = 'column'><img src = 'category3/CS1.png' width = '70%;'></div></div>","null","pos","CS","CS","3","category3/CS1.png","","","","",""
"","html-keyboard-response","77","531865","0.0-6.0-6.0-0.8","k2j77sq8d0","many_one","0","direct_first","1","ng06us16","0","23","1","1","3","1","Die Laute der Aussprache waren fast schon zu kurz, um sie wirklich aufzunehmen. Sonst alles in Ordnung.","0","1","0","null","","","<div class = 'row'><div class = 'column'><img src = 'category2/CS6.png' width = '70%;'></div><div class = 'column'><img src = 'usneg/9280.bmp' width = '100%;'></div></div>","null","neg","CS","CS","2","category2/CS6.png","","","","",""
"","html-keyboard-response","78","534387","0.0-6.0-6.0-0.9","k2j77sq8d0","many_one","0","direct_first","1","ng06us16","0","23","1","1","3","1","Die Laute der Aussprache waren fast schon zu kurz, um sie wirklich aufzunehmen. Sonst alles in Ordnung.","0","1","0","null","","","<div class = 'row'><div class = 'column'><img src = 'category3/CS5.png' width = '70%;'></div><div class = 'column'><img src = 'uspos/5629.bmp' width = '100%;'></div></div>","null","pos","CS","CS","3","category3/CS5.png","","","","",""
"","html-keyboard-response","79","536904","0.0-6.0-6.0-0.10","k2j77sq8d0","many_one","0","direct_first","1","ng06us16","0","23","1","1","3","1","Die Laute der Aussprache waren fast schon zu kurz, um sie wirklich aufzunehmen. Sonst alles in Ordnung.","0","1","0","null","","","<div class = 'row'><div class = 'column'><img src = 'uspos/8350.bmp' width = '100%;'></div><div class = 'column'><img src = 'category1/CS2.png' width = '70%;'></div></div>","null","pos","CS","CS","1","category1/CS2.png","","","","",""
"","html-keyboard-response","80","539425","0.0-6.0-6.0-0.11","k2j77sq8d0","many_one","0","direct_first","1","ng06us16","0","23","1","1","3","1","Die Laute der Aussprache waren fast schon zu kurz, um sie wirklich aufzunehmen. Sonst alles in Ordnung.","0","1","0","null","","","<div class = 'row'><div class = 'column'><img src = 'category3/CS6.png' width = '70%;'></div><div class = 'column'><img src = 'uspos/5470.bmp' width = '100%;'></div></div>","null","pos","CS","CS","3","category3/CS6.png","","","","",""
"","html-keyboard-response","81","541944","0.0-6.0-6.0-0.12","k2j77sq8d0","many_one","0","direct_first","1","ng06us16","0","23","1","1","3","1","Die Laute der Aussprache waren fast schon zu kurz, um sie wirklich aufzunehmen. Sonst alles in Ordnung.","0","1","0","null","","","<div class = 'row'><div class = 'column'><img src = 'category3/CS4.png' width = '70%;'></div><div class = 'column'><img src = 'uspos/2550.bmp' width = '100%;'></div></div>","null","pos","CS","CS","3","category3/CS4.png","","","","",""
"","html-keyboard-response","82","544472","0.0-6.0-6.0-0.13","k2j77sq8d0","many_one","0","direct_first","1","ng06us16","0","23","1","1","3","1","Die Laute der Aussprache waren fast schon zu kurz, um sie wirklich aufzunehmen. Sonst alles in Ordnung.","0","1","0","null","","","<div class = 'row'><div class = 'column'><img src = 'usneg/6212.bmp' width = '100%;'></div><div class = 'column'><img src = 'category4/CS7.png' width = '70%;'></div></div>","null","neg","CS","CS","4","category4/CS7.png","","","","",""
"","html-keyboard-response","83","546979","0.0-6.0-6.0-0.14","k2j77sq8d0","many_one","0","direct_first","1","ng06us16","0","23","1","1","3","1","Die Laute der Aussprache waren fast schon zu kurz, um sie wirklich aufzunehmen. Sonst alles in Ordnung.","0","1","0","null","","","<div class = 'row'><div class = 'column'><img src = 'usneg/6838.bmp' width = '100%;'></div><div class = 'column'><img src = 'category2/CS9.png' width = '70%;'></div></div>","null","neg","CS","CS","2","category2/CS9.png","","","","",""
"","html-keyboard-response","84","549510","0.0-6.0-6.0-0.15","k2j77sq8d0","many_one","0","direct_first","1","ng06us16","0","23","1","1","3","1","Die Laute der Aussprache waren fast schon zu kurz, um sie wirklich aufzunehmen. Sonst alles in Ordnung.","0","1","0","null","","","<div class = 'row'><div class = 'column'><img src = 'usneg/9421.bmp' width = '100%;'></div><div class = 'column'><img src = 'category4/CS8.png' width = '70%;'></div></div>","null","neg","CS","CS","4","category4/CS8.png","","","","",""
"","html-keyboard-response","85","552037","0.0-6.0-6.0-0.16","k2j77sq8d0","many_one","0","direct_first","1","ng06us16","0","23","1","1","3","1","Die Laute der Aussprache waren fast schon zu kurz, um sie wirklich aufzunehmen. Sonst alles in Ordnung.","0","1","0","null","","","<div class = 'row'><div class = 'column'><img src = 'uspos/2040.bmp' width = '100%;'></div><div class = 'column'><img src = 'category3/CS10.png' width = '70%;'></div></div>","null","pos","CS","CS","3","category3/CS10.png","","","","",""
"","html-keyboard-response","86","554571","0.0-6.0-6.0-0.17","k2j77sq8d0","many_one","0","direct_first","1","ng06us16","0","23","1","1","3","1","Die Laute der Aussprache waren fast schon zu kurz, um sie wirklich aufzunehmen. Sonst alles in Ordnung.","0","1","0","null","","","<div class = 'row'><div class = 'column'><img src = 'category4/CS5.png' width = '70%;'></div><div class = 'column'><img src = 'usneg/9830.bmp' width = '100%;'></div></div>","null","neg","CS","CS","4","category4/CS5.png","","","","",""
"","html-keyboard-response","87","557087","0.0-6.0-6.0-0.18","k2j77sq8d0","many_one","0","direct_first","1","ng06us16","0","23","1","1","3","1","Die Laute der Aussprache waren fast schon zu kurz, um sie wirklich aufzunehmen. Sonst alles in Ordnung.","0","1","0","null","","","<div class = 'row'><div class = 'column'><img src = 'usneg/9520.bmp' width = '100%;'></div><div class = 'column'><img src = 'category2/CS5.png' width = '70%;'></div></div>","null","neg","CS","CS","2","category2/CS5.png","","","","",""
"","html-keyboard-response","88","559607","0.0-6.0-6.0-0.19","k2j77sq8d0","many_one","0","direct_first","1","ng06us16","0","23","1","1","3","1","Die Laute der Aussprache waren fast schon zu kurz, um sie wirklich aufzunehmen. Sonst alles in Ordnung.","0","1","0","null","","","<div class = 'row'><div class = 'column'><img src = 'category4/CS4.png' width = '70%;'></div><div class = 'column'><img src = 'usneg/9330.bmp' width = '100%;'></div></div>","null","neg","CS","CS","4","category4/CS4.png","","","","",""
"","survey-html-form","89","572774","0.0-7.0","k2j77sq8d0","many_one","0","direct_first","1","ng06us16","0","23","1","1","3","1","Die Laute der Aussprache waren fast schon zu kurz, um sie wirklich aufzunehmen. Sonst alles in Ordnung.","0","1","0","12654.850000049919","","{}","","","","","","","","","","","",""
"","image-slider-response","90","582494","0.0-8.0-0.0","k2j77sq8d0","many_one","0","direct_first","1","ng06us16","0","23","1","1","3","1","Die Laute der Aussprache waren fast schon zu kurz, um sie wirklich aufzunehmen. Sonst alles in Ordnung.","0","1","0","7699.784999946132","","","","","neg","GS","GSnew","4","category4/GS1.png","-34","targets/20.png","direct","",""
"","image-slider-response","91","584902","0.0-8.0-0.1","k2j77sq8d0","many_one","0","direct_first","1","ng06us16","0","23","1","1","3","1","Die Laute der Aussprache waren fast schon zu kurz, um sie wirklich aufzunehmen. Sonst alles in Ordnung.","0","1","0","2405.9500000439584","","","","","pos","CS","CS","3","category3/CS1.png","28","targets/1.png","direct","",""
"","image-slider-response","92","588958","0.0-8.0-0.2","k2j77sq8d0","many_one","0","direct_first","1","ng06us16","0","23","1","1","3","1","Die Laute der Aussprache waren fast schon zu kurz, um sie wirklich aufzunehmen. Sonst alles in Ordnung.","0","1","0","4054.3549999129027","","","","","neg","GS","GSnew","2","category2/GS2.png","-58","targets/8.png","direct","",""
"","image-slider-response","93","592646","0.0-8.0-0.3","k2j77sq8d0","many_one","0","direct_first","1","ng06us16","0","23","1","1","3","1","Die Laute der Aussprache waren fast schon zu kurz, um sie wirklich aufzunehmen. Sonst alles in Ordnung.","0","1","0","3686.3349999766797","","","","","pos","GS","GSnew","1","category1/GS1.png","20","targets/15.png","direct","",""
"","image-slider-response","94","597494","0.0-8.0-0.4","k2j77sq8d0","many_one","0","direct_first","1","ng06us16","0","23","1","1","3","1","Die Laute der Aussprache waren fast schon zu kurz, um sie wirklich aufzunehmen. Sonst alles in Ordnung.","0","1","0","4846.720000030473","","","","","pos","GS","GSnew","3","category3/GS1.png","0","targets/45.png","direct","",""
"","image-slider-response","95","600054","0.0-8.0-0.5","k2j77sq8d0","many_one","0","direct_first","1","ng06us16","0","23","1","1","3","1","Die Laute der Aussprache waren fast schon zu kurz, um sie wirklich aufzunehmen. Sonst alles in Ordnung.","0","1","0","2558.0700000282377","","","","","pos","CS","CS","3","category3/CS5.png","43","targets/35.png","direct","",""
"","image-slider-response","96","602486","0.0-8.0-0.6","k2j77sq8d0","many_one","0","direct_first","1","ng06us16","0","23","1","1","3","1","Die Laute der Aussprache waren fast schon zu kurz, um sie wirklich aufzunehmen. Sonst alles in Ordnung.","0","1","0","2430.5699998512864","","","","","pos","GS","GSold","3","category3/CS3.png","36","targets/32.png","direct","",""
"","image-slider-response","97","607462","0.0-8.0-0.7","k2j77sq8d0","many_one","0","direct_first","1","ng06us16","0","23","1","1","3","1","Die Laute der Aussprache waren fast schon zu kurz, um sie wirklich aufzunehmen. Sonst alles in Ordnung.","0","1","0","4974.560000002384","","","","","neg","CS","CS","2","category2/CS9.png","-52","targets/5.png","direct","",""
"","image-slider-response","98","610911","0.0-8.0-0.8","k2j77sq8d0","many_one","0","direct_first","1","ng06us16","0","23","1","1","3","1","Die Laute der Aussprache waren fast schon zu kurz, um sie wirklich aufzunehmen. Sonst alles in Ordnung.","0","1","0","3445.8149999845773","","","","","pos","GS","GSnew","3","category3/GS3.png","12","targets/31.png","direct","",""
"","image-slider-response","99","614022","0.0-8.0-0.9","k2j77sq8d0","many_one","0","direct_first","1","ng06us16","0","23","1","1","3","1","Die Laute der Aussprache waren fast schon zu kurz, um sie wirklich aufzunehmen. Sonst alles in Ordnung.","0","1","0","3108.7450000923127","","","","","neg","GS","GSnew","2","category2/GS3.png","-24","targets/29.png","direct","",""
"","image-slider-response","100","616534","0.0-8.0-0.10","k2j77sq8d0","many_one","0","direct_first","1","ng06us16","0","23","1","1","3","1","Die Laute der Aussprache waren fast schon zu kurz, um sie wirklich aufzunehmen. Sonst alles in Ordnung.","0","1","0","2510.329999960959","","","","","neg","GS","GSold","2","category2/CS4.png","-55","targets/7.png","direct","",""
"","image-slider-response","101","620406","0.0-8.0-0.11","k2j77sq8d0","many_one","0","direct_first","1","ng06us16","0","23","1","1","3","1","Die Laute der Aussprache waren fast schon zu kurz, um sie wirklich aufzunehmen. Sonst alles in Ordnung.","0","1","0","3870.989999966696","","","","","pos","CS","CS","1","category1/CS10.png","67","targets/46.png","direct","",""
"","image-slider-response","102","622926","0.0-8.0-0.12","k2j77sq8d0","many_one","0","direct_first","1","ng06us16","0","23","1","1","3","1","Die Laute der Aussprache waren fast schon zu kurz, um sie wirklich aufzunehmen. Sonst alles in Ordnung.","0","1","0","2516.8300000950694","","","","","pos","CS","CS","3","category3/CS6.png","60","targets/17.png","direct","",""
"","image-slider-response","103","626174","0.0-8.0-0.13","k2j77sq8d0","many_one","0","direct_first","1","ng06us16","0","23","1","1","3","1","Die Laute der Aussprache waren fast schon zu kurz, um sie wirklich aufzunehmen. Sonst alles in Ordnung.","0","1","0","3245.6249999813735","","","","","neg","CS","CS","2","category2/CS2.png","-41","targets/26.png","direct","",""
"","image-slider-response","104","630566","0.0-8.0-0.14","k2j77sq8d0","many_one","0","direct_first","1","ng06us16","0","23","1","1","3","1","Die Laute der Aussprache waren fast schon zu kurz, um sie wirklich aufzunehmen. Sonst alles in Ordnung.","0","1","0","4389.919999986887","","","","","pos","GS","GSnew","1","category1/GS3.png","-16","targets/37.png","direct","",""
"","image-slider-response","105","634430","0.0-8.0-0.15","k2j77sq8d0","many_one","0","direct_first","1","ng06us16","0","23","1","1","3","1","Die Laute der Aussprache waren fast schon zu kurz, um sie wirklich aufzunehmen. Sonst alles in Ordnung.","0","1","0","3862.4149998649955","","","","","pos","GS","GSnew","3","category3/GS2.png","-63","targets/24.png","direct","",""
"","image-slider-response","106","639278","0.0-8.0-0.16","k2j77sq8d0","many_one","0","direct_first","1","ng06us16","0","23","1","1","3","1","Die Laute der Aussprache waren fast schon zu kurz, um sie wirklich aufzunehmen. Sonst alles in Ordnung.","0","1","0","4846.3049998972565","","","","","pos","CS","CS","1","category1/CS2.png","46","targets/4.png","direct","",""
"","image-slider-response","107","643150","0.0-8.0-0.17","k2j77sq8d0","many_one","0","direct_first","1","ng06us16","0","23","1","1","3","1","Die Laute der Aussprache waren fast schon zu kurz, um sie wirklich aufzunehmen. Sonst alles in Ordnung.","0","1","0","3870.295000029728","","","","","neg","CS","CS","4","category4/CS7.png","-77","targets/42.png","direct","",""
"","image-slider-response","108","646798","0.0-8.0-0.18","k2j77sq8d0","many_one","0","direct_first","1","ng06us16","0","23","1","1","3","1","Die Laute der Aussprache waren fast schon zu kurz, um sie wirklich aufzunehmen. Sonst alles in Ordnung.","0","1","0","3646.120000164956","","","","","neg","GS","GSnew","4","category4/GS2.png","-57","targets/36.png","direct","",""
"","image-slider-response","109","649382","0.0-8.0-0.19","k2j77sq8d0","many_one","0","direct_first","1","ng06us16","0","23","1","1","3","1","Die Laute der Aussprache waren fast schon zu kurz, um sie wirklich aufzunehmen. Sonst alles in Ordnung.","0","1","0","2582.4499998707324","","","","","pos","CS","CS","1","category1/CS1.png","23","targets/12.png","direct","",""
"","image-slider-response","110","654398","0.0-8.0-0.20","k2j77sq8d0","many_one","0","direct_first","1","ng06us16","0","23","1","1","3","1","Die Laute der Aussprache waren fast schon zu kurz, um sie wirklich aufzunehmen. Sonst alles in Ordnung.","0","1","0","5014.4649997819215","","","","","neg","CS","CS","4","category4/CS8.png","-76","targets/18.png","direct","",""
"","image-slider-response","111","657454","0.0-8.0-0.21","k2j77sq8d0","many_one","0","direct_first","1","ng06us16","0","23","1","1","3","1","Die Laute der Aussprache waren fast schon zu kurz, um sie wirklich aufzunehmen. Sonst alles in Ordnung.","0","1","0","3054.079999914393","","","","","pos","GS","GSold","3","category3/CS7.png","20","targets/10.png","direct","",""
"","image-slider-response","112","660118","0.0-8.0-0.22","k2j77sq8d0","many_one","0","direct_first","1","ng06us16","0","23","1","1","3","1","Die Laute der Aussprache waren fast schon zu kurz, um sie wirklich aufzunehmen. Sonst alles in Ordnung.","0","1","0","2661.7649998515844","","","","","neg","CS","CS","4","category4/CS5.png","-82","targets/21.png","direct","",""
"","image-slider-response","113","662390","0.0-8.0-0.23","k2j77sq8d0","many_one","0","direct_first","1","ng06us16","0","23","1","1","3","1","Die Laute der Aussprache waren fast schon zu kurz, um sie wirklich aufzunehmen. Sonst alles in Ordnung.","0","1","0","2270.3850001562387","","","","","neg","CS","CS","2","category2/CS6.png","-55","targets/27.png","direct","",""
"","image-slider-response","114","666182","0.0-8.0-0.24","k2j77sq8d0","many_one","0","direct_first","1","ng06us16","0","23","1","1","3","1","Die Laute der Aussprache waren fast schon zu kurz, um sie wirklich aufzunehmen. Sonst alles in Ordnung.","0","1","0","3790.5500000342727","","","","","pos","GS","abstract","3","category3/wang.png","10","targets/39.png","direct","",""
"","image-slider-response","115","669950","0.0-8.0-0.25","k2j77sq8d0","many_one","0","direct_first","1","ng06us16","0","23","1","1","3","1","Die Laute der Aussprache waren fast schon zu kurz, um sie wirklich aufzunehmen. Sonst alles in Ordnung.","0","1","0","3766.2199998740107","","","","","pos","CS","CS","1","category1/CS6.png","30","targets/44.png","direct","",""
"","image-slider-response","116","672198","0.0-8.0-0.26","k2j77sq8d0","many_one","0","direct_first","1","ng06us16","0","23","1","1","3","1","Die Laute der Aussprache waren fast schon zu kurz, um sie wirklich aufzunehmen. Sonst alles in Ordnung.","0","1","0","2246.3449998758733","","","","","neg","GS","abstract","2","category2/men.png","-45","targets/23.png","direct","",""
"","image-slider-response","117","675718","0.0-8.0-0.27","k2j77sq8d0","many_one","0","direct_first","1","ng06us16","0","23","1","1","3","1","Die Laute der Aussprache waren fast schon zu kurz, um sie wirklich aufzunehmen. Sonst alles in Ordnung.","0","1","0","3519.079999998212","","","","","neg","CS","CS","2","category2/CS5.png","-61","targets/13.png","direct","",""
"","image-slider-response","118","678614","0.0-8.0-0.28","k2j77sq8d0","many_one","0","direct_first","1","ng06us16","0","23","1","1","3","1","Die Laute der Aussprache waren fast schon zu kurz, um sie wirklich aufzunehmen. Sonst alles in Ordnung.","0","1","0","2893.495000200346","","","","","pos","CS","CS","3","category3/CS10.png","20","targets/9.png","direct","",""
"","image-slider-response","119","681478","0.0-8.0-0.29","k2j77sq8d0","many_one","0","direct_first","1","ng06us16","0","23","1","1","3","1","Die Laute der Aussprache waren fast schon zu kurz, um sie wirklich aufzunehmen. Sonst alles in Ordnung.","0","1","0","2862.165000056848","","","","","pos","CS","CS","3","category3/CS4.png","19","targets/43.png","direct","",""
"","image-slider-response","120","684798","0.0-8.0-0.30","k2j77sq8d0","many_one","0","direct_first","1","ng06us16","0","23","1","1","3","1","Die Laute der Aussprache waren fast schon zu kurz, um sie wirklich aufzunehmen. Sonst alles in Ordnung.","0","1","0","3318.650000030175","","","","","pos","GS","GSold","1","category1/CS3.png","32","targets/6.png","direct","",""
"","image-slider-response","121","690278","0.0-8.0-0.31","k2j77sq8d0","many_one","0","direct_first","1","ng06us16","0","23","1","1","3","1","Die Laute der Aussprache waren fast schon zu kurz, um sie wirklich aufzunehmen. Sonst alles in Ordnung.","0","1","0","5478.234999813139","","","","","neg","GS","GSold","4","category4/CS6.png","-68","targets/2.png","direct","",""
"","image-slider-response","122","695510","0.0-8.0-0.32","k2j77sq8d0","many_one","0","direct_first","1","ng06us16","0","23","1","1","3","1","Die Laute der Aussprache waren fast schon zu kurz, um sie wirklich aufzunehmen. Sonst alles in Ordnung.","0","1","0","5229.744999902323","","","","","neg","CS","CS","4","category4/CS4.png","-59","targets/38.png","direct","",""
"","image-slider-response","123","698558","0.0-8.0-0.33","k2j77sq8d0","many_one","0","direct_first","1","ng06us16","0","23","1","1","3","1","Die Laute der Aussprache waren fast schon zu kurz, um sie wirklich aufzunehmen. Sonst alles in Ordnung.","0","1","0","3046.3250000029802","","","","","neg","CS","CS","2","category2/CS7.png","-57","targets/30.png","direct","",""
"","image-slider-response","124","700934","0.0-8.0-0.34","k2j77sq8d0","many_one","0","direct_first","1","ng06us16","0","23","1","1","3","1","Die Laute der Aussprache waren fast schon zu kurz, um sie wirklich aufzunehmen. Sonst alles in Ordnung.","0","1","0","2374.8800000175834","","","","","neg","GS","GSold","2","category2/CS3.png","-54","targets/48.png","direct","",""
"","image-slider-response","125","706255","0.0-8.0-0.35","k2j77sq8d0","many_one","0","direct_first","1","ng06us16","0","23","1","1","3","1","Die Laute der Aussprache waren fast schon zu kurz, um sie wirklich aufzunehmen. Sonst alles in Ordnung.","0","1","0","5317.769999848679","","","","","neg","GS","GSnew","2","category2/GS1.png","-6","targets/11.png","direct","",""
"","image-slider-response","126","710239","0.0-8.0-0.36","k2j77sq8d0","many_one","0","direct_first","1","ng06us16","0","23","1","1","3","1","Die Laute der Aussprache waren fast schon zu kurz, um sie wirklich aufzunehmen. Sonst alles in Ordnung.","0","1","0","3982.2949999943376","","","","","neg","GS","GSold","4","category4/CS10.png","-41","targets/16.png","direct","",""
"","image-slider-response","127","712687","0.0-8.0-0.37","k2j77sq8d0","many_one","0","direct_first","1","ng06us16","0","23","1","1","3","1","Die Laute der Aussprache waren fast schon zu kurz, um sie wirklich aufzunehmen. Sonst alles in Ordnung.","0","1","0","2445.8650001324713","","","","","pos","GS","GSold","3","category3/CS9.png","17","targets/47.png","direct","",""
"","image-slider-response","128","715183","0.0-8.0-0.38","k2j77sq8d0","many_one","0","direct_first","1","ng06us16","0","23","1","1","3","1","Die Laute der Aussprache waren fast schon zu kurz, um sie wirklich aufzunehmen. Sonst alles in Ordnung.","0","1","0","2494.6000000927597","","","","","neg","GS","GSold","4","category4/CS9.png","-57","targets/14.png","direct","",""
"","image-slider-response","129","720191","0.0-8.0-0.39","k2j77sq8d0","many_one","0","direct_first","1","ng06us16","0","23","1","1","3","1","Die Laute der Aussprache waren fast schon zu kurz, um sie wirklich aufzunehmen. Sonst alles in Ordnung.","0","1","0","5006.525000091642","","","","","neg","GS","abstract","4","category4/lin.png","-92","targets/19.png","direct","",""
"","image-slider-response","130","722847","0.0-8.0-0.40","k2j77sq8d0","many_one","0","direct_first","1","ng06us16","0","23","1","1","3","1","Die Laute der Aussprache waren fast schon zu kurz, um sie wirklich aufzunehmen. Sonst alles in Ordnung.","0","1","0","2654.3600000441074","","","","","pos","GS","GSnew","1","category1/GS2.png","16","targets/25.png","direct","",""
"","image-slider-response","131","724759","0.0-8.0-0.41","k2j77sq8d0","many_one","0","direct_first","1","ng06us16","0","23","1","1","3","1","Die Laute der Aussprache waren fast schon zu kurz, um sie wirklich aufzunehmen. Sonst alles in Ordnung.","0","1","0","1910.5299999937415","","","","","pos","GS","GSold","1","category1/CS8.png","18","targets/3.png","direct","",""
"","image-slider-response","132","727623","0.0-8.0-0.42","k2j77sq8d0","many_one","0","direct_first","1","ng06us16","0","23","1","1","3","1","Die Laute der Aussprache waren fast schon zu kurz, um sie wirklich aufzunehmen. Sonst alles in Ordnung.","0","1","0","2862.1900000143796","","","","","neg","CS","CS","4","category4/CS1.png","-54","targets/28.png","direct","",""
"","image-slider-response","133","730414","0.0-8.0-0.43","k2j77sq8d0","many_one","0","direct_first","1","ng06us16","0","23","1","1","3","1","Die Laute der Aussprache waren fast schon zu kurz, um sie wirklich aufzunehmen. Sonst alles in Ordnung.","0","1","0","2790.1949998922646","","","","","neg","GS","GSnew","4","category4/GS3.png","-11","targets/33.png","direct","",""
"","image-slider-response","134","733543","0.0-8.0-0.44","k2j77sq8d0","many_one","0","direct_first","1","ng06us16","0","23","1","1","3","1","Die Laute der Aussprache waren fast schon zu kurz, um sie wirklich aufzunehmen. Sonst alles in Ordnung.","0","1","0","3126.9149999134243","","","","","pos","GS","abstract","1","category1/ma.png","77","targets/34.png","direct","",""
"","image-slider-response","135","736575","0.0-8.0-0.45","k2j77sq8d0","many_one","0","direct_first","1","ng06us16","0","23","1","1","3","1","Die Laute der Aussprache waren fast schon zu kurz, um sie wirklich aufzunehmen. Sonst alles in Ordnung.","0","1","0","3029.2699998244643","","","","","pos","CS","CS","1","category1/CS9.png","55","targets/22.png","direct","",""
"","image-slider-response","136","739351","0.0-8.0-0.46","k2j77sq8d0","many_one","0","direct_first","1","ng06us16","0","23","1","1","3","1","Die Laute der Aussprache waren fast schon zu kurz, um sie wirklich aufzunehmen. Sonst alles in Ordnung.","0","1","0","2774.350000079721","","","","","neg","GS","GSold","2","category2/CS8.png","-79","targets/40.png","direct","",""
"","image-slider-response","137","741343","0.0-8.0-0.47","k2j77sq8d0","many_one","0","direct_first","1","ng06us16","0","23","1","1","3","1","Die Laute der Aussprache waren fast schon zu kurz, um sie wirklich aufzunehmen. Sonst alles in Ordnung.","0","1","0","1990.0449998676777","","","","","pos","GS","GSold","1","category1/CS4.png","26","targets/41.png","direct","",""
"","html-keyboard-response","138","781654","0.0-9.0","k2j77sq8d0","many_one","0","direct_first","1","ng06us16","0","23","1","1","3","1","Die Laute der Aussprache waren fast schon zu kurz, um sie wirklich aufzunehmen. Sonst alles in Ordnung.","0","1","0","40310.00499986112","","","<p>Sie sehen nun die chinesischen Zeichen nur ganz kurz. Danach sehen Sie die jeweilige Aussprache der Zeichen als Silbe auf dem Bildschrim. Ihre Aufgabe ist es, fr jede Silbe anzugeben, ob diese etwas angenehmes, oder unangenehmes bedeuten knnte. Verlassen Sie sich hier vor allem auf Ihre Intuition.<br><br>Die Zeichen werden nur zur Orientierung dargestellt, beachten Sie sie deshalb nicht. Konzentrieren Sie sich vor allem auf die Silben. <br>Reagieren Sie mit folgenden zwei Tasten: <br><br><b>'D' </b> wenn die Silbe etwas <b>unangenehmes</b> bedeuten knnte. <br><b>'K'</b> wenn die Silbe etwas <b>angenehmes</b> bedeuten knnte. <br><br>Bitte legen Sie nun den Zeigefinger der linken Hand auf die Taste 'D' und den Zeigefinger der rechten Hand auf die Taste 'K'. <br>Reagieren Sie auf jede Silbe so schnell wie mglich. Uns interessiert Ihre spontane Reaktion. <br> <br> <br>Drcken Sie 'D' oder 'K', um die nchste Aufgabe zu starten. </p>","75","","","","","","","","","",""
"","html-keyboard-response","139","784665","0.0-10.0-0.0","k2j77sq8d0","many_one","0","direct_first","1","ng06us16","0","23","1","1","3","1","Die Laute der Aussprache waren fast schon zu kurz, um sie wirklich aufzunehmen. Sonst alles in Ordnung.","0","1","0","null","","","<div style=""font-size:60px;"">+</div>","null","","","","","","","","","",""
"","html-keyboard-response","140","784758","0.0-10.0-1.0","k2j77sq8d0","many_one","0","direct_first","1","ng06us16","0","23","1","1","3","1","Die Laute der Aussprache waren fast schon zu kurz, um sie wirklich aufzunehmen. Sonst alles in Ordnung.","0","1","0","null","","","<img src = 'category3/CS1.png' width = '100%;'>","null","","","","","","","","","",""
"","html-keyboard-response","141","785031","0.0-10.0-2.0","k2j77sq8d0","many_one","0","direct_first","1","ng06us16","0","23","1","1","3","1","Die Laute der Aussprache waren fast schon zu kurz, um sie wirklich aufzunehmen. Sonst alles in Ordnung.","0","1","0","null","","","<img src = 'targets/1.png' width = '100%;'>","null","","","","","","","","","",""
"","html-keyboard-response","142","787106","0.0-10.0-3.0","k2j77sq8d0","many_one","0","direct_first","1","ng06us16","0","23","1","1","3","1","Die Laute der Aussprache waren fast schon zu kurz, um sie wirklich aufzunehmen. Sonst alles in Ordnung.","0","1","0","2073.534999974072","","","<img src = 'targets/mask.png' width = '100%;'>","75","pos","CS","CS","3","category3/CS1.png","","targets/1.png","indirect","1","0"
"","html-keyboard-response","143","788629","0.0-10.0-0.1","k2j77sq8d0","many_one","0","direct_first","1","ng06us16","0","23","1","1","3","1","Die Laute der Aussprache waren fast schon zu kurz, um sie wirklich aufzunehmen. Sonst alles in Ordnung.","0","1","0","null","","","<div style=""font-size:60px;"">+</div>","null","","","","","","","","","",""
"","html-keyboard-response","144","788724","0.0-10.0-1.1","k2j77sq8d0","many_one","0","direct_first","1","ng06us16","0","23","1","1","3","1","Die Laute der Aussprache waren fast schon zu kurz, um sie wirklich aufzunehmen. Sonst alles in Ordnung.","0","1","0","null","","","<img src = 'category2/CS7.png' width = '100%;'>","null","","","","","","","","","",""
"","html-keyboard-response","145","788988","0.0-10.0-2.1","k2j77sq8d0","many_one","0","direct_first","1","ng06us16","0","23","1","1","3","1","Die Laute der Aussprache waren fast schon zu kurz, um sie wirklich aufzunehmen. Sonst alles in Ordnung.","0","1","0","null","","","<img src = 'targets/30.png' width = '100%;'>","null","","","","","","","","","",""
"","html-keyboard-response","146","790068","0.0-10.0-3.1","k2j77sq8d0","many_one","0","direct_first","1","ng06us16","0","23","1","1","3","1","Die Laute der Aussprache waren fast schon zu kurz, um sie wirklich aufzunehmen. Sonst alles in Ordnung.","0","1","0","1077.6750000659376","","","<img src = 'targets/mask.png' width = '100%;'>","68","neg","CS","CS","2","category2/CS7.png","","targets/30.png","indirect","0","1"
"","html-keyboard-response","147","791587","0.0-10.0-0.2","k2j77sq8d0","many_one","0","direct_first","1","ng06us16","0","23","1","1","3","1","Die Laute der Aussprache waren fast schon zu kurz, um sie wirklich aufzunehmen. Sonst alles in Ordnung.","0","1","0","null","","","<div style=""font-size:60px;"">+</div>","null","","","","","","","","","",""
"","html-keyboard-response","148","791681","0.0-10.0-1.2","k2j77sq8d0","many_one","0","direct_first","1","ng06us16","0","23","1","1","3","1","Die Laute der Aussprache waren fast schon zu kurz, um sie wirklich aufzunehmen. Sonst alles in Ordnung.","0","1","0","null","","","<img src = 'category4/CS4.png' width = '100%;'>","null","","","","","","","","","",""
"","html-keyboard-response","149","791959","0.0-10.0-2.2","k2j77sq8d0","many_one","0","direct_first","1","ng06us16","0","23","1","1","3","1","Die Laute der Aussprache waren fast schon zu kurz, um sie wirklich aufzunehmen. Sonst alles in Ordnung.","0","1","0","null","","","<img src = 'targets/38.png' width = '100%;'>","null","","","","","","","","","",""
"","html-keyboard-response","150","794387","0.0-10.0-3.2","k2j77sq8d0","many_one","0","direct_first","1","ng06us16","0","23","1","1","3","1","Die Laute der Aussprache waren fast schon zu kurz, um sie wirklich aufzunehmen. Sonst alles in Ordnung.","0","1","0","2426.9349998794496","","","<img src = 'targets/mask.png' width = '100%;'>","68","neg","CS","CS","4","category4/CS4.png","","targets/38.png","indirect","0","2"
"","html-keyboard-response","151","795912","0.0-10.0-0.3","k2j77sq8d0","many_one","0","direct_first","1","ng06us16","0","23","1","1","3","1","Die Laute der Aussprache waren fast schon zu kurz, um sie wirklich aufzunehmen. Sonst alles in Ordnung.","0","1","0","null","","","<div style=""font-size:60px;"">+</div>","null","","","","","","","","","",""
"","html-keyboard-response","152","796005","0.0-10.0-1.3","k2j77sq8d0","many_one","0","direct_first","1","ng06us16","0","23","1","1","3","1","Die Laute der Aussprache waren fast schon zu kurz, um sie wirklich aufzunehmen. Sonst alles in Ordnung.","0","1","0","null","","","<img src = 'category2/CS2.png' width = '100%;'>","null","","","","","","","","","",""
"","html-keyboard-response","153","796272","0.0-10.0-2.3","k2j77sq8d0","many_one","0","direct_first","1","ng06us16","0","23","1","1","3","1","Die Laute der Aussprache waren fast schon zu kurz, um sie wirklich aufzunehmen. Sonst alles in Ordnung.","0","1","0","null","","","<img src = 'targets/26.png' width = '100%;'>","null","","","","","","","","","",""
"","html-keyboard-response","154","797363","0.0-10.0-3.3","k2j77sq8d0","many_one","0","direct_first","1","ng06us16","0","23","1","1","3","1","Die Laute der Aussprache waren fast schon zu kurz, um sie wirklich aufzunehmen. Sonst alles in Ordnung.","0","1","0","1088.6950001586229","","","<img src = 'targets/mask.png' width = '100%;'>","68","neg","CS","CS","2","category2/CS2.png","","targets/26.png","indirect","0","3"
"","html-keyboard-response","155","798885","0.0-10.0-0.4","k2j77sq8d0","many_one","0","direct_first","1","ng06us16","0","23","1","1","3","1","Die Laute der Aussprache waren fast schon zu kurz, um sie wirklich aufzunehmen. Sonst alles in Ordnung.","0","1","0","null","","","<div style=""font-size:60px;"">+</div>","null","","","","","","","","","",""
"","html-keyboard-response","156","798993","0.0-10.0-1.4","k2j77sq8d0","many_one","0","direct_first","1","ng06us16","0","23","1","1","3","1","Die Laute der Aussprache waren fast schon zu kurz, um sie wirklich aufzunehmen. Sonst alles in Ordnung.","0","1","0","null","","","<img src = 'category4/CS8.png' width = '100%;'>","null","","","","","","","","","",""
"","html-keyboard-response","157","799275","0.0-10.0-2.4","k2j77sq8d0","many_one","0","direct_first","1","ng06us16","0","23","1","1","3","1","Die Laute der Aussprache waren fast schon zu kurz, um sie wirklich aufzunehmen. Sonst alles in Ordnung.","0","1","0","null","","","<img src = 'targets/18.png' width = '100%;'>","null","","","","","","","","","",""
"","html-keyboard-response","158","800379","0.0-10.0-3.4","k2j77sq8d0","many_one","0","direct_first","1","ng06us16","0","23","1","1","3","1","Die Laute der Aussprache waren fast schon zu kurz, um sie wirklich aufzunehmen. Sonst alles in Ordnung.","0","1","0","1101.5050001442432","","","<img src = 'targets/mask.png' width = '100%;'>","75","neg","CS","CS","4","category4/CS8.png","","targets/18.png","indirect","1","4"
"","html-keyboard-response","159","801908","0.0-10.0-0.5","k2j77sq8d0","many_one","0","direct_first","1","ng06us16","0","23","1","1","3","1","Die Laute der Aussprache waren fast schon zu kurz, um sie wirklich aufzunehmen. Sonst alles in Ordnung.","0","1","0","null","","","<div style=""font-size:60px;"">+</div>","null","","","","","","","","","",""
"","html-keyboard-response","160","802002","0.0-10.0-1.5","k2j77sq8d0","many_one","0","direct_first","1","ng06us16","0","23","1","1","3","1","Die Laute der Aussprache waren fast schon zu kurz, um sie wirklich aufzunehmen. Sonst alles in Ordnung.","0","1","0","null","","","<img src = 'category4/CS9.png' width = '100%;'>","null","","","","","","","","","",""
"","html-keyboard-response","161","802267","0.0-10.0-2.5","k2j77sq8d0","many_one","0","direct_first","1","ng06us16","0","23","1","1","3","1","Die Laute der Aussprache waren fast schon zu kurz, um sie wirklich aufzunehmen. Sonst alles in Ordnung.","0","1","0","null","","","<img src = 'targets/14.png' width = '100%;'>","null","","","","","","","","","",""
"","html-keyboard-response","162","803747","0.0-10.0-3.5","k2j77sq8d0","many_one","0","direct_first","1","ng06us16","0","23","1","1","3","1","Die Laute der Aussprache waren fast schon zu kurz, um sie wirklich aufzunehmen. Sonst alles in Ordnung.","0","1","0","1476.0049998294562","","","<img src = 'targets/mask.png' width = '100%;'>","75","neg","GS","GSold","4","category4/CS9.png","","targets/14.png","indirect","1","5"
"","html-keyboard-response","163","805264","0.0-10.0-0.6","k2j77sq8d0","many_one","0","direct_first","1","ng06us16","0","23","1","1","3","1","Die Laute der Aussprache waren fast schon zu kurz, um sie wirklich aufzunehmen. Sonst alles in Ordnung.","0","1","0","null","","","<div style=""font-size:60px;"">+</div>","null","","","","","","","","","",""
"","html-keyboard-response","164","805357","0.0-10.0-1.6","k2j77sq8d0","many_one","0","direct_first","1","ng06us16","0","23","1","1","3","1","Die Laute der Aussprache waren fast schon zu kurz, um sie wirklich aufzunehmen. Sonst alles in Ordnung.","0","1","0","null","","","<img src = 'category2/CS5.png' width = '100%;'>","null","","","","","","","","","",""
"","html-keyboard-response","165","805608","0.0-10.0-2.6","k2j77sq8d0","many_one","0","direct_first","1","ng06us16","0","23","1","1","3","1","Die Laute der Aussprache waren fast schon zu kurz, um sie wirklich aufzunehmen. Sonst alles in Ordnung.","0","1","0","null","","","<img src = 'targets/13.png' width = '100%;'>","null","","","","","","","","","",""
"","html-keyboard-response","166","807115","0.0-10.0-3.6","k2j77sq8d0","many_one","0","direct_first","1","ng06us16","0","23","1","1","3","1","Die Laute der Aussprache waren fast schon zu kurz, um sie wirklich aufzunehmen. Sonst alles in Ordnung.","0","1","0","1505.4250000976026","","","<img src = 'targets/mask.png' width = '100%;'>","75","neg","CS","CS","2","category2/CS5.png","","targets/13.png","indirect","1","6"
"","html-keyboard-response","167","808638","0.0-10.0-0.7","k2j77sq8d0","many_one","0","direct_first","1","ng06us16","0","23","1","1","3","1","Die Laute der Aussprache waren fast schon zu kurz, um sie wirklich aufzunehmen. Sonst alles in Ordnung.","0","1","0","null","","","<div style=""font-size:60px;"">+</div>","null","","","","","","","","","",""
"","html-keyboard-response","168","808730","0.0-10.0-1.7","k2j77sq8d0","many_one","0","direct_first","1","ng06us16","0","23","1","1","3","1","Die Laute der Aussprache waren fast schon zu kurz, um sie wirklich aufzunehmen. Sonst alles in Ordnung.","0","1","0","null","","","<img src = 'category1/CS6.png' width = '100%;'>","null","","","","","","","","","",""
"","html-keyboard-response","169","808997","0.0-10.0-2.7","k2j77sq8d0","many_one","0","direct_first","1","ng06us16","0","23","1","1","3","1","Die Laute der Aussprache waren fast schon zu kurz, um sie wirklich aufzunehmen. Sonst alles in Ordnung.","0","1","0","null","","","<img src = 'targets/44.png' width = '100%;'>","null","","","","","","","","","",""
"","html-keyboard-response","170","809952","0.0-10.0-3.7","k2j77sq8d0","many_one","0","direct_first","1","ng06us16","0","23","1","1","3","1","Die Laute der Aussprache waren fast schon zu kurz, um sie wirklich aufzunehmen. Sonst alles in Ordnung.","0","1","0","953.6450000014156","","","<img src = 'targets/mask.png' width = '100%;'>","75","pos","CS","CS","1","category1/CS6.png","","targets/44.png","indirect","1","7"
"","html-keyboard-response","171","811467","0.0-10.0-0.8","k2j77sq8d0","many_one","0","direct_first","1","ng06us16","0","23","1","1","3","1","Die Laute der Aussprache waren fast schon zu kurz, um sie wirklich aufzunehmen. Sonst alles in Ordnung.","0","1","0","null","","","<div style=""font-size:60px;"">+</div>","null","","","","","","","","","",""
"","html-keyboard-response","172","811561","0.0-10.0-1.8","k2j77sq8d0","many_one","0","direct_first","1","ng06us16","0","23","1","1","3","1","Die Laute der Aussprache waren fast schon zu kurz, um sie wirklich aufzunehmen. Sonst alles in Ordnung.","0","1","0","null","","","<img src = 'category4/CS6.png' width = '100%;'>","null","","","","","","","","","",""
"","html-keyboard-response","173","811826","0.0-10.0-2.8","k2j77sq8d0","many_one","0","direct_first","1","ng06us16","0","23","1","1","3","1","Die Laute der Aussprache waren fast schon zu kurz, um sie wirklich aufzunehmen. Sonst alles in Ordnung.","0","1","0","null","","","<img src = 'targets/2.png' width = '100%;'>","null","","","","","","","","","",""
"","html-keyboard-response","174","812804","0.0-10.0-3.8","k2j77sq8d0","many_one","0","direct_first","1","ng06us16","0","23","1","1","3","1","Die Laute der Aussprache waren fast schon zu kurz, um sie wirklich aufzunehmen. Sonst alles in Ordnung.","0","1","0","976.204999955371","","","<img src = 'targets/mask.png' width = '100%;'>","68","neg","GS","GSold","4","category4/CS6.png","","targets/2.png","indirect","0","8"
"","html-keyboard-response","175","814328","0.0-10.0-0.9","k2j77sq8d0","many_one","0","direct_first","1","ng06us16","0","23","1","1","3","1","Die Laute der Aussprache waren fast schon zu kurz, um sie wirklich aufzunehmen. Sonst alles in Ordnung.","0","1","0","null","","","<div style=""font-size:60px;"">+</div>","null","","","","","","","","","",""
"","html-keyboard-response","176","814422","0.0-10.0-1.9","k2j77sq8d0","many_one","0","direct_first","1","ng06us16","0","23","1","1","3","1","Die Laute der Aussprache waren fast schon zu kurz, um sie wirklich aufzunehmen. Sonst alles in Ordnung.","0","1","0","null","","","<img src = 'category3/CS4.png' width = '100%;'>","null","","","","","","","","","",""
"","html-keyboard-response","177","814702","0.0-10.0-2.9","k2j77sq8d0","many_one","0","direct_first","1","ng06us16","0","23","1","1","3","1","Die Laute der Aussprache waren fast schon zu kurz, um sie wirklich aufzunehmen. Sonst alles in Ordnung.","0","1","0","null","","","<img src = 'targets/43.png' width = '100%;'>","null","","","","","","","","","",""
"","html-keyboard-response","178","816542","0.0-10.0-3.9","k2j77sq8d0","many_one","0","direct_first","1","ng06us16","0","23","1","1","3","1","Die Laute der Aussprache waren fast schon zu kurz, um sie wirklich aufzunehmen. Sonst alles in Ordnung.","0","1","0","1838.4799999184906","","","<img src = 'targets/mask.png' width = '100%;'>","75","pos","CS","CS","3","category3/CS4.png","","targets/43.png","indirect","1","9"
"","html-keyboard-response","179","818072","0.0-10.0-0.10","k2j77sq8d0","many_one","0","direct_first","1","ng06us16","0","23","1","1","3","1","Die Laute der Aussprache waren fast schon zu kurz, um sie wirklich aufzunehmen. Sonst alles in Ordnung.","0","1","0","null","","","<div style=""font-size:60px;"">+</div>","null","","","","","","","","","",""
"","html-keyboard-response","180","818165","0.0-10.0-1.10","k2j77sq8d0","many_one","0","direct_first","1","ng06us16","0","23","1","1","3","1","Die Laute der Aussprache waren fast schon zu kurz, um sie wirklich aufzunehmen. Sonst alles in Ordnung.","0","1","0","null","","","<img src = 'category2/CS6.png' width = '100%;'>","null","","","","","","","","","",""
"","html-keyboard-response","181","818433","0.0-10.0-2.10","k2j77sq8d0","many_one","0","direct_first","1","ng06us16","0","23","1","1","3","1","Die Laute der Aussprache waren fast schon zu kurz, um sie wirklich aufzunehmen. Sonst alles in Ordnung.","0","1","0","null","","","<img src = 'targets/27.png' width = '100%;'>","null","","","","","","","","","",""
"","html-keyboard-response","182","820143","0.0-10.0-3.10","k2j77sq8d0","many_one","0","direct_first","1","ng06us16","0","23","1","1","3","1","Die Laute der Aussprache waren fast schon zu kurz, um sie wirklich aufzunehmen. Sonst alles in Ordnung.","0","1","0","1707.1199999190867","","","<img src = 'targets/mask.png' width = '100%;'>","68","neg","CS","CS","2","category2/CS6.png","","targets/27.png","indirect","0","10"
"","html-keyboard-response","183","821660","0.0-10.0-0.11","k2j77sq8d0","many_one","0","direct_first","1","ng06us16","0","23","1","1","3","1","Die Laute der Aussprache waren fast schon zu kurz, um sie wirklich aufzunehmen. Sonst alles in Ordnung.","0","1","0","null","","","<div style=""font-size:60px;"">+</div>","null","","","","","","","","","",""
"","html-keyboard-response","184","821752","0.0-10.0-1.11","k2j77sq8d0","many_one","0","direct_first","1","ng06us16","0","23","1","1","3","1","Die Laute der Aussprache waren fast schon zu kurz, um sie wirklich aufzunehmen. Sonst alles in Ordnung.","0","1","0","null","","","<img src = 'category4/CS7.png' width = '100%;'>","null","","","","","","","","","",""
"","html-keyboard-response","185","822017","0.0-10.0-2.11","k2j77sq8d0","many_one","0","direct_first","1","ng06us16","0","23","1","1","3","1","Die Laute der Aussprache waren fast schon zu kurz, um sie wirklich aufzunehmen. Sonst alles in Ordnung.","0","1","0","null","","","<img src = 'targets/42.png' width = '100%;'>","null","","","","","","","","","",""
"","html-keyboard-response","186","825646","0.0-10.0-3.11","k2j77sq8d0","many_one","0","direct_first","1","ng06us16","0","23","1","1","3","1","Die Laute der Aussprache waren fast schon zu kurz, um sie wirklich aufzunehmen. Sonst alles in Ordnung.","0","1","0","3627.0699999295175","","","<img src = 'targets/mask.png' width = '100%;'>","75","neg","CS","CS","4","category4/CS7.png","","targets/42.png","indirect","1","11"
"","html-keyboard-response","187","827166","0.0-10.0-0.12","k2j77sq8d0","many_one","0","direct_first","1","ng06us16","0","23","1","1","3","1","Die Laute der Aussprache waren fast schon zu kurz, um sie wirklich aufzunehmen. Sonst alles in Ordnung.","0","1","0","null","","","<div style=""font-size:60px;"">+</div>","null","","","","","","","","","",""
"","html-keyboard-response","188","827259","0.0-10.0-1.12","k2j77sq8d0","many_one","0","direct_first","1","ng06us16","0","23","1","1","3","1","Die Laute der Aussprache waren fast schon zu kurz, um sie wirklich aufzunehmen. Sonst alles in Ordnung.","0","1","0","null","","","<img src = 'category4/CS5.png' width = '100%;'>","null","","","","","","","","","",""
"","html-keyboard-response","189","827539","0.0-10.0-2.12","k2j77sq8d0","many_one","0","direct_first","1","ng06us16","0","23","1","1","3","1","Die Laute der Aussprache waren fast schon zu kurz, um sie wirklich aufzunehmen. Sonst alles in Ordnung.","0","1","0","null","","","<img src = 'targets/21.png' width = '100%;'>","null","","","","","","","","","",""
"","html-keyboard-response","190","828743","0.0-10.0-3.12","k2j77sq8d0","many_one","0","direct_first","1","ng06us16","0","23","1","1","3","1","Die Laute der Aussprache waren fast schon zu kurz, um sie wirklich aufzunehmen. Sonst alles in Ordnung.","0","1","0","1200.9199999738485","","","<img src = 'targets/mask.png' width = '100%;'>","68","neg","CS","CS","4","category4/CS5.png","","targets/21.png","indirect","0","12"
"","html-keyboard-response","191","830271","0.0-10.0-0.13","k2j77sq8d0","many_one","0","direct_first","1","ng06us16","0","23","1","1","3","1","Die Laute der Aussprache waren fast schon zu kurz, um sie wirklich aufzunehmen. Sonst alles in Ordnung.","0","1","0","null","","","<div style=""font-size:60px;"">+</div>","null","","","","","","","","","",""
"","html-keyboard-response","192","830362","0.0-10.0-1.13","k2j77sq8d0","many_one","0","direct_first","1","ng06us16","0","23","1","1","3","1","Die Laute der Aussprache waren fast schon zu kurz, um sie wirklich aufzunehmen. Sonst alles in Ordnung.","0","1","0","null","","","<img src = 'category2/CS9.png' width = '100%;'>","null","","","","","","","","","",""
"","html-keyboard-response","193","830644","0.0-10.0-2.13","k2j77sq8d0","many_one","0","direct_first","1","ng06us16","0","23","1","1","3","1","Die Laute der Aussprache waren fast schon zu kurz, um sie wirklich aufzunehmen. Sonst alles in Ordnung.","0","1","0","null","","","<img src = 'targets/5.png' width = '100%;'>","null","","","","","","","","","",""
"","html-keyboard-response","194","831932","0.0-10.0-3.13","k2j77sq8d0","many_one","0","direct_first","1","ng06us16","0","23","1","1","3","1","Die Laute der Aussprache waren fast schon zu kurz, um sie wirklich aufzunehmen. Sonst alles in Ordnung.","0","1","0","1281.7599999252707","","","<img src = 'targets/mask.png' width = '100%;'>","75","neg","CS","CS","2","category2/CS9.png","","targets/5.png","indirect","1","13"
"","html-keyboard-response","195","833455","0.0-10.0-0.14","k2j77sq8d0","many_one","0","direct_first","1","ng06us16","0","23","1","1","3","1","Die Laute der Aussprache waren fast schon zu kurz, um sie wirklich aufzunehmen. Sonst alles in Ordnung.","0","1","0","null","","","<div style=""font-size:60px;"">+</div>","null","","","","","","","","","",""
"","html-keyboard-response","196","833547","0.0-10.0-1.14","k2j77sq8d0","many_one","0","direct_first","1","ng06us16","0","23","1","1","3","1","Die Laute der Aussprache waren fast schon zu kurz, um sie wirklich aufzunehmen. Sonst alles in Ordnung.","0","1","0","null","","","<img src = 'category4/CS10.png' width = '100%;'>","null","","","","","","","","","",""
"","html-keyboard-response","197","833814","0.0-10.0-2.14","k2j77sq8d0","many_one","0","direct_first","1","ng06us16","0","23","1","1","3","1","Die Laute der Aussprache waren fast schon zu kurz, um sie wirklich aufzunehmen. Sonst alles in Ordnung.","0","1","0","null","","","<img src = 'targets/16.png' width = '100%;'>","null","","","","","","","","","",""
"","html-keyboard-response","198","835203","0.0-10.0-3.14","k2j77sq8d0","many_one","0","direct_first","1","ng06us16","0","23","1","1","3","1","Die Laute der Aussprache waren fast schon zu kurz, um sie wirklich aufzunehmen. Sonst alles in Ordnung.","0","1","0","1386.7099999915808","","","<img src = 'targets/mask.png' width = '100%;'>","68","neg","GS","GSold","4","category4/CS10.png","","targets/16.png","indirect","0","14"
"","html-keyboard-response","199","836716","0.0-10.0-0.15","k2j77sq8d0","many_one","0","direct_first","1","ng06us16","0","23","1","1","3","1","Die Laute der Aussprache waren fast schon zu kurz, um sie wirklich aufzunehmen. Sonst alles in Ordnung.","0","1","0","null","","","<div style=""font-size:60px;"">+</div>","null","","","","","","","","","",""
"","html-keyboard-response","200","836811","0.0-10.0-1.15","k2j77sq8d0","many_one","0","direct_first","1","ng06us16","0","23","1","1","3","1","Die Laute der Aussprache waren fast schon zu kurz, um sie wirklich aufzunehmen. Sonst alles in Ordnung.","0","1","0","null","","","<img src = 'category3/CS10.png' width = '100%;'>","null","","","","","","","","","",""
"","html-keyboard-response","201","837074","0.0-10.0-2.15","k2j77sq8d0","many_one","0","direct_first","1","ng06us16","0","23","1","1","3","1","Die Laute der Aussprache waren fast schon zu kurz, um sie wirklich aufzunehmen. Sonst alles in Ordnung.","0","1","0","null","","","<img src = 'targets/9.png' width = '100%;'>","null","","","","","","","","","",""
"","html-keyboard-response","202","838230","0.0-10.0-3.15","k2j77sq8d0","many_one","0","direct_first","1","ng06us16","0","23","1","1","3","1","Die Laute der Aussprache waren fast schon zu kurz, um sie wirklich aufzunehmen. Sonst alles in Ordnung.","0","1","0","1153.4550001379102","","","<img src = 'targets/mask.png' width = '100%;'>","75","pos","CS","CS","3","category3/CS10.png","","targets/9.png","indirect","1","15"
"","html-keyboard-response","203","839748","0.0-10.0-0.16","k2j77sq8d0","many_one","0","direct_first","1","ng06us16","0","23","1","1","3","1","Die Laute der Aussprache waren fast schon zu kurz, um sie wirklich aufzunehmen. Sonst alles in Ordnung.","0","1","0","null","","","<div style=""font-size:60px;"">+</div>","null","","","","","","","","","",""
"","html-keyboard-response","204","839842","0.0-10.0-1.16","k2j77sq8d0","many_one","0","direct_first","1","ng06us16","0","23","1","1","3","1","Die Laute der Aussprache waren fast schon zu kurz, um sie wirklich aufzunehmen. Sonst alles in Ordnung.","0","1","0","null","","","<img src = 'category3/CS6.png' width = '100%;'>","null","","","","","","","","","",""
"","html-keyboard-response","205","840105","0.0-10.0-2.16","k2j77sq8d0","many_one","0","direct_first","1","ng06us16","0","23","1","1","3","1","Die Laute der Aussprache waren fast schon zu kurz, um sie wirklich aufzunehmen. Sonst alles in Ordnung.","0","1","0","null","","","<img src = 'targets/17.png' width = '100%;'>","null","","","","","","","","","",""
"","html-keyboard-response","206","842197","0.0-10.0-3.16","k2j77sq8d0","many_one","0","direct_first","1","ng06us16","0","23","1","1","3","1","Die Laute der Aussprache waren fast schon zu kurz, um sie wirklich aufzunehmen. Sonst alles in Ordnung.","0","1","0","2088.7750000692904","","","<img src = 'targets/mask.png' width = '100%;'>","75","pos","CS","CS","3","category3/CS6.png","","targets/17.png","indirect","1","16"
"","html-keyboard-response","207","843707","0.0-10.0-0.17","k2j77sq8d0","many_one","0","direct_first","1","ng06us16","0","23","1","1","3","1","Die Laute der Aussprache waren fast schon zu kurz, um sie wirklich aufzunehmen. Sonst alles in Ordnung.","0","1","0","null","","","<div style=""font-size:60px;"">+</div>","null","","","","","","","","","",""
"","html-keyboard-response","208","843798","0.0-10.0-1.17","k2j77sq8d0","many_one","0","direct_first","1","ng06us16","0","23","1","1","3","1","Die Laute der Aussprache waren fast schon zu kurz, um sie wirklich aufzunehmen. Sonst alles in Ordnung.","0","1","0","null","","","<img src = 'category1/CS9.png' width = '100%;'>","null","","","","","","","","","",""
"","html-keyboard-response","209","844067","0.0-10.0-2.17","k2j77sq8d0","many_one","0","direct_first","1","ng06us16","0","23","1","1","3","1","Die Laute der Aussprache waren fast schon zu kurz, um sie wirklich aufzunehmen. Sonst alles in Ordnung.","0","1","0","null","","","<img src = 'targets/22.png' width = '100%;'>","null","","","","","","","","","",""
"","html-keyboard-response","210","845600","0.0-10.0-3.17","k2j77sq8d0","many_one","0","direct_first","1","ng06us16","0","23","1","1","3","1","Die Laute der Aussprache waren fast schon zu kurz, um sie wirklich aufzunehmen. Sonst alles in Ordnung.","0","1","0","1529.3900000397116","","","<img src = 'targets/mask.png' width = '100%;'>","75","pos","CS","CS","1","category1/CS9.png","","targets/22.png","indirect","1","17"
"","html-keyboard-response","211","847130","0.0-10.0-0.18","k2j77sq8d0","many_one","0","direct_first","1","ng06us16","0","23","1","1","3","1","Die Laute der Aussprache waren fast schon zu kurz, um sie wirklich aufzunehmen. Sonst alles in Ordnung.","0","1","0","null","","","<div style=""font-size:60px;"">+</div>","null","","","","","","","","","",""
"","html-keyboard-response","212","847222","0.0-10.0-1.18","k2j77sq8d0","many_one","0","direct_first","1","ng06us16","0","23","1","1","3","1","Die Laute der Aussprache waren fast schon zu kurz, um sie wirklich aufzunehmen. Sonst alles in Ordnung.","0","1","0","null","","","<img src = 'category4/CS1.png' width = '100%;'>","null","","","","","","","","","",""
"","html-keyboard-response","213","847475","0.0-10.0-2.18","k2j77sq8d0","many_one","0","direct_first","1","ng06us16","0","23","1","1","3","1","Die Laute der Aussprache waren fast schon zu kurz, um sie wirklich aufzunehmen. Sonst alles in Ordnung.","0","1","0","null","","","<img src = 'targets/28.png' width = '100%;'>","null","","","","","","","","","",""
"","html-keyboard-response","214","850411","0.0-10.0-3.18","k2j77sq8d0","many_one","0","direct_first","1","ng06us16","0","23","1","1","3","1","Die Laute der Aussprache waren fast schon zu kurz, um sie wirklich aufzunehmen. Sonst alles in Ordnung.","0","1","0","2934.1049999929965","","","<img src = 'targets/mask.png' width = '100%;'>","75","neg","CS","CS","4","category4/CS1.png","","targets/28.png","indirect","1","18"
"","html-keyboard-response","215","851924","0.0-10.0-0.19","k2j77sq8d0","many_one","0","direct_first","1","ng06us16","0","23","1","1","3","1","Die Laute der Aussprache waren fast schon zu kurz, um sie wirklich aufzunehmen. Sonst alles in Ordnung.","0","1","0","null","","","<div style=""font-size:60px;"">+</div>","null","","","","","","","","","",""
"","html-keyboard-response","216","852017","0.0-10.0-1.19","k2j77sq8d0","many_one","0","direct_first","1","ng06us16","0","23","1","1","3","1","Die Laute der Aussprache waren fast schon zu kurz, um sie wirklich aufzunehmen. Sonst alles in Ordnung.","0","1","0","null","","","<img src = 'category1/CS10.png' width = '100%;'>","null","","","","","","","","","",""
"","html-keyboard-response","217","852284","0.0-10.0-2.19","k2j77sq8d0","many_one","0","direct_first","1","ng06us16","0","23","1","1","3","1","Die Laute der Aussprache waren fast schon zu kurz, um sie wirklich aufzunehmen. Sonst alles in Ordnung.","0","1","0","null","","","<img src = 'targets/46.png' width = '100%;'>","null","","","","","","","","","",""
"","html-keyboard-response","218","853576","0.0-10.0-3.19","k2j77sq8d0","many_one","0","direct_first","1","ng06us16","0","23","1","1","3","1","Die Laute der Aussprache waren fast schon zu kurz, um sie wirklich aufzunehmen. Sonst alles in Ordnung.","0","1","0","1288.4649999905378","","","<img src = 'targets/mask.png' width = '100%;'>","75","pos","CS","CS","1","category1/CS10.png","","targets/46.png","indirect","1","19"
"","html-keyboard-response","219","855096","0.0-10.0-0.20","k2j77sq8d0","many_one","0","direct_first","1","ng06us16","0","23","1","1","3","1","Die Laute der Aussprache waren fast schon zu kurz, um sie wirklich aufzunehmen. Sonst alles in Ordnung.","0","1","0","null","","","<div style=""font-size:60px;"">+</div>","null","","","","","","","","","",""
"","html-keyboard-response","220","855189","0.0-10.0-1.20","k2j77sq8d0","many_one","0","direct_first","1","ng06us16","0","23","1","1","3","1","Die Laute der Aussprache waren fast schon zu kurz, um sie wirklich aufzunehmen. Sonst alles in Ordnung.","0","1","0","null","","","<img src = 'category1/CS1.png' width = '100%;'>","null","","","","","","","","","",""
"","html-keyboard-response","221","855470","0.0-10.0-2.20","k2j77sq8d0","many_one","0","direct_first","1","ng06us16","0","23","1","1","3","1","Die Laute der Aussprache waren fast schon zu kurz, um sie wirklich aufzunehmen. Sonst alles in Ordnung.","0","1","0","null","","","<img src = 'targets/12.png' width = '100%;'>","null","","","","","","","","","",""
"","html-keyboard-response","222","857248","0.0-10.0-3.20","k2j77sq8d0","many_one","0","direct_first","1","ng06us16","0","23","1","1","3","1","Die Laute der Aussprache waren fast schon zu kurz, um sie wirklich aufzunehmen. Sonst alles in Ordnung.","0","1","0","1776.1250000912696","","","<img src = 'targets/mask.png' width = '100%;'>","75","pos","CS","CS","1","category1/CS1.png","","targets/12.png","indirect","1","20"
"","html-keyboard-response","223","858775","0.0-10.0-0.21","k2j77sq8d0","many_one","0","direct_first","1","ng06us16","0","23","1","1","3","1","Die Laute der Aussprache waren fast schon zu kurz, um sie wirklich aufzunehmen. Sonst alles in Ordnung.","0","1","0","null","","","<div style=""font-size:60px;"">+</div>","null","","","","","","","","","",""
"","html-keyboard-response","224","858866","0.0-10.0-1.21","k2j77sq8d0","many_one","0","direct_first","1","ng06us16","0","23","1","1","3","1","Die Laute der Aussprache waren fast schon zu kurz, um sie wirklich aufzunehmen. Sonst alles in Ordnung.","0","1","0","null","","","<img src = 'category3/CS7.png' width = '100%;'>","null","","","","","","","","","",""
"","html-keyboard-response","225","859147","0.0-10.0-2.21","k2j77sq8d0","many_one","0","direct_first","1","ng06us16","0","23","1","1","3","1","Die Laute der Aussprache waren fast schon zu kurz, um sie wirklich aufzunehmen. Sonst alles in Ordnung.","0","1","0","null","","","<img src = 'targets/10.png' width = '100%;'>","null","","","","","","","","","",""
"","html-keyboard-response","226","860275","0.0-10.0-3.21","k2j77sq8d0","many_one","0","direct_first","1","ng06us16","0","23","1","1","3","1","Die Laute der Aussprache waren fast schon zu kurz, um sie wirklich aufzunehmen. Sonst alles in Ordnung.","0","1","0","1124.7499999590218","","","<img src = 'targets/mask.png' width = '100%;'>","75","pos","GS","GSold","3","category3/CS7.png","","targets/10.png","indirect","1","21"
"","html-keyboard-response","227","861788","0.0-10.0-0.22","k2j77sq8d0","many_one","0","direct_first","1","ng06us16","0","23","1","1","3","1","Die Laute der Aussprache waren fast schon zu kurz, um sie wirklich aufzunehmen. Sonst alles in Ordnung.","0","1","0","null","","","<div style=""font-size:60px;"">+</div>","null","","","","","","","","","",""
"","html-keyboard-response","228","861879","0.0-10.0-1.22","k2j77sq8d0","many_one","0","direct_first","1","ng06us16","0","23","1","1","3","1","Die Laute der Aussprache waren fast schon zu kurz, um sie wirklich aufzunehmen. Sonst alles in Ordnung.","0","1","0","null","","","<img src = 'category3/CS5.png' width = '100%;'>","null","","","","","","","","","",""
"","html-keyboard-response","229","862145","0.0-10.0-2.22","k2j77sq8d0","many_one","0","direct_first","1","ng06us16","0","23","1","1","3","1","Die Laute der Aussprache waren fast schon zu kurz, um sie wirklich aufzunehmen. Sonst alles in Ordnung.","0","1","0","null","","","<img src = 'targets/35.png' width = '100%;'>","null","","","","","","","","","",""
"","html-keyboard-response","230","863101","0.0-10.0-3.22","k2j77sq8d0","many_one","0","direct_first","1","ng06us16","0","23","1","1","3","1","Die Laute der Aussprache waren fast schon zu kurz, um sie wirklich aufzunehmen. Sonst alles in Ordnung.","0","1","0","953.5749999340624","","","<img src = 'targets/mask.png' width = '100%;'>","75","pos","CS","CS","3","category3/CS5.png","","targets/35.png","indirect","1","22"
"","html-keyboard-response","231","864619","0.0-10.0-0.23","k2j77sq8d0","many_one","0","direct_first","1","ng06us16","0","23","1","1","3","1","Die Laute der Aussprache waren fast schon zu kurz, um sie wirklich aufzunehmen. Sonst alles in Ordnung.","0","1","0","null","","","<div style=""font-size:60px;"">+</div>","null","","","","","","","","","",""
"","html-keyboard-response","232","864712","0.0-10.0-1.23","k2j77sq8d0","many_one","0","direct_first","1","ng06us16","0","23","1","1","3","1","Die Laute der Aussprache waren fast schon zu kurz, um sie wirklich aufzunehmen. Sonst alles in Ordnung.","0","1","0","null","","","<img src = 'category1/CS2.png' width = '100%;'>","null","","","","","","","","","",""
"","html-keyboard-response","233","864979","0.0-10.0-2.23","k2j77sq8d0","many_one","0","direct_first","1","ng06us16","0","23","1","1","3","1","Die Laute der Aussprache waren fast schon zu kurz, um sie wirklich aufzunehmen. Sonst alles in Ordnung.","0","1","0","null","","","<img src = 'targets/4.png' width = '100%;'>","null","","","","","","","","","",""
"","html-keyboard-response","234","866687","0.0-10.0-3.23","k2j77sq8d0","many_one","0","direct_first","1","ng06us16","0","23","1","1","3","1","Die Laute der Aussprache waren fast schon zu kurz, um sie wirklich aufzunehmen. Sonst alles in Ordnung.","0","1","0","1706.5399999264628","","","<img src = 'targets/mask.png' width = '100%;'>","75","pos","CS","CS","1","category1/CS2.png","","targets/4.png","indirect","1","23"
"","survey-html-form","235","870721","0.0-11.0","k2j77sq8d0","many_one","0","direct_first","1","ng06us16","0","23","1","1","3","1","Die Laute der Aussprache waren fast schon zu kurz, um sie wirklich aufzunehmen. Sonst alles in Ordnung.","0","1","0","3517.839999869466","","{}","","","","","","","","","","","",""
"","html-keyboard-response","236","873732","0.0-12.0-0.0","k2j77sq8d0","many_one","0","direct_first","1","ng06us16","0","23","1","1","3","1","Die Laute der Aussprache waren fast schon zu kurz, um sie wirklich aufzunehmen. Sonst alles in Ordnung.","0","1","0","null","","","<div style=""font-size:60px;"">+</div>","null","","","","","","","","","",""
