"success","trial_type","trial_index","time_elapsed","internal_node_id","subject","condition","condition_code","measure","measure_code","codeword","gender","age","education","chinese","fach","handedness","comment","hinschauen","ablenkung","gewissenhaft","rt","url","responses","stimulus","key_press","val","type","type_specific","category","cs_selected","response","target","task","indirect","nr_pres"
"true","fullscreen","0","5804","0.0-0.0","9k0gvb7jbz","many_one","0","direct_first","1","dt05rt15","0","26","1","1","3","1","","0","1","0","","","","","","","","","","","","","","",""
"","external-html","1","9992","0.0-1.0","9k0gvb7jbz","many_one","0","direct_first","1","dt05rt15","0","26","1","1","3","1","","0","1","0","3996","text/information.html","","","","","","","","","","","","",""
"","external-html","2","24034","0.0-2.0","9k0gvb7jbz","many_one","0","direct_first","1","dt05rt15","0","26","1","1","3","1","","0","1","0","13875","text/consent.html","","","","","","","","","","","","",""
"","survey-html-form","3","64903","0.0-3.0","9k0gvb7jbz","many_one","0","direct_first","1","dt05rt15","0","26","1","1","3","1","","0","1","0","40825","","{""codeword_enter"":""dt05rt15""}","","","","","","","","","","","",""
"","survey-html-form","4","83073","0.0-4.0","9k0gvb7jbz","many_one","0","direct_first","1","dt05rt15","0","26","1","1","3","1","","0","1","0","18138","","{""age"":""26"",""education"":""1"",""subject"":""3"",""gender"":""0"",""handedness"":""1"",""chinese"":""1""}","","","","","","","","","","","",""
"","survey-html-form","5","95633","0.0-5.0","9k0gvb7jbz","many_one","0","direct_first","1","dt05rt15","0","26","1","1","3","1","","0","1","0","12525","","{}","","","","","","","","","","","",""
"","html-keyboard-response","6","99667","0.0-6.0-0.0-0.0","9k0gvb7jbz","many_one","0","direct_first","1","dt05rt15","0","26","1","1","3","1","","0","1","0","null","","","<div class = 'row'><div class = 'column'><img src = 'category4/CS5.png' width = '70%;'></div><div class = 'column'><img src = 'usneg/2205.bmp' width = '100%;'></div></div>","null","neg","CS","CS","4","category4/CS5.png","","","","",""
"","html-keyboard-response","7","102186","0.0-6.0-0.0-0.1","9k0gvb7jbz","many_one","0","direct_first","1","dt05rt15","0","26","1","1","3","1","","0","1","0","null","","","<div class = 'row'><div class = 'column'><img src = 'usneg/9561.bmp' width = '100%;'></div><div class = 'column'><img src = 'category4/CS8.png' width = '70%;'></div></div>","null","neg","CS","CS","4","category4/CS8.png","","","","",""
"","html-keyboard-response","8","104716","0.0-6.0-0.0-0.2","9k0gvb7jbz","many_one","0","direct_first","1","dt05rt15","0","26","1","1","3","1","","0","1","0","null","","","<div class = 'row'><div class = 'column'><img src = 'uspos/4599.bmp' width = '100%;'></div><div class = 'column'><img src = 'category1/CS8.png' width = '70%;'></div></div>","null","pos","CS","CS","1","category1/CS8.png","","","","",""
"","html-keyboard-response","9","107236","0.0-6.0-0.0-0.3","9k0gvb7jbz","many_one","0","direct_first","1","dt05rt15","0","26","1","1","3","1","","0","1","0","null","","","<div class = 'row'><div class = 'column'><img src = 'category1/CS3.png' width = '70%;'></div><div class = 'column'><img src = 'uspos/5600.bmp' width = '100%;'></div></div>","null","pos","CS","CS","1","category1/CS3.png","","","","",""
"","html-keyboard-response","10","109767","0.0-6.0-0.0-0.4","9k0gvb7jbz","many_one","0","direct_first","1","dt05rt15","0","26","1","1","3","1","","0","1","0","null","","","<div class = 'row'><div class = 'column'><img src = 'usneg/9404.bmp' width = '100%;'></div><div class = 'column'><img src = 'category2/CS10.png' width = '70%;'></div></div>","null","neg","CS","CS","2","category2/CS10.png","","","","",""
"","html-keyboard-response","11","112286","0.0-6.0-0.0-0.5","9k0gvb7jbz","many_one","0","direct_first","1","dt05rt15","0","26","1","1","3","1","","0","1","0","null","","","<div class = 'row'><div class = 'column'><img src = 'usneg/3181.bmp' width = '100%;'></div><div class = 'column'><img src = 'category2/CS5.png' width = '70%;'></div></div>","null","neg","CS","CS","2","category2/CS5.png","","","","",""
"","html-keyboard-response","12","114806","0.0-6.0-0.0-0.6","9k0gvb7jbz","many_one","0","direct_first","1","dt05rt15","0","26","1","1","3","1","","0","1","0","null","","","<div class = 'row'><div class = 'column'><img src = 'usneg/9560.bmp' width = '100%;'></div><div class = 'column'><img src = 'category4/CS9.png' width = '70%;'></div></div>","null","neg","CS","CS","4","category4/CS9.png","","","","",""
"","html-keyboard-response","13","117335","0.0-6.0-0.0-0.7","9k0gvb7jbz","many_one","0","direct_first","1","dt05rt15","0","26","1","1","3","1","","0","1","0","null","","","<div class = 'row'><div class = 'column'><img src = 'usneg/2141.bmp' width = '100%;'></div><div class = 'column'><img src = 'category4/CS10.png' width = '70%;'></div></div>","null","neg","CS","CS","4","category4/CS10.png","","","","",""
"","html-keyboard-response","14","119876","0.0-6.0-0.0-0.8","9k0gvb7jbz","many_one","0","direct_first","1","dt05rt15","0","26","1","1","3","1","","0","1","0","null","","","<div class = 'row'><div class = 'column'><img src = 'category3/CS3.png' width = '70%;'></div><div class = 'column'><img src = 'uspos/8540.bmp' width = '100%;'></div></div>","null","pos","CS","CS","3","category3/CS3.png","","","","",""
"","html-keyboard-response","15","122416","0.0-6.0-0.0-0.9","9k0gvb7jbz","many_one","0","direct_first","1","dt05rt15","0","26","1","1","3","1","","0","1","0","null","","","<div class = 'row'><div class = 'column'><img src = 'uspos/5700.bmp' width = '100%;'></div><div class = 'column'><img src = 'category3/CS1.png' width = '70%;'></div></div>","null","pos","CS","CS","3","category3/CS1.png","","","","",""
"","html-keyboard-response","16","124936","0.0-6.0-0.0-0.10","9k0gvb7jbz","many_one","0","direct_first","1","dt05rt15","0","26","1","1","3","1","","0","1","0","null","","","<div class = 'row'><div class = 'column'><img src = 'uspos/2900.2.bmp' width = '100%;'></div><div class = 'column'><img src = 'category3/CS7.png' width = '70%;'></div></div>","null","pos","CS","CS","3","category3/CS7.png","","","","",""
"","html-keyboard-response","17","127465","0.0-6.0-0.0-0.11","9k0gvb7jbz","many_one","0","direct_first","1","dt05rt15","0","26","1","1","3","1","","0","1","0","null","","","<div class = 'row'><div class = 'column'><img src = 'usneg/8485.bmp' width = '100%;'></div><div class = 'column'><img src = 'category2/CS2.png' width = '70%;'></div></div>","null","neg","CS","CS","2","category2/CS2.png","","","","",""
"","html-keyboard-response","18","129996","0.0-6.0-0.0-0.12","9k0gvb7jbz","many_one","0","direct_first","1","dt05rt15","0","26","1","1","3","1","","0","1","0","null","","","<div class = 'row'><div class = 'column'><img src = 'usneg/9415.bmp' width = '100%;'></div><div class = 'column'><img src = 'category2/CS3.png' width = '70%;'></div></div>","null","neg","CS","CS","2","category2/CS3.png","","","","",""
"","html-keyboard-response","19","132526","0.0-6.0-0.0-0.13","9k0gvb7jbz","many_one","0","direct_first","1","dt05rt15","0","26","1","1","3","1","","0","1","0","null","","","<div class = 'row'><div class = 'column'><img src = 'category2/CS8.png' width = '70%;'></div><div class = 'column'><img src = 'usneg/7380.bmp' width = '100%;'></div></div>","null","neg","CS","CS","2","category2/CS8.png","","","","",""
"","html-keyboard-response","20","135046","0.0-6.0-0.0-0.14","9k0gvb7jbz","many_one","0","direct_first","1","dt05rt15","0","26","1","1","3","1","","0","1","0","null","","","<div class = 'row'><div class = 'column'><img src = 'uspos/1340.bmp' width = '100%;'></div><div class = 'column'><img src = 'category1/CS4.png' width = '70%;'></div></div>","null","pos","CS","CS","1","category1/CS4.png","","","","",""
"","html-keyboard-response","21","137576","0.0-6.0-0.0-0.15","9k0gvb7jbz","many_one","0","direct_first","1","dt05rt15","0","26","1","1","3","1","","0","1","0","null","","","<div class = 'row'><div class = 'column'><img src = 'usneg/9330.bmp' width = '100%;'></div><div class = 'column'><img src = 'category4/CS3.png' width = '70%;'></div></div>","null","neg","CS","CS","4","category4/CS3.png","","","","",""
"","html-keyboard-response","22","140116","0.0-6.0-0.0-0.16","9k0gvb7jbz","many_one","0","direct_first","1","dt05rt15","0","26","1","1","3","1","","0","1","0","null","","","<div class = 'row'><div class = 'column'><img src = 'category1/CS2.png' width = '70%;'></div><div class = 'column'><img src = 'uspos/2208.bmp' width = '100%;'></div></div>","null","pos","CS","CS","1","category1/CS2.png","","","","",""
"","html-keyboard-response","23","142646","0.0-6.0-0.0-0.17","9k0gvb7jbz","many_one","0","direct_first","1","dt05rt15","0","26","1","1","3","1","","0","1","0","null","","","<div class = 'row'><div class = 'column'><img src = 'category3/CS8.png' width = '70%;'></div><div class = 'column'><img src = 'uspos/8190.bmp' width = '100%;'></div></div>","null","pos","CS","CS","3","category3/CS8.png","","","","",""
"","html-keyboard-response","24","145176","0.0-6.0-0.0-0.18","9k0gvb7jbz","many_one","0","direct_first","1","dt05rt15","0","26","1","1","3","1","","0","1","0","null","","","<div class = 'row'><div class = 'column'><img src = 'category3/CS9.png' width = '70%;'></div><div class = 'column'><img src = 'uspos/2040.bmp' width = '100%;'></div></div>","null","pos","CS","CS","3","category3/CS9.png","","","","",""
"","html-keyboard-response","25","147697","0.0-6.0-0.0-0.19","9k0gvb7jbz","many_one","0","direct_first","1","dt05rt15","0","26","1","1","3","1","","0","1","0","null","","","<div class = 'row'><div class = 'column'><img src = 'uspos/5760.bmp' width = '100%;'></div><div class = 'column'><img src = 'category1/CS1.png' width = '70%;'></div></div>","null","pos","CS","CS","1","category1/CS1.png","","","","",""
"","survey-html-form","26","153133","0.0-6.0-1.0","9k0gvb7jbz","many_one","0","direct_first","1","dt05rt15","0","26","1","1","3","1","","0","1","0","4916","","{}","","","","","","","","","","","",""
"","html-keyboard-response","27","157156","0.0-6.0-2.0-0.0","9k0gvb7jbz","many_one","0","direct_first","1","dt05rt15","0","26","1","1","3","1","","0","1","0","null","","","<div class = 'row'><div class = 'column'><img src = 'category2/CS8.png' width = '70%;'></div><div class = 'column'><img src = 'usneg/7380.bmp' width = '100%;'></div></div>","null","neg","CS","CS","2","category2/CS8.png","","","","",""
"","html-keyboard-response","28","159676","0.0-6.0-2.0-0.1","9k0gvb7jbz","many_one","0","direct_first","1","dt05rt15","0","26","1","1","3","1","","0","1","0","null","","","<div class = 'row'><div class = 'column'><img src = 'category2/CS3.png' width = '70%;'></div><div class = 'column'><img src = 'usneg/9415.bmp' width = '100%;'></div></div>","null","neg","CS","CS","2","category2/CS3.png","","","","",""
"","html-keyboard-response","29","162205","0.0-6.0-2.0-0.2","9k0gvb7jbz","many_one","0","direct_first","1","dt05rt15","0","26","1","1","3","1","","0","1","0","null","","","<div class = 'row'><div class = 'column'><img src = 'category3/CS8.png' width = '70%;'></div><div class = 'column'><img src = 'uspos/8190.bmp' width = '100%;'></div></div>","null","pos","CS","CS","3","category3/CS8.png","","","","",""
"","html-keyboard-response","30","164746","0.0-6.0-2.0-0.3","9k0gvb7jbz","many_one","0","direct_first","1","dt05rt15","0","26","1","1","3","1","","0","1","0","null","","","<div class = 'row'><div class = 'column'><img src = 'category2/CS10.png' width = '70%;'></div><div class = 'column'><img src = 'usneg/9404.bmp' width = '100%;'></div></div>","null","neg","CS","CS","2","category2/CS10.png","","","","",""
"","html-keyboard-response","31","167285","0.0-6.0-2.0-0.4","9k0gvb7jbz","many_one","0","direct_first","1","dt05rt15","0","26","1","1","3","1","","0","1","0","null","","","<div class = 'row'><div class = 'column'><img src = 'category4/CS3.png' width = '70%;'></div><div class = 'column'><img src = 'usneg/9330.bmp' width = '100%;'></div></div>","null","neg","CS","CS","4","category4/CS3.png","","","","",""
"","html-keyboard-response","32","169826","0.0-6.0-2.0-0.5","9k0gvb7jbz","many_one","0","direct_first","1","dt05rt15","0","26","1","1","3","1","","0","1","0","null","","","<div class = 'row'><div class = 'column'><img src = 'category3/CS7.png' width = '70%;'></div><div class = 'column'><img src = 'uspos/2900.2.bmp' width = '100%;'></div></div>","null","pos","CS","CS","3","category3/CS7.png","","","","",""
"","html-keyboard-response","33","172355","0.0-6.0-2.0-0.6","9k0gvb7jbz","many_one","0","direct_first","1","dt05rt15","0","26","1","1","3","1","","0","1","0","null","","","<div class = 'row'><div class = 'column'><img src = 'category3/CS1.png' width = '70%;'></div><div class = 'column'><img src = 'uspos/5700.bmp' width = '100%;'></div></div>","null","pos","CS","CS","3","category3/CS1.png","","","","",""
"","html-keyboard-response","34","174876","0.0-6.0-2.0-0.7","9k0gvb7jbz","many_one","0","direct_first","1","dt05rt15","0","26","1","1","3","1","","0","1","0","null","","","<div class = 'row'><div class = 'column'><img src = 'uspos/2040.bmp' width = '100%;'></div><div class = 'column'><img src = 'category3/CS9.png' width = '70%;'></div></div>","null","pos","CS","CS","3","category3/CS9.png","","","","",""
"","html-keyboard-response","35","177405","0.0-6.0-2.0-0.8","9k0gvb7jbz","many_one","0","direct_first","1","dt05rt15","0","26","1","1","3","1","","0","1","0","null","","","<div class = 'row'><div class = 'column'><img src = 'category4/CS9.png' width = '70%;'></div><div class = 'column'><img src = 'usneg/9560.bmp' width = '100%;'></div></div>","null","neg","CS","CS","4","category4/CS9.png","","","","",""
"","html-keyboard-response","36","179945","0.0-6.0-2.0-0.9","9k0gvb7jbz","many_one","0","direct_first","1","dt05rt15","0","26","1","1","3","1","","0","1","0","null","","","<div class = 'row'><div class = 'column'><img src = 'usneg/2141.bmp' width = '100%;'></div><div class = 'column'><img src = 'category4/CS10.png' width = '70%;'></div></div>","null","neg","CS","CS","4","category4/CS10.png","","","","",""
"","html-keyboard-response","37","182466","0.0-6.0-2.0-0.10","9k0gvb7jbz","many_one","0","direct_first","1","dt05rt15","0","26","1","1","3","1","","0","1","0","null","","","<div class = 'row'><div class = 'column'><img src = 'category1/CS1.png' width = '70%;'></div><div class = 'column'><img src = 'uspos/5760.bmp' width = '100%;'></div></div>","null","pos","CS","CS","1","category1/CS1.png","","","","",""
"","html-keyboard-response","38","184995","0.0-6.0-2.0-0.11","9k0gvb7jbz","many_one","0","direct_first","1","dt05rt15","0","26","1","1","3","1","","0","1","0","null","","","<div class = 'row'><div class = 'column'><img src = 'usneg/9561.bmp' width = '100%;'></div><div class = 'column'><img src = 'category4/CS8.png' width = '70%;'></div></div>","null","neg","CS","CS","4","category4/CS8.png","","","","",""
"","html-keyboard-response","39","187525","0.0-6.0-2.0-0.12","9k0gvb7jbz","many_one","0","direct_first","1","dt05rt15","0","26","1","1","3","1","","0","1","0","null","","","<div class = 'row'><div class = 'column'><img src = 'uspos/4599.bmp' width = '100%;'></div><div class = 'column'><img src = 'category1/CS8.png' width = '70%;'></div></div>","null","pos","CS","CS","1","category1/CS8.png","","","","",""
"","html-keyboard-response","40","190065","0.0-6.0-2.0-0.13","9k0gvb7jbz","many_one","0","direct_first","1","dt05rt15","0","26","1","1","3","1","","0","1","0","null","","","<div class = 'row'><div class = 'column'><img src = 'usneg/8485.bmp' width = '100%;'></div><div class = 'column'><img src = 'category2/CS2.png' width = '70%;'></div></div>","null","neg","CS","CS","2","category2/CS2.png","","","","",""
"","html-keyboard-response","41","192596","0.0-6.0-2.0-0.14","9k0gvb7jbz","many_one","0","direct_first","1","dt05rt15","0","26","1","1","3","1","","0","1","0","null","","","<div class = 'row'><div class = 'column'><img src = 'category1/CS2.png' width = '70%;'></div><div class = 'column'><img src = 'uspos/2208.bmp' width = '100%;'></div></div>","null","pos","CS","CS","1","category1/CS2.png","","","","",""
"","html-keyboard-response","42","195126","0.0-6.0-2.0-0.15","9k0gvb7jbz","many_one","0","direct_first","1","dt05rt15","0","26","1","1","3","1","","0","1","0","null","","","<div class = 'row'><div class = 'column'><img src = 'category4/CS5.png' width = '70%;'></div><div class = 'column'><img src = 'usneg/2205.bmp' width = '100%;'></div></div>","null","neg","CS","CS","4","category4/CS5.png","","","","",""
"","html-keyboard-response","43","197645","0.0-6.0-2.0-0.16","9k0gvb7jbz","many_one","0","direct_first","1","dt05rt15","0","26","1","1","3","1","","0","1","0","null","","","<div class = 'row'><div class = 'column'><img src = 'category2/CS5.png' width = '70%;'></div><div class = 'column'><img src = 'usneg/3181.bmp' width = '100%;'></div></div>","null","neg","CS","CS","2","category2/CS5.png","","","","",""
"","html-keyboard-response","44","200175","0.0-6.0-2.0-0.17","9k0gvb7jbz","many_one","0","direct_first","1","dt05rt15","0","26","1","1","3","1","","0","1","0","null","","","<div class = 'row'><div class = 'column'><img src = 'uspos/5600.bmp' width = '100%;'></div><div class = 'column'><img src = 'category1/CS3.png' width = '70%;'></div></div>","null","pos","CS","CS","1","category1/CS3.png","","","","",""
"","html-keyboard-response","45","202714","0.0-6.0-2.0-0.18","9k0gvb7jbz","many_one","0","direct_first","1","dt05rt15","0","26","1","1","3","1","","0","1","0","null","","","<div class = 'row'><div class = 'column'><img src = 'category1/CS4.png' width = '70%;'></div><div class = 'column'><img src = 'uspos/1340.bmp' width = '100%;'></div></div>","null","pos","CS","CS","1","category1/CS4.png","","","","",""
"","html-keyboard-response","46","205246","0.0-6.0-2.0-0.19","9k0gvb7jbz","many_one","0","direct_first","1","dt05rt15","0","26","1","1","3","1","","0","1","0","null","","","<div class = 'row'><div class = 'column'><img src = 'category3/CS3.png' width = '70%;'></div><div class = 'column'><img src = 'uspos/8540.bmp' width = '100%;'></div></div>","null","pos","CS","CS","3","category3/CS3.png","","","","",""
"","survey-html-form","47","216926","0.0-6.0-3.0","9k0gvb7jbz","many_one","0","direct_first","1","dt05rt15","0","26","1","1","3","1","","0","1","0","11165","","{}","","","","","","","","","","","",""
"","html-keyboard-response","48","220946","0.0-6.0-4.0-0.0","9k0gvb7jbz","many_one","0","direct_first","1","dt05rt15","0","26","1","1","3","1","","0","1","0","null","","","<div class = 'row'><div class = 'column'><img src = 'category2/CS10.png' width = '70%;'></div><div class = 'column'><img src = 'usneg/9404.bmp' width = '100%;'></div></div>","null","neg","CS","CS","2","category2/CS10.png","","","","",""
"","html-keyboard-response","49","223486","0.0-6.0-4.0-0.1","9k0gvb7jbz","many_one","0","direct_first","1","dt05rt15","0","26","1","1","3","1","","0","1","0","null","","","<div class = 'row'><div class = 'column'><img src = 'uspos/5700.bmp' width = '100%;'></div><div class = 'column'><img src = 'category3/CS1.png' width = '70%;'></div></div>","null","pos","CS","CS","3","category3/CS1.png","","","","",""
"","html-keyboard-response","50","226006","0.0-6.0-4.0-0.2","9k0gvb7jbz","many_one","0","direct_first","1","dt05rt15","0","26","1","1","3","1","","0","1","0","null","","","<div class = 'row'><div class = 'column'><img src = 'usneg/9561.bmp' width = '100%;'></div><div class = 'column'><img src = 'category4/CS8.png' width = '70%;'></div></div>","null","neg","CS","CS","4","category4/CS8.png","","","","",""
"","html-keyboard-response","51","228520","0.0-6.0-4.0-0.3","9k0gvb7jbz","many_one","0","direct_first","1","dt05rt15","0","26","1","1","3","1","","0","1","0","null","","","<div class = 'row'><div class = 'column'><img src = 'category2/CS2.png' width = '70%;'></div><div class = 'column'><img src = 'usneg/8485.bmp' width = '100%;'></div></div>","null","neg","CS","CS","2","category2/CS2.png","","","","",""
"","html-keyboard-response","52","231046","0.0-6.0-4.0-0.4","9k0gvb7jbz","many_one","0","direct_first","1","dt05rt15","0","26","1","1","3","1","","0","1","0","null","","","<div class = 'row'><div class = 'column'><img src = 'uspos/1340.bmp' width = '100%;'></div><div class = 'column'><img src = 'category1/CS4.png' width = '70%;'></div></div>","null","pos","CS","CS","1","category1/CS4.png","","","","",""
"","html-keyboard-response","53","233577","0.0-6.0-4.0-0.5","9k0gvb7jbz","many_one","0","direct_first","1","dt05rt15","0","26","1","1","3","1","","0","1","0","null","","","<div class = 'row'><div class = 'column'><img src = 'category3/CS9.png' width = '70%;'></div><div class = 'column'><img src = 'uspos/2040.bmp' width = '100%;'></div></div>","null","pos","CS","CS","3","category3/CS9.png","","","","",""
"","html-keyboard-response","54","236116","0.0-6.0-4.0-0.6","9k0gvb7jbz","many_one","0","direct_first","1","dt05rt15","0","26","1","1","3","1","","0","1","0","null","","","<div class = 'row'><div class = 'column'><img src = 'usneg/9560.bmp' width = '100%;'></div><div class = 'column'><img src = 'category4/CS9.png' width = '70%;'></div></div>","null","neg","CS","CS","4","category4/CS9.png","","","","",""
"","html-keyboard-response","55","238636","0.0-6.0-4.0-0.7","9k0gvb7jbz","many_one","0","direct_first","1","dt05rt15","0","26","1","1","3","1","","0","1","0","null","","","<div class = 'row'><div class = 'column'><img src = 'uspos/5760.bmp' width = '100%;'></div><div class = 'column'><img src = 'category1/CS1.png' width = '70%;'></div></div>","null","pos","CS","CS","1","category1/CS1.png","","","","",""
"","html-keyboard-response","56","241174","0.0-6.0-4.0-0.8","9k0gvb7jbz","many_one","0","direct_first","1","dt05rt15","0","26","1","1","3","1","","0","1","0","null","","","<div class = 'row'><div class = 'column'><img src = 'category4/CS3.png' width = '70%;'></div><div class = 'column'><img src = 'usneg/9330.bmp' width = '100%;'></div></div>","null","neg","CS","CS","4","category4/CS3.png","","","","",""
"","html-keyboard-response","57","243706","0.0-6.0-4.0-0.9","9k0gvb7jbz","many_one","0","direct_first","1","dt05rt15","0","26","1","1","3","1","","0","1","0","null","","","<div class = 'row'><div class = 'column'><img src = 'category2/CS5.png' width = '70%;'></div><div class = 'column'><img src = 'usneg/3181.bmp' width = '100%;'></div></div>","null","neg","CS","CS","2","category2/CS5.png","","","","",""
"","html-keyboard-response","58","246245","0.0-6.0-4.0-0.10","9k0gvb7jbz","many_one","0","direct_first","1","dt05rt15","0","26","1","1","3","1","","0","1","0","null","","","<div class = 'row'><div class = 'column'><img src = 'uspos/8540.bmp' width = '100%;'></div><div class = 'column'><img src = 'category3/CS3.png' width = '70%;'></div></div>","null","pos","CS","CS","3","category3/CS3.png","","","","",""
"","html-keyboard-response","59","248765","0.0-6.0-4.0-0.11","9k0gvb7jbz","many_one","0","direct_first","1","dt05rt15","0","26","1","1","3","1","","0","1","0","null","","","<div class = 'row'><div class = 'column'><img src = 'category1/CS2.png' width = '70%;'></div><div class = 'column'><img src = 'uspos/2208.bmp' width = '100%;'></div></div>","null","pos","CS","CS","1","category1/CS2.png","","","","",""
"","html-keyboard-response","60","251305","0.0-6.0-4.0-0.12","9k0gvb7jbz","many_one","0","direct_first","1","dt05rt15","0","26","1","1","3","1","","0","1","0","null","","","<div class = 'row'><div class = 'column'><img src = 'usneg/7380.bmp' width = '100%;'></div><div class = 'column'><img src = 'category2/CS8.png' width = '70%;'></div></div>","null","neg","CS","CS","2","category2/CS8.png","","","","",""
"","html-keyboard-response","61","253836","0.0-6.0-4.0-0.13","9k0gvb7jbz","many_one","0","direct_first","1","dt05rt15","0","26","1","1","3","1","","0","1","0","null","","","<div class = 'row'><div class = 'column'><img src = 'category1/CS3.png' width = '70%;'></div><div class = 'column'><img src = 'uspos/5600.bmp' width = '100%;'></div></div>","null","pos","CS","CS","1","category1/CS3.png","","","","",""
"","html-keyboard-response","62","256366","0.0-6.0-4.0-0.14","9k0gvb7jbz","many_one","0","direct_first","1","dt05rt15","0","26","1","1","3","1","","0","1","0","null","","","<div class = 'row'><div class = 'column'><img src = 'uspos/8190.bmp' width = '100%;'></div><div class = 'column'><img src = 'category3/CS8.png' width = '70%;'></div></div>","null","pos","CS","CS","3","category3/CS8.png","","","","",""
"","html-keyboard-response","63","258906","0.0-6.0-4.0-0.15","9k0gvb7jbz","many_one","0","direct_first","1","dt05rt15","0","26","1","1","3","1","","0","1","0","null","","","<div class = 'row'><div class = 'column'><img src = 'category4/CS5.png' width = '70%;'></div><div class = 'column'><img src = 'usneg/2205.bmp' width = '100%;'></div></div>","null","neg","CS","CS","4","category4/CS5.png","","","","",""
"","html-keyboard-response","64","261446","0.0-6.0-4.0-0.16","9k0gvb7jbz","many_one","0","direct_first","1","dt05rt15","0","26","1","1","3","1","","0","1","0","null","","","<div class = 'row'><div class = 'column'><img src = 'usneg/9415.bmp' width = '100%;'></div><div class = 'column'><img src = 'category2/CS3.png' width = '70%;'></div></div>","null","neg","CS","CS","2","category2/CS3.png","","","","",""
"","html-keyboard-response","65","263976","0.0-6.0-4.0-0.17","9k0gvb7jbz","many_one","0","direct_first","1","dt05rt15","0","26","1","1","3","1","","0","1","0","null","","","<div class = 'row'><div class = 'column'><img src = 'category4/CS10.png' width = '70%;'></div><div class = 'column'><img src = 'usneg/2141.bmp' width = '100%;'></div></div>","null","neg","CS","CS","4","category4/CS10.png","","","","",""
"","html-keyboard-response","66","266496","0.0-6.0-4.0-0.18","9k0gvb7jbz","many_one","0","direct_first","1","dt05rt15","0","26","1","1","3","1","","0","1","0","null","","","<div class = 'row'><div class = 'column'><img src = 'uspos/2900.2.bmp' width = '100%;'></div><div class = 'column'><img src = 'category3/CS7.png' width = '70%;'></div></div>","null","pos","CS","CS","3","category3/CS7.png","","","","",""
"","html-keyboard-response","67","269008","0.0-6.0-4.0-0.19","9k0gvb7jbz","many_one","0","direct_first","1","dt05rt15","0","26","1","1","3","1","","0","1","0","null","","","<div class = 'row'><div class = 'column'><img src = 'category1/CS8.png' width = '70%;'></div><div class = 'column'><img src = 'uspos/4599.bmp' width = '100%;'></div></div>","null","pos","CS","CS","1","category1/CS8.png","","","","",""
"","survey-html-form","68","290766","0.0-6.0-5.0","9k0gvb7jbz","many_one","0","direct_first","1","dt05rt15","0","26","1","1","3","1","","0","1","0","21245","","{}","","","","","","","","","","","",""
"","html-keyboard-response","69","294796","0.0-6.0-6.0-0.0","9k0gvb7jbz","many_one","0","direct_first","1","dt05rt15","0","26","1","1","3","1","","0","1","0","null","","","<div class = 'row'><div class = 'column'><img src = 'usneg/2141.bmp' width = '100%;'></div><div class = 'column'><img src = 'category4/CS10.png' width = '70%;'></div></div>","null","neg","CS","CS","4","category4/CS10.png","","","","",""
"","html-keyboard-response","70","297325","0.0-6.0-6.0-0.1","9k0gvb7jbz","many_one","0","direct_first","1","dt05rt15","0","26","1","1","3","1","","0","1","0","null","","","<div class = 'row'><div class = 'column'><img src = 'category3/CS9.png' width = '70%;'></div><div class = 'column'><img src = 'uspos/2040.bmp' width = '100%;'></div></div>","null","pos","CS","CS","3","category3/CS9.png","","","","",""
"","html-keyboard-response","71","299845","0.0-6.0-6.0-0.2","9k0gvb7jbz","many_one","0","direct_first","1","dt05rt15","0","26","1","1","3","1","","0","1","0","null","","","<div class = 'row'><div class = 'column'><img src = 'usneg/8485.bmp' width = '100%;'></div><div class = 'column'><img src = 'category2/CS2.png' width = '70%;'></div></div>","null","neg","CS","CS","2","category2/CS2.png","","","","",""
"","html-keyboard-response","72","302376","0.0-6.0-6.0-0.3","9k0gvb7jbz","many_one","0","direct_first","1","dt05rt15","0","26","1","1","3","1","","0","1","0","null","","","<div class = 'row'><div class = 'column'><img src = 'category3/CS3.png' width = '70%;'></div><div class = 'column'><img src = 'uspos/8540.bmp' width = '100%;'></div></div>","null","pos","CS","CS","3","category3/CS3.png","","","","",""
"","html-keyboard-response","73","304895","0.0-6.0-6.0-0.4","9k0gvb7jbz","many_one","0","direct_first","1","dt05rt15","0","26","1","1","3","1","","0","1","0","null","","","<div class = 'row'><div class = 'column'><img src = 'usneg/2205.bmp' width = '100%;'></div><div class = 'column'><img src = 'category4/CS5.png' width = '70%;'></div></div>","null","neg","CS","CS","4","category4/CS5.png","","","","",""
"","html-keyboard-response","74","307415","0.0-6.0-6.0-0.5","9k0gvb7jbz","many_one","0","direct_first","1","dt05rt15","0","26","1","1","3","1","","0","1","0","null","","","<div class = 'row'><div class = 'column'><img src = 'uspos/5600.bmp' width = '100%;'></div><div class = 'column'><img src = 'category1/CS3.png' width = '70%;'></div></div>","null","pos","CS","CS","1","category1/CS3.png","","","","",""
"","html-keyboard-response","75","309945","0.0-6.0-6.0-0.6","9k0gvb7jbz","many_one","0","direct_first","1","dt05rt15","0","26","1","1","3","1","","0","1","0","null","","","<div class = 'row'><div class = 'column'><img src = 'category3/CS1.png' width = '70%;'></div><div class = 'column'><img src = 'uspos/5700.bmp' width = '100%;'></div></div>","null","pos","CS","CS","3","category3/CS1.png","","","","",""
"","html-keyboard-response","76","312476","0.0-6.0-6.0-0.7","9k0gvb7jbz","many_one","0","direct_first","1","dt05rt15","0","26","1","1","3","1","","0","1","0","null","","","<div class = 'row'><div class = 'column'><img src = 'category4/CS8.png' width = '70%;'></div><div class = 'column'><img src = 'usneg/9561.bmp' width = '100%;'></div></div>","null","neg","CS","CS","4","category4/CS8.png","","","","",""
"","html-keyboard-response","77","314996","0.0-6.0-6.0-0.8","9k0gvb7jbz","many_one","0","direct_first","1","dt05rt15","0","26","1","1","3","1","","0","1","0","null","","","<div class = 'row'><div class = 'column'><img src = 'category3/CS7.png' width = '70%;'></div><div class = 'column'><img src = 'uspos/2900.2.bmp' width = '100%;'></div></div>","null","pos","CS","CS","3","category3/CS7.png","","","","",""
"","html-keyboard-response","78","317535","0.0-6.0-6.0-0.9","9k0gvb7jbz","many_one","0","direct_first","1","dt05rt15","0","26","1","1","3","1","","0","1","0","null","","","<div class = 'row'><div class = 'column'><img src = 'category2/CS3.png' width = '70%;'></div><div class = 'column'><img src = 'usneg/9415.bmp' width = '100%;'></div></div>","null","neg","CS","CS","2","category2/CS3.png","","","","",""
"","html-keyboard-response","79","320076","0.0-6.0-6.0-0.10","9k0gvb7jbz","many_one","0","direct_first","1","dt05rt15","0","26","1","1","3","1","","0","1","0","null","","","<div class = 'row'><div class = 'column'><img src = 'category4/CS3.png' width = '70%;'></div><div class = 'column'><img src = 'usneg/9330.bmp' width = '100%;'></div></div>","null","neg","CS","CS","4","category4/CS3.png","","","","",""
"","html-keyboard-response","80","322616","0.0-6.0-6.0-0.11","9k0gvb7jbz","many_one","0","direct_first","1","dt05rt15","0","26","1","1","3","1","","0","1","0","null","","","<div class = 'row'><div class = 'column'><img src = 'uspos/2208.bmp' width = '100%;'></div><div class = 'column'><img src = 'category1/CS2.png' width = '70%;'></div></div>","null","pos","CS","CS","1","category1/CS2.png","","","","",""
"","html-keyboard-response","81","325145","0.0-6.0-6.0-0.12","9k0gvb7jbz","many_one","0","direct_first","1","dt05rt15","0","26","1","1","3","1","","0","1","0","null","","","<div class = 'row'><div class = 'column'><img src = 'category1/CS4.png' width = '70%;'></div><div class = 'column'><img src = 'uspos/1340.bmp' width = '100%;'></div></div>","null","pos","CS","CS","1","category1/CS4.png","","","","",""
"","html-keyboard-response","82","327656","0.0-6.0-6.0-0.13","9k0gvb7jbz","many_one","0","direct_first","1","dt05rt15","0","26","1","1","3","1","","0","1","0","null","","","<div class = 'row'><div class = 'column'><img src = 'category2/CS10.png' width = '70%;'></div><div class = 'column'><img src = 'usneg/9404.bmp' width = '100%;'></div></div>","null","neg","CS","CS","2","category2/CS10.png","","","","",""
"","html-keyboard-response","83","330176","0.0-6.0-6.0-0.14","9k0gvb7jbz","many_one","0","direct_first","1","dt05rt15","0","26","1","1","3","1","","0","1","0","null","","","<div class = 'row'><div class = 'column'><img src = 'uspos/8190.bmp' width = '100%;'></div><div class = 'column'><img src = 'category3/CS8.png' width = '70%;'></div></div>","null","pos","CS","CS","3","category3/CS8.png","","","","",""
"","html-keyboard-response","84","332695","0.0-6.0-6.0-0.15","9k0gvb7jbz","many_one","0","direct_first","1","dt05rt15","0","26","1","1","3","1","","0","1","0","null","","","<div class = 'row'><div class = 'column'><img src = 'category1/CS1.png' width = '70%;'></div><div class = 'column'><img src = 'uspos/5760.bmp' width = '100%;'></div></div>","null","pos","CS","CS","1","category1/CS1.png","","","","",""
"","html-keyboard-response","85","335225","0.0-6.0-6.0-0.16","9k0gvb7jbz","many_one","0","direct_first","1","dt05rt15","0","26","1","1","3","1","","0","1","0","null","","","<div class = 'row'><div class = 'column'><img src = 'usneg/3181.bmp' width = '100%;'></div><div class = 'column'><img src = 'category2/CS5.png' width = '70%;'></div></div>","null","neg","CS","CS","2","category2/CS5.png","","","","",""
"","html-keyboard-response","86","337756","0.0-6.0-6.0-0.17","9k0gvb7jbz","many_one","0","direct_first","1","dt05rt15","0","26","1","1","3","1","","0","1","0","null","","","<div class = 'row'><div class = 'column'><img src = 'category4/CS9.png' width = '70%;'></div><div class = 'column'><img src = 'usneg/9560.bmp' width = '100%;'></div></div>","null","neg","CS","CS","4","category4/CS9.png","","","","",""
"","html-keyboard-response","87","340296","0.0-6.0-6.0-0.18","9k0gvb7jbz","many_one","0","direct_first","1","dt05rt15","0","26","1","1","3","1","","0","1","0","null","","","<div class = 'row'><div class = 'column'><img src = 'category1/CS8.png' width = '70%;'></div><div class = 'column'><img src = 'uspos/4599.bmp' width = '100%;'></div></div>","null","pos","CS","CS","1","category1/CS8.png","","","","",""
"","html-keyboard-response","88","342826","0.0-6.0-6.0-0.19","9k0gvb7jbz","many_one","0","direct_first","1","dt05rt15","0","26","1","1","3","1","","0","1","0","null","","","<div class = 'row'><div class = 'column'><img src = 'category2/CS8.png' width = '70%;'></div><div class = 'column'><img src = 'usneg/7380.bmp' width = '100%;'></div></div>","null","neg","CS","CS","2","category2/CS8.png","","","","",""
"","survey-html-form","89","355093","0.0-7.0","9k0gvb7jbz","many_one","0","direct_first","1","dt05rt15","0","26","1","1","3","1","","0","1","0","11747","","{}","","","","","","","","","","","",""
"","image-slider-response","90","364650","0.0-8.0-0.0","9k0gvb7jbz","many_one","0","direct_first","1","dt05rt15","0","26","1","1","3","1","","0","1","0","7499","","","","","neg","CS","CS","4","category4/CS9.png","-25","targets/47.png","direct","",""
"","image-slider-response","91","371439","0.0-8.0-0.1","9k0gvb7jbz","many_one","0","direct_first","1","dt05rt15","0","26","1","1","3","1","","0","1","0","6780","","","","","pos","GS","abstract","1","category1/ma.png","21","targets/33.png","direct","",""
"","image-slider-response","92","377688","0.0-8.0-0.2","9k0gvb7jbz","many_one","0","direct_first","1","dt05rt15","0","26","1","1","3","1","","0","1","0","6239","","","","","neg","CS","CS","2","category2/CS5.png","-48","targets/8.png","direct","",""
"","image-slider-response","93","383279","0.0-8.0-0.3","9k0gvb7jbz","many_one","0","direct_first","1","dt05rt15","0","26","1","1","3","1","","0","1","0","5582","","","","","neg","GS","GSold","4","category4/CS6.png","-20","targets/9.png","direct","",""
"","image-slider-response","94","388452","0.0-8.0-0.4","9k0gvb7jbz","many_one","0","direct_first","1","dt05rt15","0","26","1","1","3","1","","0","1","0","5167","","","","","pos","GS","GSnew","1","category1/GS3.png","20","targets/42.png","direct","",""
"","image-slider-response","95","393684","0.0-8.0-0.5","9k0gvb7jbz","many_one","0","direct_first","1","dt05rt15","0","26","1","1","3","1","","0","1","0","5223","","","","","pos","GS","GSold","1","category1/CS6.png","-4","targets/21.png","direct","",""
"","image-slider-response","96","397949","0.0-8.0-0.6","9k0gvb7jbz","many_one","0","direct_first","1","dt05rt15","0","26","1","1","3","1","","0","1","0","4258","","","","","pos","CS","CS","3","category3/CS7.png","46","targets/32.png","direct","",""
"","image-slider-response","97","404242","0.0-8.0-0.7","9k0gvb7jbz","many_one","0","direct_first","1","dt05rt15","0","26","1","1","3","1","","0","1","0","6280","","","","","pos","GS","GSnew","3","category3/GS2.png","-56","targets/4.png","direct","",""
"","image-slider-response","98","408281","0.0-8.0-0.8","9k0gvb7jbz","many_one","0","direct_first","1","dt05rt15","0","26","1","1","3","1","","0","1","0","4029","","","","","pos","GS","GSold","3","category3/CS10.png","-33","targets/44.png","direct","",""
"","image-slider-response","99","411432","0.0-8.0-0.9","9k0gvb7jbz","many_one","0","direct_first","1","dt05rt15","0","26","1","1","3","1","","0","1","0","3142","","","","","pos","GS","GSnew","1","category1/GS1.png","-44","targets/16.png","direct","",""
"","image-slider-response","100","414889","0.0-8.0-0.10","9k0gvb7jbz","many_one","0","direct_first","1","dt05rt15","0","26","1","1","3","1","","0","1","0","3449","","","","","pos","CS","CS","3","category3/CS8.png","18","targets/45.png","direct","",""
"","image-slider-response","101","417959","0.0-8.0-0.11","9k0gvb7jbz","many_one","0","direct_first","1","dt05rt15","0","26","1","1","3","1","","0","1","0","3062","","","","","pos","GS","GSold","1","category1/CS5.png","-18","targets/20.png","direct","",""
"","image-slider-response","102","421791","0.0-8.0-0.12","9k0gvb7jbz","many_one","0","direct_first","1","dt05rt15","0","26","1","1","3","1","","0","1","0","3823","","","","","pos","GS","GSold","3","category3/CS5.png","-36","targets/13.png","direct","",""
"","image-slider-response","103","425741","0.0-8.0-0.13","9k0gvb7jbz","many_one","0","direct_first","1","dt05rt15","0","26","1","1","3","1","","0","1","0","3940","","","","","pos","CS","CS","1","category1/CS2.png","24","targets/41.png","direct","",""
"","image-slider-response","104","432033","0.0-8.0-0.14","9k0gvb7jbz","many_one","0","direct_first","1","dt05rt15","0","26","1","1","3","1","","0","1","0","6284","","","","","neg","GS","GSnew","2","category2/GS1.png","23","targets/28.png","direct","",""
"","image-slider-response","105","435675","0.0-8.0-0.15","9k0gvb7jbz","many_one","0","direct_first","1","dt05rt15","0","26","1","1","3","1","","0","1","0","3635","","","","","neg","CS","CS","2","category2/CS2.png","-63","targets/34.png","direct","",""
"","image-slider-response","106","441244","0.0-8.0-0.16","9k0gvb7jbz","many_one","0","direct_first","1","dt05rt15","0","26","1","1","3","1","","0","1","0","5558","","","","","pos","GS","abstract","3","category3/wang.png","18","targets/39.png","direct","",""
"","image-slider-response","107","443617","0.0-8.0-0.17","9k0gvb7jbz","many_one","0","direct_first","1","dt05rt15","0","26","1","1","3","1","","0","1","0","2364","","","","","pos","GS","GSnew","1","category1/GS2.png","-20","targets/17.png","direct","",""
"","image-slider-response","108","446891","0.0-8.0-0.18","9k0gvb7jbz","many_one","0","direct_first","1","dt05rt15","0","26","1","1","3","1","","0","1","0","3268","","","","","neg","CS","CS","2","category2/CS3.png","-73","targets/3.png","direct","",""
"","image-slider-response","109","453641","0.0-8.0-0.19","9k0gvb7jbz","many_one","0","direct_first","1","dt05rt15","0","26","1","1","3","1","","0","1","0","6741","","","","","neg","GS","GSnew","2","category2/GS2.png","-24","targets/19.png","direct","",""
"","image-slider-response","110","458743","0.0-8.0-0.20","9k0gvb7jbz","many_one","0","direct_first","1","dt05rt15","0","26","1","1","3","1","","0","1","0","5094","","","","","neg","GS","GSnew","2","category2/GS3.png","18","targets/24.png","direct","",""
"","image-slider-response","111","465034","0.0-8.0-0.21","9k0gvb7jbz","many_one","0","direct_first","1","dt05rt15","0","26","1","1","3","1","","0","1","0","6283","","","","","pos","GS","GSnew","3","category3/GS3.png","22","targets/25.png","direct","",""
"","image-slider-response","112","468278","0.0-8.0-0.22","9k0gvb7jbz","many_one","0","direct_first","1","dt05rt15","0","26","1","1","3","1","","0","1","0","3236","","","","","pos","CS","CS","1","category1/CS8.png","31","targets/23.png","direct","",""
"","image-slider-response","113","472191","0.0-8.0-0.23","9k0gvb7jbz","many_one","0","direct_first","1","dt05rt15","0","26","1","1","3","1","","0","1","0","3905","","","","","neg","GS","GSnew","4","category4/GS3.png","21","targets/5.png","direct","",""
"","image-slider-response","114","475492","0.0-8.0-0.24","9k0gvb7jbz","many_one","0","direct_first","1","dt05rt15","0","26","1","1","3","1","","0","1","0","3294","","","","","pos","GS","GSold","3","category3/CS6.png","40","targets/15.png","direct","",""
"","image-slider-response","115","480253","0.0-8.0-0.25","9k0gvb7jbz","many_one","0","direct_first","1","dt05rt15","0","26","1","1","3","1","","0","1","0","4752","","","","","neg","GS","abstract","4","category4/lin.png","-8","targets/2.png","direct","",""
"","image-slider-response","116","484397","0.0-8.0-0.26","9k0gvb7jbz","many_one","0","direct_first","1","dt05rt15","0","26","1","1","3","1","","0","1","0","4138","","","","","pos","CS","CS","3","category3/CS1.png","37","targets/22.png","direct","",""
"","image-slider-response","117","493420","0.0-8.0-0.27","9k0gvb7jbz","many_one","0","direct_first","1","dt05rt15","0","26","1","1","3","1","","0","1","0","9015","","","","","neg","GS","GSold","2","category2/CS4.png","-70","targets/29.png","direct","",""
"","image-slider-response","118","497661","0.0-8.0-0.28","9k0gvb7jbz","many_one","0","direct_first","1","dt05rt15","0","26","1","1","3","1","","0","1","0","4233","","","","","pos","CS","CS","3","category3/CS9.png","48","targets/35.png","direct","",""
"","image-slider-response","119","501110","0.0-8.0-0.29","9k0gvb7jbz","many_one","0","direct_first","1","dt05rt15","0","26","1","1","3","1","","0","1","0","3442","","","","","neg","CS","CS","4","category4/CS3.png","-23","targets/1.png","direct","",""
"","image-slider-response","120","503973","0.0-8.0-0.30","9k0gvb7jbz","many_one","0","direct_first","1","dt05rt15","0","26","1","1","3","1","","0","1","0","2856","","","","","neg","CS","CS","4","category4/CS10.png","-19","targets/27.png","direct","",""
"","image-slider-response","121","506499","0.0-8.0-0.31","9k0gvb7jbz","many_one","0","direct_first","1","dt05rt15","0","26","1","1","3","1","","0","1","0","2518","","","","","neg","GS","GSnew","4","category4/GS1.png","12","targets/43.png","direct","",""
"","image-slider-response","122","511569","0.0-8.0-0.32","9k0gvb7jbz","many_one","0","direct_first","1","dt05rt15","0","26","1","1","3","1","","0","1","0","5063","","","","","pos","GS","GSold","1","category1/CS7.png","11","targets/10.png","direct","",""
"","image-slider-response","123","515230","0.0-8.0-0.33","9k0gvb7jbz","many_one","0","direct_first","1","dt05rt15","0","26","1","1","3","1","","0","1","0","3656","","","","","neg","CS","CS","2","category2/CS10.png","-50","targets/46.png","direct","",""
"","image-slider-response","124","518300","0.0-8.0-0.34","9k0gvb7jbz","many_one","0","direct_first","1","dt05rt15","0","26","1","1","3","1","","0","1","0","3063","","","","","neg","GS","GSold","2","category2/CS7.png","-44","targets/6.png","direct","",""
"","image-slider-response","125","521258","0.0-8.0-0.35","9k0gvb7jbz","many_one","0","direct_first","1","dt05rt15","0","26","1","1","3","1","","0","1","0","2951","","","","","neg","GS","GSnew","4","category4/GS2.png","-20","targets/48.png","direct","",""
"","image-slider-response","126","526499","0.0-8.0-0.36","9k0gvb7jbz","many_one","0","direct_first","1","dt05rt15","0","26","1","1","3","1","","0","1","0","5234","","","","","neg","CS","CS","4","category4/CS5.png","-4","targets/26.png","direct","",""
"","image-slider-response","127","529639","0.0-8.0-0.37","9k0gvb7jbz","many_one","0","direct_first","1","dt05rt15","0","26","1","1","3","1","","0","1","0","3132","","","","","neg","CS","CS","4","category4/CS8.png","-9","targets/7.png","direct","",""
"","image-slider-response","128","534008","0.0-8.0-0.38","9k0gvb7jbz","many_one","0","direct_first","1","dt05rt15","0","26","1","1","3","1","","0","1","0","4361","","","","","neg","GS","abstract","2","category2/men.png","-54","targets/40.png","direct","",""
"","image-slider-response","129","536919","0.0-8.0-0.39","9k0gvb7jbz","many_one","0","direct_first","1","dt05rt15","0","26","1","1","3","1","","0","1","0","2904","","","","","pos","CS","CS","1","category1/CS4.png","23","targets/18.png","direct","",""
"","image-slider-response","130","541190","0.0-8.0-0.40","9k0gvb7jbz","many_one","0","direct_first","1","dt05rt15","0","26","1","1","3","1","","0","1","0","4265","","","","","pos","GS","GSnew","3","category3/GS1.png","-31","targets/37.png","direct","",""
"","image-slider-response","131","547851","0.0-8.0-0.41","9k0gvb7jbz","many_one","0","direct_first","1","dt05rt15","0","26","1","1","3","1","","0","1","0","6655","","","","","pos","CS","CS","1","category1/CS3.png","-3","targets/11.png","direct","",""
"","image-slider-response","132","552268","0.0-8.0-0.42","9k0gvb7jbz","many_one","0","direct_first","1","dt05rt15","0","26","1","1","3","1","","0","1","0","4407","","","","","neg","GS","GSold","2","category2/CS6.png","-30","targets/12.png","direct","",""
"","image-slider-response","133","555410","0.0-8.0-0.43","9k0gvb7jbz","many_one","0","direct_first","1","dt05rt15","0","26","1","1","3","1","","0","1","0","3137","","","","","neg","CS","CS","2","category2/CS8.png","-25","targets/30.png","direct","",""
"","image-slider-response","134","559659","0.0-8.0-0.44","9k0gvb7jbz","many_one","0","direct_first","1","dt05rt15","0","26","1","1","3","1","","0","1","0","4242","","","","","pos","CS","CS","1","category1/CS1.png","-15","targets/14.png","direct","",""
"","image-slider-response","135","562969","0.0-8.0-0.45","9k0gvb7jbz","many_one","0","direct_first","1","dt05rt15","0","26","1","1","3","1","","0","1","0","3303","","","","","neg","GS","GSold","4","category4/CS4.png","-34","targets/31.png","direct","",""
"","image-slider-response","136","566128","0.0-8.0-0.46","9k0gvb7jbz","many_one","0","direct_first","1","dt05rt15","0","26","1","1","3","1","","0","1","0","3154","","","","","neg","GS","GSold","4","category4/CS7.png","-16","targets/38.png","direct","",""
"","image-slider-response","137","569406","0.0-8.0-0.47","9k0gvb7jbz","many_one","0","direct_first","1","dt05rt15","0","26","1","1","3","1","","0","1","0","3270","","","","","pos","CS","CS","3","category3/CS3.png","26","targets/36.png","direct","",""
"","html-keyboard-response","138","606516","0.0-9.0","9k0gvb7jbz","many_one","0","direct_first","1","dt05rt15","0","26","1","1","3","1","","0","1","0","37102","","","<p>Sie sehen nun die chinesischen Zeichen nur ganz kurz. Danach sehen Sie die jeweilige Aussprache der Zeichen als Silbe auf dem Bildschrim. Ihre Aufgabe ist es, für jede Silbe anzugeben, ob diese etwas angenehmes, oder unangenehmes bedeuten könnte. Verlassen Sie sich hier vor allem auf Ihre Intuition.<br><br>Die Zeichen werden nur zur Orientierung dargestellt, beachten Sie sie deshalb nicht. Konzentrieren Sie sich vor allem auf die Silben. <br>Reagieren Sie mit folgenden zwei Tasten: <br><br><b>'D' </b> wenn die Silbe etwas <b>unangenehmes</b> bedeuten könnte. <br><b>'K'</b> wenn die Silbe etwas <b>angenehmes</b> bedeuten könnte. <br><br>Bitte legen Sie nun den Zeigefinger der linken Hand auf die Taste 'D' und den Zeigefinger der rechten Hand auf die Taste 'K'. <br>Reagieren Sie auf jede Silbe so schnell wie möglich. Uns interessiert Ihre spontane Reaktion. <br> <br> <br>Drücken Sie 'D' oder 'K', um die nächste Aufgabe zu starten. </p>","75","","","","","","","","","",""
"","html-keyboard-response","139","609555","0.0-10.0-0.0","9k0gvb7jbz","many_one","0","direct_first","1","dt05rt15","0","26","1","1","3","1","","0","1","0","null","","","<div style=""font-size:60px;"">+</div>","null","","","","","","","","","",""
"","html-keyboard-response","140","609662","0.0-10.0-1.0","9k0gvb7jbz","many_one","0","direct_first","1","dt05rt15","0","26","1","1","3","1","","0","1","0","null","","","<img src = 'category3/CS3.png' width = '100%;'>","null","","","","","","","","","",""
"","html-keyboard-response","141","609928","0.0-10.0-2.0","9k0gvb7jbz","many_one","0","direct_first","1","dt05rt15","0","26","1","1","3","1","","0","1","0","null","","","<img src = 'targets/36.png' width = '100%;'>","null","","","","","","","","","",""
"","html-keyboard-response","142","622773","0.0-10.0-3.0","9k0gvb7jbz","many_one","0","direct_first","1","dt05rt15","0","26","1","1","3","1","","0","1","0","12842","","","<img src = 'targets/mask.png' width = '100%;'>","75","pos","CS","CS","3","category3/CS3.png","","targets/36.png","indirect","1","0"
"","html-keyboard-response","143","624304","0.0-10.0-0.1","9k0gvb7jbz","many_one","0","direct_first","1","dt05rt15","0","26","1","1","3","1","","0","1","0","null","","","<div style=""font-size:60px;"">+</div>","null","","","","","","","","","",""
"","html-keyboard-response","144","624412","0.0-10.0-1.1","9k0gvb7jbz","many_one","0","direct_first","1","dt05rt15","0","26","1","1","3","1","","0","1","0","null","","","<img src = 'category4/CS10.png' width = '100%;'>","null","","","","","","","","","",""
"","html-keyboard-response","145","624676","0.0-10.0-2.1","9k0gvb7jbz","many_one","0","direct_first","1","dt05rt15","0","26","1","1","3","1","","0","1","0","null","","","<img src = 'targets/27.png' width = '100%;'>","null","","","","","","","","","",""
"","html-keyboard-response","146","630984","0.0-10.0-3.1","9k0gvb7jbz","many_one","0","direct_first","1","dt05rt15","0","26","1","1","3","1","","0","1","0","6305","","","<img src = 'targets/mask.png' width = '100%;'>","75","neg","CS","CS","4","category4/CS10.png","","targets/27.png","indirect","1","1"
"","html-keyboard-response","147","632504","0.0-10.0-0.2","9k0gvb7jbz","many_one","0","direct_first","1","dt05rt15","0","26","1","1","3","1","","0","1","0","null","","","<div style=""font-size:60px;"">+</div>","null","","","","","","","","","",""
"","html-keyboard-response","148","632611","0.0-10.0-1.2","9k0gvb7jbz","many_one","0","direct_first","1","dt05rt15","0","26","1","1","3","1","","0","1","0","null","","","<img src = 'category3/CS1.png' width = '100%;'>","null","","","","","","","","","",""
"","html-keyboard-response","149","632877","0.0-10.0-2.2","9k0gvb7jbz","many_one","0","direct_first","1","dt05rt15","0","26","1","1","3","1","","0","1","0","null","","","<img src = 'targets/22.png' width = '100%;'>","null","","","","","","","","","",""
"","html-keyboard-response","150","634094","0.0-10.0-3.2","9k0gvb7jbz","many_one","0","direct_first","1","dt05rt15","0","26","1","1","3","1","","0","1","0","1215","","","<img src = 'targets/mask.png' width = '100%;'>","75","pos","CS","CS","3","category3/CS1.png","","targets/22.png","indirect","1","2"
"","html-keyboard-response","151","635615","0.0-10.0-0.3","9k0gvb7jbz","many_one","0","direct_first","1","dt05rt15","0","26","1","1","3","1","","0","1","0","null","","","<div style=""font-size:60px;"">+</div>","null","","","","","","","","","",""
"","html-keyboard-response","152","635722","0.0-10.0-1.3","9k0gvb7jbz","many_one","0","direct_first","1","dt05rt15","0","26","1","1","3","1","","0","1","0","null","","","<img src = 'category1/CS3.png' width = '100%;'>","null","","","","","","","","","",""
"","html-keyboard-response","153","635987","0.0-10.0-2.3","9k0gvb7jbz","many_one","0","direct_first","1","dt05rt15","0","26","1","1","3","1","","0","1","0","null","","","<img src = 'targets/11.png' width = '100%;'>","null","","","","","","","","","",""
"","html-keyboard-response","154","636653","0.0-10.0-3.3","9k0gvb7jbz","many_one","0","direct_first","1","dt05rt15","0","26","1","1","3","1","","0","1","0","664","","","<img src = 'targets/mask.png' width = '100%;'>","75","pos","CS","CS","1","category1/CS3.png","","targets/11.png","indirect","1","3"
"","html-keyboard-response","155","638175","0.0-10.0-0.4","9k0gvb7jbz","many_one","0","direct_first","1","dt05rt15","0","26","1","1","3","1","","0","1","0","null","","","<div style=""font-size:60px;"">+</div>","null","","","","","","","","","",""
"","html-keyboard-response","156","638281","0.0-10.0-1.4","9k0gvb7jbz","many_one","0","direct_first","1","dt05rt15","0","26","1","1","3","1","","0","1","0","null","","","<img src = 'category3/CS8.png' width = '100%;'>","null","","","","","","","","","",""
"","html-keyboard-response","157","638548","0.0-10.0-2.4","9k0gvb7jbz","many_one","0","direct_first","1","dt05rt15","0","26","1","1","3","1","","0","1","0","null","","","<img src = 'targets/45.png' width = '100%;'>","null","","","","","","","","","",""
"","html-keyboard-response","158","639613","0.0-10.0-3.4","9k0gvb7jbz","many_one","0","direct_first","1","dt05rt15","0","26","1","1","3","1","","0","1","0","1063","","","<img src = 'targets/mask.png' width = '100%;'>","68","pos","CS","CS","3","category3/CS8.png","","targets/45.png","indirect","0","4"
"","html-keyboard-response","159","641125","0.0-10.0-0.5","9k0gvb7jbz","many_one","0","direct_first","1","dt05rt15","0","26","1","1","3","1","","0","1","0","null","","","<div style=""font-size:60px;"">+</div>","null","","","","","","","","","",""
"","html-keyboard-response","160","641232","0.0-10.0-1.5","9k0gvb7jbz","many_one","0","direct_first","1","dt05rt15","0","26","1","1","3","1","","0","1","0","null","","","<img src = 'category4/CS9.png' width = '100%;'>","null","","","","","","","","","",""
"","html-keyboard-response","161","641499","0.0-10.0-2.5","9k0gvb7jbz","many_one","0","direct_first","1","dt05rt15","0","26","1","1","3","1","","0","1","0","null","","","<img src = 'targets/47.png' width = '100%;'>","null","","","","","","","","","",""
"","html-keyboard-response","162","644403","0.0-10.0-3.5","9k0gvb7jbz","many_one","0","direct_first","1","dt05rt15","0","26","1","1","3","1","","0","1","0","2902","","","<img src = 'targets/mask.png' width = '100%;'>","75","neg","CS","CS","4","category4/CS9.png","","targets/47.png","indirect","1","5"
"","html-keyboard-response","163","645915","0.0-10.0-0.6","9k0gvb7jbz","many_one","0","direct_first","1","dt05rt15","0","26","1","1","3","1","","0","1","0","null","","","<div style=""font-size:60px;"">+</div>","null","","","","","","","","","",""
"","html-keyboard-response","164","646022","0.0-10.0-1.6","9k0gvb7jbz","many_one","0","direct_first","1","dt05rt15","0","26","1","1","3","1","","0","1","0","null","","","<img src = 'category2/CS2.png' width = '100%;'>","null","","","","","","","","","",""
"","html-keyboard-response","165","646289","0.0-10.0-2.6","9k0gvb7jbz","many_one","0","direct_first","1","dt05rt15","0","26","1","1","3","1","","0","1","0","null","","","<img src = 'targets/34.png' width = '100%;'>","null","","","","","","","","","",""
"","html-keyboard-response","166","647373","0.0-10.0-3.6","9k0gvb7jbz","many_one","0","direct_first","1","dt05rt15","0","26","1","1","3","1","","0","1","0","1083","","","<img src = 'targets/mask.png' width = '100%;'>","68","neg","CS","CS","2","category2/CS2.png","","targets/34.png","indirect","0","6"
"","html-keyboard-response","167","648904","0.0-10.0-0.7","9k0gvb7jbz","many_one","0","direct_first","1","dt05rt15","0","26","1","1","3","1","","0","1","0","null","","","<div style=""font-size:60px;"">+</div>","null","","","","","","","","","",""
"","html-keyboard-response","168","649012","0.0-10.0-1.7","9k0gvb7jbz","many_one","0","direct_first","1","dt05rt15","0","26","1","1","3","1","","0","1","0","null","","","<img src = 'category4/CS7.png' width = '100%;'>","null","","","","","","","","","",""
"","html-keyboard-response","169","649277","0.0-10.0-2.7","9k0gvb7jbz","many_one","0","direct_first","1","dt05rt15","0","26","1","1","3","1","","0","1","0","null","","","<img src = 'targets/38.png' width = '100%;'>","null","","","","","","","","","",""
"","html-keyboard-response","170","651233","0.0-10.0-3.7","9k0gvb7jbz","many_one","0","direct_first","1","dt05rt15","0","26","1","1","3","1","","0","1","0","1954","","","<img src = 'targets/mask.png' width = '100%;'>","68","neg","GS","GSold","4","category4/CS7.png","","targets/38.png","indirect","0","7"
"","html-keyboard-response","171","652765","0.0-10.0-0.8","9k0gvb7jbz","many_one","0","direct_first","1","dt05rt15","0","26","1","1","3","1","","0","1","0","null","","","<div style=""font-size:60px;"">+</div>","null","","","","","","","","","",""
"","html-keyboard-response","172","652872","0.0-10.0-1.8","9k0gvb7jbz","many_one","0","direct_first","1","dt05rt15","0","26","1","1","3","1","","0","1","0","null","","","<img src = 'category1/CS4.png' width = '100%;'>","null","","","","","","","","","",""
"","html-keyboard-response","173","653138","0.0-10.0-2.8","9k0gvb7jbz","many_one","0","direct_first","1","dt05rt15","0","26","1","1","3","1","","0","1","0","null","","","<img src = 'targets/18.png' width = '100%;'>","null","","","","","","","","","",""
"","html-keyboard-response","174","656163","0.0-10.0-3.8","9k0gvb7jbz","many_one","0","direct_first","1","dt05rt15","0","26","1","1","3","1","","0","1","0","3022","","","<img src = 'targets/mask.png' width = '100%;'>","68","pos","CS","CS","1","category1/CS4.png","","targets/18.png","indirect","0","8"
"","html-keyboard-response","175","657694","0.0-10.0-0.9","9k0gvb7jbz","many_one","0","direct_first","1","dt05rt15","0","26","1","1","3","1","","0","1","0","null","","","<div style=""font-size:60px;"">+</div>","null","","","","","","","","","",""
"","html-keyboard-response","176","657801","0.0-10.0-1.9","9k0gvb7jbz","many_one","0","direct_first","1","dt05rt15","0","26","1","1","3","1","","0","1","0","null","","","<img src = 'category3/CS7.png' width = '100%;'>","null","","","","","","","","","",""
"","html-keyboard-response","177","658085","0.0-10.0-2.9","9k0gvb7jbz","many_one","0","direct_first","1","dt05rt15","0","26","1","1","3","1","","0","1","0","null","","","<img src = 'targets/32.png' width = '100%;'>","null","","","","","","","","","",""
"","html-keyboard-response","178","659613","0.0-10.0-3.9","9k0gvb7jbz","many_one","0","direct_first","1","dt05rt15","0","26","1","1","3","1","","0","1","0","1526","","","<img src = 'targets/mask.png' width = '100%;'>","75","pos","CS","CS","3","category3/CS7.png","","targets/32.png","indirect","1","9"
"","html-keyboard-response","179","661134","0.0-10.0-0.10","9k0gvb7jbz","many_one","0","direct_first","1","dt05rt15","0","26","1","1","3","1","","0","1","0","null","","","<div style=""font-size:60px;"">+</div>","null","","","","","","","","","",""
"","html-keyboard-response","180","661242","0.0-10.0-1.10","9k0gvb7jbz","many_one","0","direct_first","1","dt05rt15","0","26","1","1","3","1","","0","1","0","null","","","<img src = 'category1/CS6.png' width = '100%;'>","null","","","","","","","","","",""
"","html-keyboard-response","181","661507","0.0-10.0-2.10","9k0gvb7jbz","many_one","0","direct_first","1","dt05rt15","0","26","1","1","3","1","","0","1","0","null","","","<img src = 'targets/21.png' width = '100%;'>","null","","","","","","","","","",""
"","html-keyboard-response","182","664153","0.0-10.0-3.10","9k0gvb7jbz","many_one","0","direct_first","1","dt05rt15","0","26","1","1","3","1","","0","1","0","2644","","","<img src = 'targets/mask.png' width = '100%;'>","75","pos","GS","GSold","1","category1/CS6.png","","targets/21.png","indirect","1","10"
"","html-keyboard-response","183","665694","0.0-10.0-0.11","9k0gvb7jbz","many_one","0","direct_first","1","dt05rt15","0","26","1","1","3","1","","0","1","0","null","","","<div style=""font-size:60px;"">+</div>","null","","","","","","","","","",""
"","html-keyboard-response","184","665801","0.0-10.0-1.11","9k0gvb7jbz","many_one","0","direct_first","1","dt05rt15","0","26","1","1","3","1","","0","1","0","null","","","<img src = 'category2/CS3.png' width = '100%;'>","null","","","","","","","","","",""
"","html-keyboard-response","185","666074","0.0-10.0-2.11","9k0gvb7jbz","many_one","0","direct_first","1","dt05rt15","0","26","1","1","3","1","","0","1","0","null","","","<img src = 'targets/3.png' width = '100%;'>","null","","","","","","","","","",""
"","html-keyboard-response","186","667723","0.0-10.0-3.11","9k0gvb7jbz","many_one","0","direct_first","1","dt05rt15","0","26","1","1","3","1","","0","1","0","1647","","","<img src = 'targets/mask.png' width = '100%;'>","68","neg","CS","CS","2","category2/CS3.png","","targets/3.png","indirect","0","11"
"","html-keyboard-response","187","669264","0.0-10.0-0.12","9k0gvb7jbz","many_one","0","direct_first","1","dt05rt15","0","26","1","1","3","1","","0","1","0","null","","","<div style=""font-size:60px;"">+</div>","null","","","","","","","","","",""
"","html-keyboard-response","188","669371","0.0-10.0-1.12","9k0gvb7jbz","many_one","0","direct_first","1","dt05rt15","0","26","1","1","3","1","","0","1","0","null","","","<img src = 'category1/CS2.png' width = '100%;'>","null","","","","","","","","","",""
"","html-keyboard-response","189","669638","0.0-10.0-2.12","9k0gvb7jbz","many_one","0","direct_first","1","dt05rt15","0","26","1","1","3","1","","0","1","0","null","","","<img src = 'targets/41.png' width = '100%;'>","null","","","","","","","","","",""
"","html-keyboard-response","190","670954","0.0-10.0-3.12","9k0gvb7jbz","many_one","0","direct_first","1","dt05rt15","0","26","1","1","3","1","","0","1","0","1314","","","<img src = 'targets/mask.png' width = '100%;'>","75","pos","CS","CS","1","category1/CS2.png","","targets/41.png","indirect","1","12"
"","html-keyboard-response","191","672484","0.0-10.0-0.13","9k0gvb7jbz","many_one","0","direct_first","1","dt05rt15","0","26","1","1","3","1","","0","1","0","null","","","<div style=""font-size:60px;"">+</div>","null","","","","","","","","","",""
"","html-keyboard-response","192","672592","0.0-10.0-1.13","9k0gvb7jbz","many_one","0","direct_first","1","dt05rt15","0","26","1","1","3","1","","0","1","0","null","","","<img src = 'category4/CS4.png' width = '100%;'>","null","","","","","","","","","",""
"","html-keyboard-response","193","672857","0.0-10.0-2.13","9k0gvb7jbz","many_one","0","direct_first","1","dt05rt15","0","26","1","1","3","1","","0","1","0","null","","","<img src = 'targets/31.png' width = '100%;'>","null","","","","","","","","","",""
"","html-keyboard-response","194","675264","0.0-10.0-3.13","9k0gvb7jbz","many_one","0","direct_first","1","dt05rt15","0","26","1","1","3","1","","0","1","0","2404","","","<img src = 'targets/mask.png' width = '100%;'>","75","neg","GS","GSold","4","category4/CS4.png","","targets/31.png","indirect","1","13"
"","html-keyboard-response","195","676804","0.0-10.0-0.14","9k0gvb7jbz","many_one","0","direct_first","1","dt05rt15","0","26","1","1","3","1","","0","1","0","null","","","<div style=""font-size:60px;"">+</div>","null","","","","","","","","","",""
"","html-keyboard-response","196","676912","0.0-10.0-1.14","9k0gvb7jbz","many_one","0","direct_first","1","dt05rt15","0","26","1","1","3","1","","0","1","0","null","","","<img src = 'category2/CS8.png' width = '100%;'>","null","","","","","","","","","",""
"","html-keyboard-response","197","677178","0.0-10.0-2.14","9k0gvb7jbz","many_one","0","direct_first","1","dt05rt15","0","26","1","1","3","1","","0","1","0","null","","","<img src = 'targets/30.png' width = '100%;'>","null","","","","","","","","","",""
"","html-keyboard-response","198","678033","0.0-10.0-3.14","9k0gvb7jbz","many_one","0","direct_first","1","dt05rt15","0","26","1","1","3","1","","0","1","0","853","","","<img src = 'targets/mask.png' width = '100%;'>","75","neg","CS","CS","2","category2/CS8.png","","targets/30.png","indirect","1","14"
"","html-keyboard-response","199","679574","0.0-10.0-0.15","9k0gvb7jbz","many_one","0","direct_first","1","dt05rt15","0","26","1","1","3","1","","0","1","0","null","","","<div style=""font-size:60px;"">+</div>","null","","","","","","","","","",""
"","html-keyboard-response","200","679680","0.0-10.0-1.15","9k0gvb7jbz","many_one","0","direct_first","1","dt05rt15","0","26","1","1","3","1","","0","1","0","null","","","<img src = 'category1/CS8.png' width = '100%;'>","null","","","","","","","","","",""
"","html-keyboard-response","201","679947","0.0-10.0-2.15","9k0gvb7jbz","many_one","0","direct_first","1","dt05rt15","0","26","1","1","3","1","","0","1","0","null","","","<img src = 'targets/23.png' width = '100%;'>","null","","","","","","","","","",""
"","html-keyboard-response","202","681323","0.0-10.0-3.15","9k0gvb7jbz","many_one","0","direct_first","1","dt05rt15","0","26","1","1","3","1","","0","1","0","1374","","","<img src = 'targets/mask.png' width = '100%;'>","75","pos","CS","CS","1","category1/CS8.png","","targets/23.png","indirect","1","15"
"","html-keyboard-response","203","682834","0.0-10.0-0.16","9k0gvb7jbz","many_one","0","direct_first","1","dt05rt15","0","26","1","1","3","1","","0","1","0","null","","","<div style=""font-size:60px;"">+</div>","null","","","","","","","","","",""
"","html-keyboard-response","204","682942","0.0-10.0-1.16","9k0gvb7jbz","many_one","0","direct_first","1","dt05rt15","0","26","1","1","3","1","","0","1","0","null","","","<img src = 'category4/CS8.png' width = '100%;'>","null","","","","","","","","","",""
"","html-keyboard-response","205","683208","0.0-10.0-2.16","9k0gvb7jbz","many_one","0","direct_first","1","dt05rt15","0","26","1","1","3","1","","0","1","0","null","","","<img src = 'targets/7.png' width = '100%;'>","null","","","","","","","","","",""
"","html-keyboard-response","206","684023","0.0-10.0-3.16","9k0gvb7jbz","many_one","0","direct_first","1","dt05rt15","0","26","1","1","3","1","","0","1","0","814","","","<img src = 'targets/mask.png' width = '100%;'>","68","neg","CS","CS","4","category4/CS8.png","","targets/7.png","indirect","0","16"
"","html-keyboard-response","207","685564","0.0-10.0-0.17","9k0gvb7jbz","many_one","0","direct_first","1","dt05rt15","0","26","1","1","3","1","","0","1","0","null","","","<div style=""font-size:60px;"">+</div>","null","","","","","","","","","",""
"","html-keyboard-response","208","685672","0.0-10.0-1.17","9k0gvb7jbz","many_one","0","direct_first","1","dt05rt15","0","26","1","1","3","1","","0","1","0","null","","","<img src = 'category3/CS9.png' width = '100%;'>","null","","","","","","","","","",""
"","html-keyboard-response","209","685937","0.0-10.0-2.17","9k0gvb7jbz","many_one","0","direct_first","1","dt05rt15","0","26","1","1","3","1","","0","1","0","null","","","<img src = 'targets/35.png' width = '100%;'>","null","","","","","","","","","",""
"","html-keyboard-response","210","686642","0.0-10.0-3.17","9k0gvb7jbz","many_one","0","direct_first","1","dt05rt15","0","26","1","1","3","1","","0","1","0","705","","","<img src = 'targets/mask.png' width = '100%;'>","75","pos","CS","CS","3","category3/CS9.png","","targets/35.png","indirect","1","17"
"","html-keyboard-response","211","688164","0.0-10.0-0.18","9k0gvb7jbz","many_one","0","direct_first","1","dt05rt15","0","26","1","1","3","1","","0","1","0","null","","","<div style=""font-size:60px;"">+</div>","null","","","","","","","","","",""
"","html-keyboard-response","212","688265","0.0-10.0-1.18","9k0gvb7jbz","many_one","0","direct_first","1","dt05rt15","0","26","1","1","3","1","","0","1","0","null","","","<img src = 'category4/CS6.png' width = '100%;'>","null","","","","","","","","","",""
"","html-keyboard-response","213","688537","0.0-10.0-2.18","9k0gvb7jbz","many_one","0","direct_first","1","dt05rt15","0","26","1","1","3","1","","0","1","0","null","","","<img src = 'targets/9.png' width = '100%;'>","null","","","","","","","","","",""
"","html-keyboard-response","214","689513","0.0-10.0-3.18","9k0gvb7jbz","many_one","0","direct_first","1","dt05rt15","0","26","1","1","3","1","","0","1","0","974","","","<img src = 'targets/mask.png' width = '100%;'>","75","neg","GS","GSold","4","category4/CS6.png","","targets/9.png","indirect","1","18"
"","html-keyboard-response","215","691024","0.0-10.0-0.19","9k0gvb7jbz","many_one","0","direct_first","1","dt05rt15","0","26","1","1","3","1","","0","1","0","null","","","<div style=""font-size:60px;"">+</div>","null","","","","","","","","","",""
"","html-keyboard-response","216","691125","0.0-10.0-1.19","9k0gvb7jbz","many_one","0","direct_first","1","dt05rt15","0","26","1","1","3","1","","0","1","0","null","","","<img src = 'category4/CS5.png' width = '100%;'>","null","","","","","","","","","",""
"","html-keyboard-response","217","691397","0.0-10.0-2.19","9k0gvb7jbz","many_one","0","direct_first","1","dt05rt15","0","26","1","1","3","1","","0","1","0","null","","","<img src = 'targets/26.png' width = '100%;'>","null","","","","","","","","","",""
"","html-keyboard-response","218","692114","0.0-10.0-3.19","9k0gvb7jbz","many_one","0","direct_first","1","dt05rt15","0","26","1","1","3","1","","0","1","0","715","","","<img src = 'targets/mask.png' width = '100%;'>","68","neg","CS","CS","4","category4/CS5.png","","targets/26.png","indirect","0","19"
"","html-keyboard-response","219","693635","0.0-10.0-0.20","9k0gvb7jbz","many_one","0","direct_first","1","dt05rt15","0","26","1","1","3","1","","0","1","0","null","","","<div style=""font-size:60px;"">+</div>","null","","","","","","","","","",""
"","html-keyboard-response","220","693742","0.0-10.0-1.20","9k0gvb7jbz","many_one","0","direct_first","1","dt05rt15","0","26","1","1","3","1","","0","1","0","null","","","<img src = 'category4/CS3.png' width = '100%;'>","null","","","","","","","","","",""
"","html-keyboard-response","221","694008","0.0-10.0-2.20","9k0gvb7jbz","many_one","0","direct_first","1","dt05rt15","0","26","1","1","3","1","","0","1","0","null","","","<img src = 'targets/1.png' width = '100%;'>","null","","","","","","","","","",""
"","html-keyboard-response","222","694603","0.0-10.0-3.20","9k0gvb7jbz","many_one","0","direct_first","1","dt05rt15","0","26","1","1","3","1","","0","1","0","593","","","<img src = 'targets/mask.png' width = '100%;'>","75","neg","CS","CS","4","category4/CS3.png","","targets/1.png","indirect","1","20"
"","html-keyboard-response","223","696125","0.0-10.0-0.21","9k0gvb7jbz","many_one","0","direct_first","1","dt05rt15","0","26","1","1","3","1","","0","1","0","null","","","<div style=""font-size:60px;"">+</div>","null","","","","","","","","","",""
"","html-keyboard-response","224","696232","0.0-10.0-1.21","9k0gvb7jbz","many_one","0","direct_first","1","dt05rt15","0","26","1","1","3","1","","0","1","0","null","","","<img src = 'category2/CS5.png' width = '100%;'>","null","","","","","","","","","",""
"","html-keyboard-response","225","696497","0.0-10.0-2.21","9k0gvb7jbz","many_one","0","direct_first","1","dt05rt15","0","26","1","1","3","1","","0","1","0","null","","","<img src = 'targets/8.png' width = '100%;'>","null","","","","","","","","","",""
"","html-keyboard-response","226","697123","0.0-10.0-3.21","9k0gvb7jbz","many_one","0","direct_first","1","dt05rt15","0","26","1","1","3","1","","0","1","0","625","","","<img src = 'targets/mask.png' width = '100%;'>","68","neg","CS","CS","2","category2/CS5.png","","targets/8.png","indirect","0","21"
"","html-keyboard-response","227","698644","0.0-10.0-0.22","9k0gvb7jbz","many_one","0","direct_first","1","dt05rt15","0","26","1","1","3","1","","0","1","0","null","","","<div style=""font-size:60px;"">+</div>","null","","","","","","","","","",""
"","html-keyboard-response","228","698751","0.0-10.0-1.22","9k0gvb7jbz","many_one","0","direct_first","1","dt05rt15","0","26","1","1","3","1","","0","1","0","null","","","<img src = 'category2/CS10.png' width = '100%;'>","null","","","","","","","","","",""
"","html-keyboard-response","229","699016","0.0-10.0-2.22","9k0gvb7jbz","many_one","0","direct_first","1","dt05rt15","0","26","1","1","3","1","","0","1","0","null","","","<img src = 'targets/46.png' width = '100%;'>","null","","","","","","","","","",""
"","html-keyboard-response","230","699633","0.0-10.0-3.22","9k0gvb7jbz","many_one","0","direct_first","1","dt05rt15","0","26","1","1","3","1","","0","1","0","617","","","<img src = 'targets/mask.png' width = '100%;'>","75","neg","CS","CS","2","category2/CS10.png","","targets/46.png","indirect","1","22"
"","html-keyboard-response","231","701155","0.0-10.0-0.23","9k0gvb7jbz","many_one","0","direct_first","1","dt05rt15","0","26","1","1","3","1","","0","1","0","null","","","<div style=""font-size:60px;"">+</div>","null","","","","","","","","","",""
"","html-keyboard-response","232","701261","0.0-10.0-1.23","9k0gvb7jbz","many_one","0","direct_first","1","dt05rt15","0","26","1","1","3","1","","0","1","0","null","","","<img src = 'category1/CS1.png' width = '100%;'>","null","","","","","","","","","",""
"","html-keyboard-response","233","701528","0.0-10.0-2.23","9k0gvb7jbz","many_one","0","direct_first","1","dt05rt15","0","26","1","1","3","1","","0","1","0","null","","","<img src = 'targets/14.png' width = '100%;'>","null","","","","","","","","","",""
"","html-keyboard-response","234","702323","0.0-10.0-3.23","9k0gvb7jbz","many_one","0","direct_first","1","dt05rt15","0","26","1","1","3","1","","0","1","0","794","","","<img src = 'targets/mask.png' width = '100%;'>","75","pos","CS","CS","1","category1/CS1.png","","targets/14.png","indirect","1","23"
"","survey-html-form","235","708993","0.0-11.0","9k0gvb7jbz","many_one","0","direct_first","1","dt05rt15","0","26","1","1","3","1","","0","1","0","6168","","{}","","","","","","","","","","","",""
"","html-keyboard-response","236","712024","0.0-12.0-0.0","9k0gvb7jbz","many_one","0","direct_first","1","dt05rt15","0","26","1","1","3","1","","0","1","0","null","","","<div style=""font-size:60px;"">+</div>","null","","","","","","","","","",""
"","html-keyboard-response","237","712132","0.0-12.0-1.0","9k0gvb7jbz","many_one","0","direct_first","1","dt05rt15","0","26","1","1","3","1","","0","1","0","null","","","<img src = 'category4/GS3.png' width = '100%;'>","null","","","","","","","","","",""
"","html-keyboard-response","238","712398","0.0-12.0-2.0","9k0gvb7jbz","many_one","0","direct_first","1","dt05rt15","0","26","1","1","3","1","","0","1","0","null","","","<img src = 'targets/5.png' width = '100%;'>","null","","","","","","","","","",""
"","html-keyboard-response","239","713014","0.0-12.0-3.0","9k0gvb7jbz","many_one","0","direct_first","1","dt05rt15","0","26","1","1","3","1","","0","1","0","613","","","<img src = 'targets/mask.png' width = '100%;'>","75","neg","GS","GSnew","4","category4/GS3.png","","targets/5.png","indirect","1","24"
"","html-keyboard-response","240","714555","0.0-12.0-0.1","9k0gvb7jbz","many_one","0","direct_first","1","dt05rt15","0","26","1","1","3","1","","0","1","0","null","","","<div style=""font-size:60px;"">+</div>","null","","","","","","","","","",""
"","html-keyboard-response","241","714662","0.0-12.0-1.1","9k0gvb7jbz","many_one","0","direct_first","1","dt05rt15","0","26","1","1","3","1","","0","1","0","null","","","<img src = 'category3/CS10.png' width = '100%;'>","null","","","","","","","","","",""
"","html-keyboard-response","242","714928","0.0-12.0-2.1","9k0gvb7jbz","many_one","0","direct_first","1","dt05rt15","0","26","1","1","3","1","","0","1","0","null","","","<img src = 'targets/44.png' width = '100%;'>","null","","","","","","","","","",""
"","html-keyboard-response","243","715863","0.0-12.0-3.1","9k0gvb7jbz","many_one","0","direct_first","1","dt05rt15","0","26","1","1","3","1","","0","1","0","932","","","<img src = 'targets/mask.png' width = '100%;'>","68","pos","GS","GSold","3","category3/CS10.png","","targets/44.png","indirect","0","25"
"","html-keyboard-response","244","717394","0.0-12.0-0.2","9k0gvb7jbz","many_one","0","direct_first","1","dt05rt15","0","26","1","1","3","1","","0","1","0","null","","","<div style=""font-size:60px;"">+</div>","null","","","","","","","","","",""
"","html-keyboard-response","245","717501","0.0-12.0-1.2","9k0gvb7jbz","many_one","0","direct_first","1","dt05rt15","0","26","1","1","3","1","","0","1","0","null","","","<img src = 'category4/GS1.png' width = '100%;'>","null","","","","","","","","","",""
"","html-keyboard-response","246","717767","0.0-12.0-2.2","9k0gvb7jbz","many_one","0","direct_first","1","dt05rt15","0","26","1","1","3","1","","0","1","0","null","","","<img src = 'targets/43.png' width = '100%;'>","null","","","","","","","","","",""
"","html-keyboard-response","247","718243","0.0-12.0-3.2","9k0gvb7jbz","many_one","0","direct_first","1","dt05rt15","0","26","1","1","3","1","","0","1","0","473","","","<img src = 'targets/mask.png' width = '100%;'>","68","neg","GS","GSnew","4","category4/GS1.png","","targets/43.png","indirect","0","26"
"","html-keyboard-response","248","719765","0.0-12.0-0.3","9k0gvb7jbz","many_one","0","direct_first","1","dt05rt15","0","26","1","1","3","1","","0","1","0","null","","","<div style=""font-size:60px;"">+</div>","null","","","","","","","","","",""
"","html-keyboard-response","249","719871","0.0-12.0-1.3","9k0gvb7jbz","many_one","0","direct_first","1","dt05rt15","0","26","1","1","3","1","","0","1","0","null","","","<img src = 'category3/GS3.png' width = '100%;'>","null","","","","","","","","","",""
"","html-keyboard-response","250","720138","0.0-12.0-2.3","9k0gvb7jbz","many_one","0","direct_first","1","dt05rt15","0","26","1","1","3","1","","0","1","0","null","","","<img src = 'targets/25.png' width = '100%;'>","null","","","","","","","","","",""
"","html-keyboard-response","251","721593","0.0-12.0-3.3","9k0gvb7jbz","many_one","0","direct_first","1","dt05rt15","0","26","1","1","3","1","","0","1","0","1454","","","<img src = 'targets/mask.png' width = '100%;'>","75","pos","GS","GSnew","3","category3/GS3.png","","targets/25.png","indirect","1","27"
"","html-keyboard-response","252","723104","0.0-12.0-0.4","9k0gvb7jbz","many_one","0","direct_first","1","dt05rt15","0","26","1","1","3","1","","0","1","0","null","","","<div style=""font-size:60px;"">+</div>","null","","","","","","","","","",""
"","html-keyboard-response","253","723211","0.0-12.0-1.4","9k0gvb7jbz","many_one","0","direct_first","1","dt05rt15","0","26","1","1","3","1","","0","1","0","null","","","<img src = 'category2/CS6.png' width = '100%;'>","null","","","","","","","","","",""
"","html-keyboard-response","254","723477","0.0-12.0-2.4","9k0gvb7jbz","many_one","0","direct_first","1","dt05rt15","0","26","1","1","3","1","","0","1","0","null","","","<img src = 'targets/12.png' width = '100%;'>","null","","","","","","","","","",""
"","html-keyboard-response","255","723985","0.0-12.0-3.4","9k0gvb7jbz","many_one","0","direct_first","1","dt05rt15","0","26","1","1","3","1","","0","1","0","505","","","<img src = 'targets/mask.png' width = '100%;'>","75","neg","GS","GSold","2","category2/CS6.png","","targets/12.png","indirect","1","28"
"","html-keyboard-response","256","725514","0.0-12.0-0.5","9k0gvb7jbz","many_one","0","direct_first","1","dt05rt15","0","26","1","1","3","1","","0","1","0","null","","","<div style=""font-size:60px;"">+</div>","null","","","","","","","","","",""
"","html-keyboard-response","257","725622","0.0-12.0-1.5","9k0gvb7jbz","many_one","0","direct_first","1","dt05rt15","0","26","1","1","3","1","","0","1","0","null","","","<img src = 'category2/CS4.png' width = '100%;'>","null","","","","","","","","","",""
"","html-keyboard-response","258","725889","0.0-12.0-2.5","9k0gvb7jbz","many_one","0","direct_first","1","dt05rt15","0","26","1","1","3","1","","0","1","0","null","","","<img src = 'targets/29.png' width = '100%;'>","null","","","","","","","","","",""
"","html-keyboard-response","259","726643","0.0-12.0-3.5","9k0gvb7jbz","many_one","0","direct_first","1","dt05rt15","0","26","1","1","3","1","","0","1","0","753","","","<img src = 'targets/mask.png' width = '100%;'>","75","neg","GS","GSold","2","category2/CS4.png","","targets/29.png","indirect","1","29"
"","html-keyboard-response","260","728154","0.0-12.0-0.6","9k0gvb7jbz","many_one","0","direct_first","1","dt05rt15","0","26","1","1","3","1","","0","1","0","null","","","<div style=""font-size:60px;"">+</div>","null","","","","","","","","","",""
"","html-keyboard-response","261","728261","0.0-12.0-1.6","9k0gvb7jbz","many_one","0","direct_first","1","dt05rt15","0","26","1","1","3","1","","0","1","0","null","","","<img src = 'category2/GS1.png' width = '100%;'>","null","","","","","","","","","",""
"","html-keyboard-response","262","728528","0.0-12.0-2.6","9k0gvb7jbz","many_one","0","direct_first","1","dt05rt15","0","26","1","1","3","1","","0","1","0","null","","","<img src = 'targets/28.png' width = '100%;'>","null","","","","","","","","","",""
"","html-keyboard-response","263","729003","0.0-12.0-3.6","9k0gvb7jbz","many_one","0","direct_first","1","dt05rt15","0","26","1","1","3","1","","0","1","0","472","","","<img src = 'targets/mask.png' width = '100%;'>","68","neg","GS","GSnew","2","category2/GS1.png","","targets/28.png","indirect","0","30"
"","html-keyboard-response","264","730534","0.0-12.0-0.7","9k0gvb7jbz","many_one","0","direct_first","1","dt05rt15","0","26","1","1","3","1","","0","1","0","null","","","<div style=""font-size:60px;"">+</div>","null","","","","","","","","","",""
"","html-keyboard-response","265","730641","0.0-12.0-1.7","9k0gvb7jbz","many_one","0","direct_first","1","dt05rt15","0","26","1","1","3","1","","0","1","0","null","","","<img src = 'category1/ma.png' width = '100%;'>","null","","","","","","","","","",""
"","html-keyboard-response","266","730907","0.0-12.0-2.7","9k0gvb7jbz","many_one","0","direct_first","1","dt05rt15","0","26","1","1","3","1","","0","1","0","null","","","<img src = 'targets/33.png' width = '100%;'>","null","","","","","","","","","",""
"","html-keyboard-response","267","731454","0.0-12.0-3.7","9k0gvb7jbz","many_one","0","direct_first","1","dt05rt15","0","26","1","1","3","1","","0","1","0","545","","","<img src = 'targets/mask.png' width = '100%;'>","75","pos","GS","abstract","1","category1/ma.png","","targets/33.png","indirect","1","31"
"","html-keyboard-response","268","732985","0.0-12.0-0.8","9k0gvb7jbz","many_one","0","direct_first","1","dt05rt15","0","26","1","1","3","1","","0","1","0","null","","","<div style=""font-size:60px;"">+</div>","null","","","","","","","","","",""
"","html-keyboard-response","269","733092","0.0-12.0-1.8","9k0gvb7jbz","many_one","0","direct_first","1","dt05rt15","0","26","1","1","3","1","","0","1","0","null","","","<img src = 'category2/GS3.png' width = '100%;'>","null","","","","","","","","","",""
"","html-keyboard-response","270","733359","0.0-12.0-2.8","9k0gvb7jbz","many_one","0","direct_first","1","dt05rt15","0","26","1","1","3","1","","0","1","0","null","","","<img src = 'targets/24.png' width = '100%;'>","null","","","","","","","","","",""
"","html-keyboard-response","271","734072","0.0-12.0-3.8","9k0gvb7jbz","many_one","0","direct_first","1","dt05rt15","0","26","1","1","3","1","","0","1","0","713","","","<img src = 'targets/mask.png' width = '100%;'>","68","neg","GS","GSnew","2","category2/GS3.png","","targets/24.png","indirect","0","32"
"","html-keyboard-response","272","735584","0.0-12.0-0.9","9k0gvb7jbz","many_one","0","direct_first","1","dt05rt15","0","26","1","1","3","1","","0","1","0","null","","","<div style=""font-size:60px;"">+</div>","null","","","","","","","","","",""
"","html-keyboard-response","273","735692","0.0-12.0-1.9","9k0gvb7jbz","many_one","0","direct_first","1","dt05rt15","0","26","1","1","3","1","","0","1","0","null","","","<img src = 'category1/GS1.png' width = '100%;'>","null","","","","","","","","","",""
"","html-keyboard-response","274","735958","0.0-12.0-2.9","9k0gvb7jbz","many_one","0","direct_first","1","dt05rt15","0","26","1","1","3","1","","0","1","0","null","","","<img src = 'targets/16.png' width = '100%;'>","null","","","","","","","","","",""
"","html-keyboard-response","275","736383","0.0-12.0-3.9","9k0gvb7jbz","many_one","0","direct_first","1","dt05rt15","0","26","1","1","3","1","","0","1","0","423","","","<img src = 'targets/mask.png' width = '100%;'>","68","pos","GS","GSnew","1","category1/GS1.png","","targets/16.png","indirect","0","33"
"","html-keyboard-response","276","737914","0.0-12.0-0.10","9k0gvb7jbz","many_one","0","direct_first","1","dt05rt15","0","26","1","1","3","1","","0","1","0","null","","","<div style=""font-size:60px;"">+</div>","null","","","","","","","","","",""
"","html-keyboard-response","277","738022","0.0-12.0-1.10","9k0gvb7jbz","many_one","0","direct_first","1","dt05rt15","0","26","1","1","3","1","","0","1","0","null","","","<img src = 'category3/GS1.png' width = '100%;'>","null","","","","","","","","","",""
"","html-keyboard-response","278","738287","0.0-12.0-2.10","9k0gvb7jbz","many_one","0","direct_first","1","dt05rt15","0","26","1","1","3","1","","0","1","0","null","","","<img src = 'targets/37.png' width = '100%;'>","null","","","","","","","","","",""
"","html-keyboard-response","279","738773","0.0-12.0-3.10","9k0gvb7jbz","many_one","0","direct_first","1","dt05rt15","0","26","1","1","3","1","","0","1","0","484","","","<img src = 'targets/mask.png' width = '100%;'>","75","pos","GS","GSnew","3","category3/GS1.png","","targets/37.png","indirect","1","34"
"","html-keyboard-response","280","740290","0.0-12.0-0.11","9k0gvb7jbz","many_one","0","direct_first","1","dt05rt15","0","26","1","1","3","1","","0","1","0","null","","","<div style=""font-size:60px;"">+</div>","null","","","","","","","","","",""
"","html-keyboard-response","281","740396","0.0-12.0-1.11","9k0gvb7jbz","many_one","0","direct_first","1","dt05rt15","0","26","1","1","3","1","","0","1","0","null","","","<img src = 'category3/CS6.png' width = '100%;'>","null","","","","","","","","","",""
"","html-keyboard-response","282","740663","0.0-12.0-2.11","9k0gvb7jbz","many_one","0","direct_first","1","dt05rt15","0","26","1","1","3","1","","0","1","0","null","","","<img src = 'targets/15.png' width = '100%;'>","null","","","","","","","","","",""
"","html-keyboard-response","283","741413","0.0-12.0-3.11","9k0gvb7jbz","many_one","0","direct_first","1","dt05rt15","0","26","1","1","3","1","","0","1","0","746","","","<img src = 'targets/mask.png' width = '100%;'>","68","pos","GS","GSold","3","category3/CS6.png","","targets/15.png","indirect","0","35"
"","html-keyboard-response","284","742944","0.0-12.0-0.12","9k0gvb7jbz","many_one","0","direct_first","1","dt05rt15","0","26","1","1","3","1","","0","1","0","null","","","<div style=""font-size:60px;"">+</div>","null","","","","","","","","","",""
"","html-keyboard-response","285","743051","0.0-12.0-1.12","9k0gvb7jbz","many_one","0","direct_first","1","dt05rt15","0","26","1","1","3","1","","0","1","0","null","","","<img src = 'category1/GS3.png' width = '100%;'>","null","","","","","","","","","",""
"","html-keyboard-response","286","743317","0.0-12.0-2.12","9k0gvb7jbz","many_one","0","direct_first","1","dt05rt15","0","26","1","1","3","1","","0","1","0","null","","","<img src = 'targets/42.png' width = '100%;'>","null","","","","","","","","","",""
"","html-keyboard-response","287","744153","0.0-12.0-3.12","9k0gvb7jbz","many_one","0","direct_first","1","dt05rt15","0","26","1","1","3","1","","0","1","0","835","","","<img src = 'targets/mask.png' width = '100%;'>","75","pos","GS","GSnew","1","category1/GS3.png","","targets/42.png","indirect","1","36"
"","html-keyboard-response","288","745685","0.0-12.0-0.13","9k0gvb7jbz","many_one","0","direct_first","1","dt05rt15","0","26","1","1","3","1","","0","1","0","null","","","<div style=""font-size:60px;"">+</div>","null","","","","","","","","","",""
"","html-keyboard-response","289","745785","0.0-12.0-1.13","9k0gvb7jbz","many_one","0","direct_first","1","dt05rt15","0","26","1","1","3","1","","0","1","0","null","","","<img src = 'category3/GS2.png' width = '100%;'>","null","","","","","","","","","",""
"","html-keyboard-response","290","746057","0.0-12.0-2.13","9k0gvb7jbz","many_one","0","direct_first","1","dt05rt15","0","26","1","1","3","1","","0","1","0","null","","","<img src = 'targets/4.png' width = '100%;'>","null","","","","","","","","","",""
"","html-keyboard-response","291","746813","0.0-12.0-3.13","9k0gvb7jbz","many_one","0","direct_first","1","dt05rt15","0","26","1","1","3","1","","0","1","0","753","","","<img src = 'targets/mask.png' width = '100%;'>","68","pos","GS","GSnew","3","category3/GS2.png","","targets/4.png","indirect","0","37"
"","html-keyboard-response","292","748324","0.0-12.0-0.14","9k0gvb7jbz","many_one","0","direct_first","1","dt05rt15","0","26","1","1","3","1","","0","1","0","null","","","<div style=""font-size:60px;"">+</div>","null","","","","","","","","","",""
"","html-keyboard-response","293","748432","0.0-12.0-1.14","9k0gvb7jbz","many_one","0","direct_first","1","dt05rt15","0","26","1","1","3","1","","0","1","0","null","","","<img src = 'category1/CS5.png' width = '100%;'>","null","","","","","","","","","",""
"","html-keyboard-response","294","748697","0.0-12.0-2.14","9k0gvb7jbz","many_one","0","direct_first","1","dt05rt15","0","26","1","1","3","1","","0","1","0","null","","","<img src = 'targets/20.png' width = '100%;'>","null","","","","","","","","","",""
"","html-keyboard-response","295","749264","0.0-12.0-3.14","9k0gvb7jbz","many_one","0","direct_first","1","dt05rt15","0","26","1","1","3","1","","0","1","0","565","","","<img src = 'targets/mask.png' width = '100%;'>","68","pos","GS","GSold","1","category1/CS5.png","","targets/20.png","indirect","0","38"
"","html-keyboard-response","296","750804","0.0-12.0-0.15","9k0gvb7jbz","many_one","0","direct_first","1","dt05rt15","0","26","1","1","3","1","","0","1","0","null","","","<div style=""font-size:60px;"">+</div>","null","","","","","","","","","",""
"","html-keyboard-response","297","750912","0.0-12.0-1.15","9k0gvb7jbz","many_one","0","direct_first","1","dt05rt15","0","26","1","1","3","1","","0","1","0","null","","","<img src = 'category2/men.png' width = '100%;'>","null","","","","","","","","","",""
"","html-keyboard-response","298","751177","0.0-12.0-2.15","9k0gvb7jbz","many_one","0","direct_first","1","dt05rt15","0","26","1","1","3","1","","0","1","0","null","","","<img src = 'targets/40.png' width = '100%;'>","null","","","","","","","","","",""
"","html-keyboard-response","299","751773","0.0-12.0-3.15","9k0gvb7jbz","many_one","0","direct_first","1","dt05rt15","0","26","1","1","3","1","","0","1","0","592","","","<img src = 'targets/mask.png' width = '100%;'>","68","neg","GS","abstract","2","category2/men.png","","targets/40.png","indirect","0","39"
"","html-keyboard-response","300","753304","0.0-12.0-0.16","9k0gvb7jbz","many_one","0","direct_first","1","dt05rt15","0","26","1","1","3","1","","0","1","0","null","","","<div style=""font-size:60px;"">+</div>","null","","","","","","","","","",""
"","html-keyboard-response","301","753412","0.0-12.0-1.16","9k0gvb7jbz","many_one","0","direct_first","1","dt05rt15","0","26","1","1","3","1","","0","1","0","null","","","<img src = 'category4/lin.png' width = '100%;'>","null","","","","","","","","","",""
"","html-keyboard-response","302","753678","0.0-12.0-2.16","9k0gvb7jbz","many_one","0","direct_first","1","dt05rt15","0","26","1","1","3","1","","0","1","0","null","","","<img src = 'targets/2.png' width = '100%;'>","null","","","","","","","","","",""
"","html-keyboard-response","303","754573","0.0-12.0-3.16","9k0gvb7jbz","many_one","0","direct_first","1","dt05rt15","0","26","1","1","3","1","","0","1","0","893","","","<img src = 'targets/mask.png' width = '100%;'>","75","neg","GS","abstract","4","category4/lin.png","","targets/2.png","indirect","1","40"
"","html-keyboard-response","304","756079","0.0-12.0-0.17","9k0gvb7jbz","many_one","0","direct_first","1","dt05rt15","0","26","1","1","3","1","","0","1","0","null","","","<div style=""font-size:60px;"">+</div>","null","","","","","","","","","",""
"","html-keyboard-response","305","756183","0.0-12.0-1.17","9k0gvb7jbz","many_one","0","direct_first","1","dt05rt15","0","26","1","1","3","1","","0","1","0","null","","","<img src = 'category3/wang.png' width = '100%;'>","null","","","","","","","","","",""
"","html-keyboard-response","306","756450","0.0-12.0-2.17","9k0gvb7jbz","many_one","0","direct_first","1","dt05rt15","0","26","1","1","3","1","","0","1","0","null","","","<img src = 'targets/39.png' width = '100%;'>","null","","","","","","","","","",""
"","html-keyboard-response","307","757013","0.0-12.0-3.17","9k0gvb7jbz","many_one","0","direct_first","1","dt05rt15","0","26","1","1","3","1","","0","1","0","561","","","<img src = 'targets/mask.png' width = '100%;'>","75","pos","GS","abstract","3","category3/wang.png","","targets/39.png","indirect","1","41"
"","html-keyboard-response","308","758535","0.0-12.0-0.18","9k0gvb7jbz","many_one","0","direct_first","1","dt05rt15","0","26","1","1","3","1","","0","1","0","null","","","<div style=""font-size:60px;"">+</div>","null","","","","","","","","","",""
"","html-keyboard-response","309","758642","0.0-12.0-1.18","9k0gvb7jbz","many_one","0","direct_first","1","dt05rt15","0","26","1","1","3","1","","0","1","0","null","","","<img src = 'category1/CS7.png' width = '100%;'>","null","","","","","","","","","",""
"","html-keyboard-response","310","758908","0.0-12.0-2.18","9k0gvb7jbz","many_one","0","direct_first","1","dt05rt15","0","26","1","1","3","1","","0","1","0","null","","","<img src = 'targets/10.png' width = '100%;'>","null","","","","","","","","","",""
"","html-keyboard-response","311","759483","0.0-12.0-3.18","9k0gvb7jbz","many_one","0","direct_first","1","dt05rt15","0","26","1","1","3","1","","0","1","0","573","","","<img src = 'targets/mask.png' width = '100%;'>","75","pos","GS","GSold","1","category1/CS7.png","","targets/10.png","indirect","1","42"
"","html-keyboard-response","312","761005","0.0-12.0-0.19","9k0gvb7jbz","many_one","0","direct_first","1","dt05rt15","0","26","1","1","3","1","","0","1","0","null","","","<div style=""font-size:60px;"">+</div>","null","","","","","","","","","",""
"","html-keyboard-response","313","761112","0.0-12.0-1.19","9k0gvb7jbz","many_one","0","direct_first","1","dt05rt15","0","26","1","1","3","1","","0","1","0","null","","","<img src = 'category4/GS2.png' width = '100%;'>","null","","","","","","","","","",""
"","html-keyboard-response","314","761377","0.0-12.0-2.19","9k0gvb7jbz","many_one","0","direct_first","1","dt05rt15","0","26","1","1","3","1","","0","1","0","null","","","<img src = 'targets/48.png' width = '100%;'>","null","","","","","","","","","",""
"","html-keyboard-response","315","762093","0.0-12.0-3.19","9k0gvb7jbz","many_one","0","direct_first","1","dt05rt15","0","26","1","1","3","1","","0","1","0","711","","","<img src = 'targets/mask.png' width = '100%;'>","75","neg","GS","GSnew","4","category4/GS2.png","","targets/48.png","indirect","1","43"
"","html-keyboard-response","316","763615","0.0-12.0-0.20","9k0gvb7jbz","many_one","0","direct_first","1","dt05rt15","0","26","1","1","3","1","","0","1","0","null","","","<div style=""font-size:60px;"">+</div>","null","","","","","","","","","",""
"","html-keyboard-response","317","763722","0.0-12.0-1.20","9k0gvb7jbz","many_one","0","direct_first","1","dt05rt15","0","26","1","1","3","1","","0","1","0","null","","","<img src = 'category1/GS2.png' width = '100%;'>","null","","","","","","","","","",""
"","html-keyboard-response","318","763988","0.0-12.0-2.20","9k0gvb7jbz","many_one","0","direct_first","1","dt05rt15","0","26","1","1","3","1","","0","1","0","null","","","<img src = 'targets/17.png' width = '100%;'>","null","","","","","","","","","",""
"","html-keyboard-response","319","764543","0.0-12.0-3.20","9k0gvb7jbz","many_one","0","direct_first","1","dt05rt15","0","26","1","1","3","1","","0","1","0","553","","","<img src = 'targets/mask.png' width = '100%;'>","68","pos","GS","GSnew","1","category1/GS2.png","","targets/17.png","indirect","0","44"
"","html-keyboard-response","320","766075","0.0-12.0-0.21","9k0gvb7jbz","many_one","0","direct_first","1","dt05rt15","0","26","1","1","3","1","","0","1","0","null","","","<div style=""font-size:60px;"">+</div>","null","","","","","","","","","",""
"","html-keyboard-response","321","766174","0.0-12.0-1.21","9k0gvb7jbz","many_one","0","direct_first","1","dt05rt15","0","26","1","1","3","1","","0","1","0","null","","","<img src = 'category2/GS2.png' width = '100%;'>","null","","","","","","","","","",""
"","html-keyboard-response","322","766447","0.0-12.0-2.21","9k0gvb7jbz","many_one","0","direct_first","1","dt05rt15","0","26","1","1","3","1","","0","1","0","null","","","<img src = 'targets/19.png' width = '100%;'>","null","","","","","","","","","",""
"","html-keyboard-response","323","768083","0.0-12.0-3.21","9k0gvb7jbz","many_one","0","direct_first","1","dt05rt15","0","26","1","1","3","1","","0","1","0","1634","","","<img src = 'targets/mask.png' width = '100%;'>","68","neg","GS","GSnew","2","category2/GS2.png","","targets/19.png","indirect","0","45"
"","html-keyboard-response","324","769614","0.0-12.0-0.22","9k0gvb7jbz","many_one","0","direct_first","1","dt05rt15","0","26","1","1","3","1","","0","1","0","null","","","<div style=""font-size:60px;"">+</div>","null","","","","","","","","","",""
"","html-keyboard-response","325","769722","0.0-12.0-1.22","9k0gvb7jbz","many_one","0","direct_first","1","dt05rt15","0","26","1","1","3","1","","0","1","0","null","","","<img src = 'category2/CS7.png' width = '100%;'>","null","","","","","","","","","",""
"","html-keyboard-response","326","769987","0.0-12.0-2.22","9k0gvb7jbz","many_one","0","direct_first","1","dt05rt15","0","26","1","1","3","1","","0","1","0","null","","","<img src = 'targets/6.png' width = '100%;'>","null","","","","","","","","","",""
"","html-keyboard-response","327","771003","0.0-12.0-3.22","9k0gvb7jbz","many_one","0","direct_first","1","dt05rt15","0","26","1","1","3","1","","0","1","0","1014","","","<img src = 'targets/mask.png' width = '100%;'>","68","neg","GS","GSold","2","category2/CS7.png","","targets/6.png","indirect","0","46"
"","html-keyboard-response","328","772514","0.0-12.0-0.23","9k0gvb7jbz","many_one","0","direct_first","1","dt05rt15","0","26","1","1","3","1","","0","1","0","null","","","<div style=""font-size:60px;"">+</div>","null","","","","","","","","","",""
"","html-keyboard-response","329","772621","0.0-12.0-1.23","9k0gvb7jbz","many_one","0","direct_first","1","dt05rt15","0","26","1","1","3","1","","0","1","0","null","","","<img src = 'category3/CS5.png' width = '100%;'>","null","","","","","","","","","",""
"","html-keyboard-response","330","772887","0.0-12.0-2.23","9k0gvb7jbz","many_one","0","direct_first","1","dt05rt15","0","26","1","1","3","1","","0","1","0","null","","","<img src = 'targets/13.png' width = '100%;'>","null","","","","","","","","","",""
"","html-keyboard-response","331","773514","0.0-12.0-3.23","9k0gvb7jbz","many_one","0","direct_first","1","dt05rt15","0","26","1","1","3","1","","0","1","0","624","","","<img src = 'targets/mask.png' width = '100%;'>","68","pos","GS","GSold","3","category3/CS5.png","","targets/13.png","indirect","0","47"
"","survey-html-form","332","780852","0.0-13.0","9k0gvb7jbz","many_one","0","direct_first","1","dt05rt15","0","26","1","1","3","1","","0","1","0","6794","","{}","","","","","","","","","","","",""
