"success","trial_type","trial_index","time_elapsed","internal_node_id","subject","condition","condition_code","measure","measure_code","codeword","gender","age","education","chinese","fach","handedness","rt","url","responses","stimulus","key_press","val","type","type_specific","category","cs_selected","target","indirect","task","nr_pres","response"
"true","fullscreen","0","1728","0.0-0.0","uvwxyp6tl5","many_one","0","indirect_first","0","AN06AN06","0","21","1","1","1","1","","","","","","","","","","","","","","",""
"","external-html","1","219900","0.0-1.0","uvwxyp6tl5","many_one","0","indirect_first","0","AN06AN06","0","21","1","1","1","1","218156","text/information.html","","","","","","","","","","","","",""
"","external-html","2","257714","0.0-2.0","uvwxyp6tl5","many_one","0","indirect_first","0","AN06AN06","0","21","1","1","1","1","37801","text/consent.html","","","","","","","","","","","","",""
"","survey-html-form","3","316712","0.0-3.0","uvwxyp6tl5","many_one","0","indirect_first","0","AN06AN06","0","21","1","1","1","1","58997","","{""codeword_enter"":""AN06AN06""}","","","","","","","","","","","",""
"","survey-html-form","4","334946","0.0-4.0","uvwxyp6tl5","many_one","0","indirect_first","0","AN06AN06","0","21","1","1","1","1","18232","","{""age"":""21"",""education"":""1"",""subject"":""1"",""gender"":""0"",""handedness"":""1"",""chinese"":""1""}","","","","","","","","","","","",""
"","survey-html-form","5","366736","0.0-5.0","uvwxyp6tl5","many_one","0","indirect_first","0","AN06AN06","0","21","1","1","1","1","31791","","{}","","","","","","","","","","","",""
"","html-keyboard-response","6","370763","0.0-6.0-0.0-0.0","uvwxyp6tl5","many_one","0","indirect_first","0","AN06AN06","0","21","1","1","1","1","null","","","<div class = 'row'><div class = 'column'><img src = 'uspos/2150.bmp' width = '100%;'></div><div class = 'column'><img src = 'category3/CS6.png' width = '70%;'></div></div>","null","pos","CS","CS","3","category3/CS6.png","","","","",""
"","html-keyboard-response","7","373302","0.0-6.0-0.0-0.1","uvwxyp6tl5","many_one","0","indirect_first","0","AN06AN06","0","21","1","1","1","1","null","","","<div class = 'row'><div class = 'column'><img src = 'usneg/9340.bmp' width = '100%;'></div><div class = 'column'><img src = 'category2/CS10.png' width = '70%;'></div></div>","null","neg","CS","CS","2","category2/CS10.png","","","","",""
"","html-keyboard-response","8","375842","0.0-6.0-0.0-0.2","uvwxyp6tl5","many_one","0","indirect_first","0","AN06AN06","0","21","1","1","1","1","null","","","<div class = 'row'><div class = 'column'><img src = 'category4/CS1.png' width = '70%;'></div><div class = 'column'><img src = 'usneg/9330.bmp' width = '100%;'></div></div>","null","neg","CS","CS","4","category4/CS1.png","","","","",""
"","html-keyboard-response","9","378383","0.0-6.0-0.0-0.3","uvwxyp6tl5","many_one","0","indirect_first","0","AN06AN06","0","21","1","1","1","1","null","","","<div class = 'row'><div class = 'column'><img src = 'uspos/1440.bmp' width = '100%;'></div><div class = 'column'><img src = 'category1/CS3.png' width = '70%;'></div></div>","null","pos","CS","CS","1","category1/CS3.png","","","","",""
"","html-keyboard-response","10","380922","0.0-6.0-0.0-0.4","uvwxyp6tl5","many_one","0","indirect_first","0","AN06AN06","0","21","1","1","1","1","null","","","<div class = 'row'><div class = 'column'><img src = 'category2/CS1.png' width = '70%;'></div><div class = 'column'><img src = 'usneg/9435.bmp' width = '100%;'></div></div>","null","neg","CS","CS","2","category2/CS1.png","","","","",""
"","html-keyboard-response","11","383462","0.0-6.0-0.0-0.5","uvwxyp6tl5","many_one","0","indirect_first","0","AN06AN06","0","21","1","1","1","1","null","","","<div class = 'row'><div class = 'column'><img src = 'category1/CS4.png' width = '70%;'></div><div class = 'column'><img src = 'uspos/2341.bmp' width = '100%;'></div></div>","null","pos","CS","CS","1","category1/CS4.png","","","","",""
"","html-keyboard-response","12","385991","0.0-6.0-0.0-0.6","uvwxyp6tl5","many_one","0","indirect_first","0","AN06AN06","0","21","1","1","1","1","null","","","<div class = 'row'><div class = 'column'><img src = 'category4/CS7.png' width = '70%;'></div><div class = 'column'><img src = 'usneg/9181.bmp' width = '100%;'></div></div>","null","neg","CS","CS","4","category4/CS7.png","","","","",""
"","html-keyboard-response","13","388531","0.0-6.0-0.0-0.7","uvwxyp6tl5","many_one","0","indirect_first","0","AN06AN06","0","21","1","1","1","1","null","","","<div class = 'row'><div class = 'column'><img src = 'uspos/1710.bmp' width = '100%;'></div><div class = 'column'><img src = 'category3/CS7.png' width = '70%;'></div></div>","null","pos","CS","CS","3","category3/CS7.png","","","","",""
"","html-keyboard-response","14","391071","0.0-6.0-0.0-0.8","uvwxyp6tl5","many_one","0","indirect_first","0","AN06AN06","0","21","1","1","1","1","null","","","<div class = 'row'><div class = 'column'><img src = 'uspos/2550.bmp' width = '100%;'></div><div class = 'column'><img src = 'category3/CS10.png' width = '70%;'></div></div>","null","pos","CS","CS","3","category3/CS10.png","","","","",""
"","html-keyboard-response","15","393602","0.0-6.0-0.0-0.9","uvwxyp6tl5","many_one","0","indirect_first","0","AN06AN06","0","21","1","1","1","1","null","","","<div class = 'row'><div class = 'column'><img src = 'usneg/2900.bmp' width = '100%;'></div><div class = 'column'><img src = 'category2/CS3.png' width = '70%;'></div></div>","null","neg","CS","CS","2","category2/CS3.png","","","","",""
"","html-keyboard-response","16","396142","0.0-6.0-0.0-0.10","uvwxyp6tl5","many_one","0","indirect_first","0","AN06AN06","0","21","1","1","1","1","null","","","<div class = 'row'><div class = 'column'><img src = 'category1/CS6.png' width = '70%;'></div><div class = 'column'><img src = 'uspos/2058.bmp' width = '100%;'></div></div>","null","pos","CS","CS","1","category1/CS6.png","","","","",""
"","html-keyboard-response","17","398681","0.0-6.0-0.0-0.11","uvwxyp6tl5","many_one","0","indirect_first","0","AN06AN06","0","21","1","1","1","1","null","","","<div class = 'row'><div class = 'column'><img src = 'uspos/5629.bmp' width = '100%;'></div><div class = 'column'><img src = 'category3/CS9.png' width = '70%;'></div></div>","null","pos","CS","CS","3","category3/CS9.png","","","","",""
"","html-keyboard-response","18","401221","0.0-6.0-0.0-0.12","uvwxyp6tl5","many_one","0","indirect_first","0","AN06AN06","0","21","1","1","1","1","null","","","<div class = 'row'><div class = 'column'><img src = 'uspos/2040.bmp' width = '100%;'></div><div class = 'column'><img src = 'category1/CS8.png' width = '70%;'></div></div>","null","pos","CS","CS","1","category1/CS8.png","","","","",""
"","html-keyboard-response","19","403751","0.0-6.0-0.0-0.13","uvwxyp6tl5","many_one","0","indirect_first","0","AN06AN06","0","21","1","1","1","1","null","","","<div class = 'row'><div class = 'column'><img src = 'usneg/9584.bmp' width = '100%;'></div><div class = 'column'><img src = 'category4/CS4.png' width = '70%;'></div></div>","null","neg","CS","CS","4","category4/CS4.png","","","","",""
"","html-keyboard-response","20","406292","0.0-6.0-0.0-0.14","uvwxyp6tl5","many_one","0","indirect_first","0","AN06AN06","0","21","1","1","1","1","null","","","<div class = 'row'><div class = 'column'><img src = 'uspos/2160.bmp' width = '100%;'></div><div class = 'column'><img src = 'category3/CS8.png' width = '70%;'></div></div>","null","pos","CS","CS","3","category3/CS8.png","","","","",""
"","html-keyboard-response","21","408832","0.0-6.0-0.0-0.15","uvwxyp6tl5","many_one","0","indirect_first","0","AN06AN06","0","21","1","1","1","1","null","","","<div class = 'row'><div class = 'column'><img src = 'category1/CS10.png' width = '70%;'></div><div class = 'column'><img src = 'uspos/2360.bmp' width = '100%;'></div></div>","null","pos","CS","CS","1","category1/CS10.png","","","","",""
"","html-keyboard-response","22","411372","0.0-6.0-0.0-0.16","uvwxyp6tl5","many_one","0","indirect_first","0","AN06AN06","0","21","1","1","1","1","null","","","<div class = 'row'><div class = 'column'><img src = 'category2/CS4.png' width = '70%;'></div><div class = 'column'><img src = 'usneg/9635.2.bmp' width = '100%;'></div></div>","null","neg","CS","CS","2","category2/CS4.png","","","","",""
"","html-keyboard-response","23","413911","0.0-6.0-0.0-0.17","uvwxyp6tl5","many_one","0","indirect_first","0","AN06AN06","0","21","1","1","1","1","null","","","<div class = 'row'><div class = 'column'><img src = 'usneg/9000.bmp' width = '100%;'></div><div class = 'column'><img src = 'category4/CS10.png' width = '70%;'></div></div>","null","neg","CS","CS","4","category4/CS10.png","","","","",""
"","html-keyboard-response","24","416441","0.0-6.0-0.0-0.18","uvwxyp6tl5","many_one","0","indirect_first","0","AN06AN06","0","21","1","1","1","1","null","","","<div class = 'row'><div class = 'column'><img src = 'usneg/9290.bmp' width = '100%;'></div><div class = 'column'><img src = 'category4/CS6.png' width = '70%;'></div></div>","null","neg","CS","CS","4","category4/CS6.png","","","","",""
"","html-keyboard-response","25","418982","0.0-6.0-0.0-0.19","uvwxyp6tl5","many_one","0","indirect_first","0","AN06AN06","0","21","1","1","1","1","null","","","<div class = 'row'><div class = 'column'><img src = 'category2/CS7.png' width = '70%;'></div><div class = 'column'><img src = 'usneg/9920.bmp' width = '100%;'></div></div>","null","neg","CS","CS","2","category2/CS7.png","","","","",""
"","survey-html-form","26","449320","0.0-6.0-1.0","uvwxyp6tl5","many_one","0","indirect_first","0","AN06AN06","0","21","1","1","1","1","29818","","{}","","","","","","","","","","","",""
"","html-keyboard-response","27","453341","0.0-6.0-2.0-0.0","uvwxyp6tl5","many_one","0","indirect_first","0","AN06AN06","0","21","1","1","1","1","null","","","<div class = 'row'><div class = 'column'><img src = 'category2/CS1.png' width = '70%;'></div><div class = 'column'><img src = 'usneg/9435.bmp' width = '100%;'></div></div>","null","neg","CS","CS","2","category2/CS1.png","","","","",""
"","html-keyboard-response","28","455881","0.0-6.0-2.0-0.1","uvwxyp6tl5","many_one","0","indirect_first","0","AN06AN06","0","21","1","1","1","1","null","","","<div class = 'row'><div class = 'column'><img src = 'category4/CS4.png' width = '70%;'></div><div class = 'column'><img src = 'usneg/9584.bmp' width = '100%;'></div></div>","null","neg","CS","CS","4","category4/CS4.png","","","","",""
"","html-keyboard-response","29","458411","0.0-6.0-2.0-0.2","uvwxyp6tl5","many_one","0","indirect_first","0","AN06AN06","0","21","1","1","1","1","null","","","<div class = 'row'><div class = 'column'><img src = 'usneg/9330.bmp' width = '100%;'></div><div class = 'column'><img src = 'category4/CS1.png' width = '70%;'></div></div>","null","neg","CS","CS","4","category4/CS1.png","","","","",""
"","html-keyboard-response","30","460951","0.0-6.0-2.0-0.3","uvwxyp6tl5","many_one","0","indirect_first","0","AN06AN06","0","21","1","1","1","1","null","","","<div class = 'row'><div class = 'column'><img src = 'category4/CS6.png' width = '70%;'></div><div class = 'column'><img src = 'usneg/9290.bmp' width = '100%;'></div></div>","null","neg","CS","CS","4","category4/CS6.png","","","","",""
"","html-keyboard-response","31","463490","0.0-6.0-2.0-0.4","uvwxyp6tl5","many_one","0","indirect_first","0","AN06AN06","0","21","1","1","1","1","null","","","<div class = 'row'><div class = 'column'><img src = 'usneg/9181.bmp' width = '100%;'></div><div class = 'column'><img src = 'category4/CS7.png' width = '70%;'></div></div>","null","neg","CS","CS","4","category4/CS7.png","","","","",""
"","html-keyboard-response","32","466021","0.0-6.0-2.0-0.5","uvwxyp6tl5","many_one","0","indirect_first","0","AN06AN06","0","21","1","1","1","1","null","","","<div class = 'row'><div class = 'column'><img src = 'usneg/9340.bmp' width = '100%;'></div><div class = 'column'><img src = 'category2/CS10.png' width = '70%;'></div></div>","null","neg","CS","CS","2","category2/CS10.png","","","","",""
"","html-keyboard-response","33","468551","0.0-6.0-2.0-0.6","uvwxyp6tl5","many_one","0","indirect_first","0","AN06AN06","0","21","1","1","1","1","null","","","<div class = 'row'><div class = 'column'><img src = 'uspos/2150.bmp' width = '100%;'></div><div class = 'column'><img src = 'category3/CS6.png' width = '70%;'></div></div>","null","pos","CS","CS","3","category3/CS6.png","","","","",""
"","html-keyboard-response","34","471071","0.0-6.0-2.0-0.7","uvwxyp6tl5","many_one","0","indirect_first","0","AN06AN06","0","21","1","1","1","1","null","","","<div class = 'row'><div class = 'column'><img src = 'category1/CS6.png' width = '70%;'></div><div class = 'column'><img src = 'uspos/2058.bmp' width = '100%;'></div></div>","null","pos","CS","CS","1","category1/CS6.png","","","","",""
"","html-keyboard-response","35","473611","0.0-6.0-2.0-0.8","uvwxyp6tl5","many_one","0","indirect_first","0","AN06AN06","0","21","1","1","1","1","null","","","<div class = 'row'><div class = 'column'><img src = 'uspos/2040.bmp' width = '100%;'></div><div class = 'column'><img src = 'category1/CS8.png' width = '70%;'></div></div>","null","pos","CS","CS","1","category1/CS8.png","","","","",""
"","html-keyboard-response","36","476147","0.0-6.0-2.0-0.9","uvwxyp6tl5","many_one","0","indirect_first","0","AN06AN06","0","21","1","1","1","1","null","","","<div class = 'row'><div class = 'column'><img src = 'uspos/2341.bmp' width = '100%;'></div><div class = 'column'><img src = 'category1/CS4.png' width = '70%;'></div></div>","null","pos","CS","CS","1","category1/CS4.png","","","","",""
"","html-keyboard-response","37","478651","0.0-6.0-2.0-0.10","uvwxyp6tl5","many_one","0","indirect_first","0","AN06AN06","0","21","1","1","1","1","null","","","<div class = 'row'><div class = 'column'><img src = 'category3/CS8.png' width = '70%;'></div><div class = 'column'><img src = 'uspos/2160.bmp' width = '100%;'></div></div>","null","pos","CS","CS","3","category3/CS8.png","","","","",""
"","html-keyboard-response","38","481191","0.0-6.0-2.0-0.11","uvwxyp6tl5","many_one","0","indirect_first","0","AN06AN06","0","21","1","1","1","1","null","","","<div class = 'row'><div class = 'column'><img src = 'usneg/2900.bmp' width = '100%;'></div><div class = 'column'><img src = 'category2/CS3.png' width = '70%;'></div></div>","null","neg","CS","CS","2","category2/CS3.png","","","","",""
"","html-keyboard-response","39","483731","0.0-6.0-2.0-0.12","uvwxyp6tl5","many_one","0","indirect_first","0","AN06AN06","0","21","1","1","1","1","null","","","<div class = 'row'><div class = 'column'><img src = 'category1/CS10.png' width = '70%;'></div><div class = 'column'><img src = 'uspos/2360.bmp' width = '100%;'></div></div>","null","pos","CS","CS","1","category1/CS10.png","","","","",""
"","html-keyboard-response","40","486271","0.0-6.0-2.0-0.13","uvwxyp6tl5","many_one","0","indirect_first","0","AN06AN06","0","21","1","1","1","1","null","","","<div class = 'row'><div class = 'column'><img src = 'usneg/9635.2.bmp' width = '100%;'></div><div class = 'column'><img src = 'category2/CS4.png' width = '70%;'></div></div>","null","neg","CS","CS","2","category2/CS4.png","","","","",""
"","html-keyboard-response","41","488811","0.0-6.0-2.0-0.14","uvwxyp6tl5","many_one","0","indirect_first","0","AN06AN06","0","21","1","1","1","1","null","","","<div class = 'row'><div class = 'column'><img src = 'category1/CS3.png' width = '70%;'></div><div class = 'column'><img src = 'uspos/1440.bmp' width = '100%;'></div></div>","null","pos","CS","CS","1","category1/CS3.png","","","","",""
"","html-keyboard-response","42","491331","0.0-6.0-2.0-0.15","uvwxyp6tl5","many_one","0","indirect_first","0","AN06AN06","0","21","1","1","1","1","null","","","<div class = 'row'><div class = 'column'><img src = 'usneg/9920.bmp' width = '100%;'></div><div class = 'column'><img src = 'category2/CS7.png' width = '70%;'></div></div>","null","neg","CS","CS","2","category2/CS7.png","","","","",""
"","html-keyboard-response","43","493871","0.0-6.0-2.0-0.16","uvwxyp6tl5","many_one","0","indirect_first","0","AN06AN06","0","21","1","1","1","1","null","","","<div class = 'row'><div class = 'column'><img src = 'uspos/1710.bmp' width = '100%;'></div><div class = 'column'><img src = 'category3/CS7.png' width = '70%;'></div></div>","null","pos","CS","CS","3","category3/CS7.png","","","","",""
"","html-keyboard-response","44","496412","0.0-6.0-2.0-0.17","uvwxyp6tl5","many_one","0","indirect_first","0","AN06AN06","0","21","1","1","1","1","null","","","<div class = 'row'><div class = 'column'><img src = 'category3/CS9.png' width = '70%;'></div><div class = 'column'><img src = 'uspos/5629.bmp' width = '100%;'></div></div>","null","pos","CS","CS","3","category3/CS9.png","","","","",""
"","html-keyboard-response","45","498952","0.0-6.0-2.0-0.18","uvwxyp6tl5","many_one","0","indirect_first","0","AN06AN06","0","21","1","1","1","1","null","","","<div class = 'row'><div class = 'column'><img src = 'category4/CS10.png' width = '70%;'></div><div class = 'column'><img src = 'usneg/9000.bmp' width = '100%;'></div></div>","null","neg","CS","CS","4","category4/CS10.png","","","","",""
"","html-keyboard-response","46","501492","0.0-6.0-2.0-0.19","uvwxyp6tl5","many_one","0","indirect_first","0","AN06AN06","0","21","1","1","1","1","null","","","<div class = 'row'><div class = 'column'><img src = 'uspos/2550.bmp' width = '100%;'></div><div class = 'column'><img src = 'category3/CS10.png' width = '70%;'></div></div>","null","pos","CS","CS","3","category3/CS10.png","","","","",""
"","survey-html-form","47","511679","0.0-6.0-3.0","uvwxyp6tl5","many_one","0","indirect_first","0","AN06AN06","0","21","1","1","1","1","9667","","{}","","","","","","","","","","","",""
"","html-keyboard-response","48","515711","0.0-6.0-4.0-0.0","uvwxyp6tl5","many_one","0","indirect_first","0","AN06AN06","0","21","1","1","1","1","null","","","<div class = 'row'><div class = 'column'><img src = 'usneg/9920.bmp' width = '100%;'></div><div class = 'column'><img src = 'category2/CS7.png' width = '70%;'></div></div>","null","neg","CS","CS","2","category2/CS7.png","","","","",""
"","html-keyboard-response","49","518251","0.0-6.0-4.0-0.1","uvwxyp6tl5","many_one","0","indirect_first","0","AN06AN06","0","21","1","1","1","1","null","","","<div class = 'row'><div class = 'column'><img src = 'category4/CS6.png' width = '70%;'></div><div class = 'column'><img src = 'usneg/9290.bmp' width = '100%;'></div></div>","null","neg","CS","CS","4","category4/CS6.png","","","","",""
"","html-keyboard-response","50","520791","0.0-6.0-4.0-0.2","uvwxyp6tl5","many_one","0","indirect_first","0","AN06AN06","0","21","1","1","1","1","null","","","<div class = 'row'><div class = 'column'><img src = 'usneg/9000.bmp' width = '100%;'></div><div class = 'column'><img src = 'category4/CS10.png' width = '70%;'></div></div>","null","neg","CS","CS","4","category4/CS10.png","","","","",""
"","html-keyboard-response","51","523331","0.0-6.0-4.0-0.3","uvwxyp6tl5","many_one","0","indirect_first","0","AN06AN06","0","21","1","1","1","1","null","","","<div class = 'row'><div class = 'column'><img src = 'usneg/9635.2.bmp' width = '100%;'></div><div class = 'column'><img src = 'category2/CS4.png' width = '70%;'></div></div>","null","neg","CS","CS","2","category2/CS4.png","","","","",""
"","html-keyboard-response","52","525871","0.0-6.0-4.0-0.4","uvwxyp6tl5","many_one","0","indirect_first","0","AN06AN06","0","21","1","1","1","1","null","","","<div class = 'row'><div class = 'column'><img src = 'usneg/9584.bmp' width = '100%;'></div><div class = 'column'><img src = 'category4/CS4.png' width = '70%;'></div></div>","null","neg","CS","CS","4","category4/CS4.png","","","","",""
"","html-keyboard-response","53","528411","0.0-6.0-4.0-0.5","uvwxyp6tl5","many_one","0","indirect_first","0","AN06AN06","0","21","1","1","1","1","null","","","<div class = 'row'><div class = 'column'><img src = 'uspos/2150.bmp' width = '100%;'></div><div class = 'column'><img src = 'category3/CS6.png' width = '70%;'></div></div>","null","pos","CS","CS","3","category3/CS6.png","","","","",""
"","html-keyboard-response","54","530951","0.0-6.0-4.0-0.6","uvwxyp6tl5","many_one","0","indirect_first","0","AN06AN06","0","21","1","1","1","1","null","","","<div class = 'row'><div class = 'column'><img src = 'category1/CS10.png' width = '70%;'></div><div class = 'column'><img src = 'uspos/2360.bmp' width = '100%;'></div></div>","null","pos","CS","CS","1","category1/CS10.png","","","","",""
"","html-keyboard-response","55","533491","0.0-6.0-4.0-0.7","uvwxyp6tl5","many_one","0","indirect_first","0","AN06AN06","0","21","1","1","1","1","null","","","<div class = 'row'><div class = 'column'><img src = 'usneg/9340.bmp' width = '100%;'></div><div class = 'column'><img src = 'category2/CS10.png' width = '70%;'></div></div>","null","neg","CS","CS","2","category2/CS10.png","","","","",""
"","html-keyboard-response","56","536031","0.0-6.0-4.0-0.8","uvwxyp6tl5","many_one","0","indirect_first","0","AN06AN06","0","21","1","1","1","1","null","","","<div class = 'row'><div class = 'column'><img src = 'category3/CS10.png' width = '70%;'></div><div class = 'column'><img src = 'uspos/2550.bmp' width = '100%;'></div></div>","null","pos","CS","CS","3","category3/CS10.png","","","","",""
"","html-keyboard-response","57","538551","0.0-6.0-4.0-0.9","uvwxyp6tl5","many_one","0","indirect_first","0","AN06AN06","0","21","1","1","1","1","null","","","<div class = 'row'><div class = 'column'><img src = 'usneg/9330.bmp' width = '100%;'></div><div class = 'column'><img src = 'category4/CS1.png' width = '70%;'></div></div>","null","neg","CS","CS","4","category4/CS1.png","","","","",""
"","html-keyboard-response","58","541091","0.0-6.0-4.0-0.10","uvwxyp6tl5","many_one","0","indirect_first","0","AN06AN06","0","21","1","1","1","1","null","","","<div class = 'row'><div class = 'column'><img src = 'category3/CS8.png' width = '70%;'></div><div class = 'column'><img src = 'uspos/2160.bmp' width = '100%;'></div></div>","null","pos","CS","CS","3","category3/CS8.png","","","","",""
"","html-keyboard-response","59","543631","0.0-6.0-4.0-0.11","uvwxyp6tl5","many_one","0","indirect_first","0","AN06AN06","0","21","1","1","1","1","null","","","<div class = 'row'><div class = 'column'><img src = 'uspos/1710.bmp' width = '100%;'></div><div class = 'column'><img src = 'category3/CS7.png' width = '70%;'></div></div>","null","pos","CS","CS","3","category3/CS7.png","","","","",""
"","html-keyboard-response","60","546171","0.0-6.0-4.0-0.12","uvwxyp6tl5","many_one","0","indirect_first","0","AN06AN06","0","21","1","1","1","1","null","","","<div class = 'row'><div class = 'column'><img src = 'category2/CS1.png' width = '70%;'></div><div class = 'column'><img src = 'usneg/9435.bmp' width = '100%;'></div></div>","null","neg","CS","CS","2","category2/CS1.png","","","","",""
"","html-keyboard-response","61","548711","0.0-6.0-4.0-0.13","uvwxyp6tl5","many_one","0","indirect_first","0","AN06AN06","0","21","1","1","1","1","null","","","<div class = 'row'><div class = 'column'><img src = 'category4/CS7.png' width = '70%;'></div><div class = 'column'><img src = 'usneg/9181.bmp' width = '100%;'></div></div>","null","neg","CS","CS","4","category4/CS7.png","","","","",""
"","html-keyboard-response","62","551251","0.0-6.0-4.0-0.14","uvwxyp6tl5","many_one","0","indirect_first","0","AN06AN06","0","21","1","1","1","1","null","","","<div class = 'row'><div class = 'column'><img src = 'usneg/2900.bmp' width = '100%;'></div><div class = 'column'><img src = 'category2/CS3.png' width = '70%;'></div></div>","null","neg","CS","CS","2","category2/CS3.png","","","","",""
"","html-keyboard-response","63","553792","0.0-6.0-4.0-0.15","uvwxyp6tl5","many_one","0","indirect_first","0","AN06AN06","0","21","1","1","1","1","null","","","<div class = 'row'><div class = 'column'><img src = 'uspos/2341.bmp' width = '100%;'></div><div class = 'column'><img src = 'category1/CS4.png' width = '70%;'></div></div>","null","pos","CS","CS","1","category1/CS4.png","","","","",""
"","html-keyboard-response","64","556321","0.0-6.0-4.0-0.16","uvwxyp6tl5","many_one","0","indirect_first","0","AN06AN06","0","21","1","1","1","1","null","","","<div class = 'row'><div class = 'column'><img src = 'category3/CS9.png' width = '70%;'></div><div class = 'column'><img src = 'uspos/5629.bmp' width = '100%;'></div></div>","null","pos","CS","CS","3","category3/CS9.png","","","","",""
"","html-keyboard-response","65","558862","0.0-6.0-4.0-0.17","uvwxyp6tl5","many_one","0","indirect_first","0","AN06AN06","0","21","1","1","1","1","null","","","<div class = 'row'><div class = 'column'><img src = 'uspos/2040.bmp' width = '100%;'></div><div class = 'column'><img src = 'category1/CS8.png' width = '70%;'></div></div>","null","pos","CS","CS","1","category1/CS8.png","","","","",""
"","html-keyboard-response","66","561401","0.0-6.0-4.0-0.18","uvwxyp6tl5","many_one","0","indirect_first","0","AN06AN06","0","21","1","1","1","1","null","","","<div class = 'row'><div class = 'column'><img src = 'category1/CS6.png' width = '70%;'></div><div class = 'column'><img src = 'uspos/2058.bmp' width = '100%;'></div></div>","null","pos","CS","CS","1","category1/CS6.png","","","","",""
"","html-keyboard-response","67","563941","0.0-6.0-4.0-0.19","uvwxyp6tl5","many_one","0","indirect_first","0","AN06AN06","0","21","1","1","1","1","null","","","<div class = 'row'><div class = 'column'><img src = 'category1/CS3.png' width = '70%;'></div><div class = 'column'><img src = 'uspos/1440.bmp' width = '100%;'></div></div>","null","pos","CS","CS","1","category1/CS3.png","","","","",""
"","survey-html-form","68","573320","0.0-6.0-5.0","uvwxyp6tl5","many_one","0","indirect_first","0","AN06AN06","0","21","1","1","1","1","8857","","{}","","","","","","","","","","","",""
"","html-keyboard-response","69","577331","0.0-6.0-6.0-0.0","uvwxyp6tl5","many_one","0","indirect_first","0","AN06AN06","0","21","1","1","1","1","null","","","<div class = 'row'><div class = 'column'><img src = 'category4/CS6.png' width = '70%;'></div><div class = 'column'><img src = 'usneg/9290.bmp' width = '100%;'></div></div>","null","neg","CS","CS","4","category4/CS6.png","","","","",""
"","html-keyboard-response","70","579861","0.0-6.0-6.0-0.1","uvwxyp6tl5","many_one","0","indirect_first","0","AN06AN06","0","21","1","1","1","1","null","","","<div class = 'row'><div class = 'column'><img src = 'category1/CS8.png' width = '70%;'></div><div class = 'column'><img src = 'uspos/2040.bmp' width = '100%;'></div></div>","null","pos","CS","CS","1","category1/CS8.png","","","","",""
"","html-keyboard-response","71","582381","0.0-6.0-6.0-0.2","uvwxyp6tl5","many_one","0","indirect_first","0","AN06AN06","0","21","1","1","1","1","null","","","<div class = 'row'><div class = 'column'><img src = 'category1/CS4.png' width = '70%;'></div><div class = 'column'><img src = 'uspos/2341.bmp' width = '100%;'></div></div>","null","pos","CS","CS","1","category1/CS4.png","","","","",""
"","html-keyboard-response","72","584921","0.0-6.0-6.0-0.3","uvwxyp6tl5","many_one","0","indirect_first","0","AN06AN06","0","21","1","1","1","1","null","","","<div class = 'row'><div class = 'column'><img src = 'category3/CS7.png' width = '70%;'></div><div class = 'column'><img src = 'uspos/1710.bmp' width = '100%;'></div></div>","null","pos","CS","CS","3","category3/CS7.png","","","","",""
"","html-keyboard-response","73","587461","0.0-6.0-6.0-0.4","uvwxyp6tl5","many_one","0","indirect_first","0","AN06AN06","0","21","1","1","1","1","null","","","<div class = 'row'><div class = 'column'><img src = 'uspos/2058.bmp' width = '100%;'></div><div class = 'column'><img src = 'category1/CS6.png' width = '70%;'></div></div>","null","pos","CS","CS","1","category1/CS6.png","","","","",""
"","html-keyboard-response","74","590001","0.0-6.0-6.0-0.5","uvwxyp6tl5","many_one","0","indirect_first","0","AN06AN06","0","21","1","1","1","1","null","","","<div class = 'row'><div class = 'column'><img src = 'category2/CS7.png' width = '70%;'></div><div class = 'column'><img src = 'usneg/9920.bmp' width = '100%;'></div></div>","null","neg","CS","CS","2","category2/CS7.png","","","","",""
"","html-keyboard-response","75","592541","0.0-6.0-6.0-0.6","uvwxyp6tl5","many_one","0","indirect_first","0","AN06AN06","0","21","1","1","1","1","null","","","<div class = 'row'><div class = 'column'><img src = 'uspos/2550.bmp' width = '100%;'></div><div class = 'column'><img src = 'category3/CS10.png' width = '70%;'></div></div>","null","pos","CS","CS","3","category3/CS10.png","","","","",""
"","html-keyboard-response","76","595071","0.0-6.0-6.0-0.7","uvwxyp6tl5","many_one","0","indirect_first","0","AN06AN06","0","21","1","1","1","1","null","","","<div class = 'row'><div class = 'column'><img src = 'category2/CS1.png' width = '70%;'></div><div class = 'column'><img src = 'usneg/9435.bmp' width = '100%;'></div></div>","null","neg","CS","CS","2","category2/CS1.png","","","","",""
"","html-keyboard-response","77","597610","0.0-6.0-6.0-0.8","uvwxyp6tl5","many_one","0","indirect_first","0","AN06AN06","0","21","1","1","1","1","null","","","<div class = 'row'><div class = 'column'><img src = 'usneg/9340.bmp' width = '100%;'></div><div class = 'column'><img src = 'category2/CS10.png' width = '70%;'></div></div>","null","neg","CS","CS","2","category2/CS10.png","","","","",""
"","html-keyboard-response","78","600140","0.0-6.0-6.0-0.9","uvwxyp6tl5","many_one","0","indirect_first","0","AN06AN06","0","21","1","1","1","1","null","","","<div class = 'row'><div class = 'column'><img src = 'category4/CS4.png' width = '70%;'></div><div class = 'column'><img src = 'usneg/9584.bmp' width = '100%;'></div></div>","null","neg","CS","CS","4","category4/CS4.png","","","","",""
"","html-keyboard-response","79","602671","0.0-6.0-6.0-0.10","uvwxyp6tl5","many_one","0","indirect_first","0","AN06AN06","0","21","1","1","1","1","null","","","<div class = 'row'><div class = 'column'><img src = 'uspos/2160.bmp' width = '100%;'></div><div class = 'column'><img src = 'category3/CS8.png' width = '70%;'></div></div>","null","pos","CS","CS","3","category3/CS8.png","","","","",""
"","html-keyboard-response","80","605211","0.0-6.0-6.0-0.11","uvwxyp6tl5","many_one","0","indirect_first","0","AN06AN06","0","21","1","1","1","1","null","","","<div class = 'row'><div class = 'column'><img src = 'usneg/2900.bmp' width = '100%;'></div><div class = 'column'><img src = 'category2/CS3.png' width = '70%;'></div></div>","null","neg","CS","CS","2","category2/CS3.png","","","","",""
"","html-keyboard-response","81","607750","0.0-6.0-6.0-0.12","uvwxyp6tl5","many_one","0","indirect_first","0","AN06AN06","0","21","1","1","1","1","null","","","<div class = 'row'><div class = 'column'><img src = 'category3/CS6.png' width = '70%;'></div><div class = 'column'><img src = 'uspos/2150.bmp' width = '100%;'></div></div>","null","pos","CS","CS","3","category3/CS6.png","","","","",""
"","html-keyboard-response","82","610271","0.0-6.0-6.0-0.13","uvwxyp6tl5","many_one","0","indirect_first","0","AN06AN06","0","21","1","1","1","1","null","","","<div class = 'row'><div class = 'column'><img src = 'category1/CS10.png' width = '70%;'></div><div class = 'column'><img src = 'uspos/2360.bmp' width = '100%;'></div></div>","null","pos","CS","CS","1","category1/CS10.png","","","","",""
"","html-keyboard-response","83","612801","0.0-6.0-6.0-0.14","uvwxyp6tl5","many_one","0","indirect_first","0","AN06AN06","0","21","1","1","1","1","null","","","<div class = 'row'><div class = 'column'><img src = 'category1/CS3.png' width = '70%;'></div><div class = 'column'><img src = 'uspos/1440.bmp' width = '100%;'></div></div>","null","pos","CS","CS","1","category1/CS3.png","","","","",""
"","html-keyboard-response","84","615342","0.0-6.0-6.0-0.15","uvwxyp6tl5","many_one","0","indirect_first","0","AN06AN06","0","21","1","1","1","1","null","","","<div class = 'row'><div class = 'column'><img src = 'category4/CS10.png' width = '70%;'></div><div class = 'column'><img src = 'usneg/9000.bmp' width = '100%;'></div></div>","null","neg","CS","CS","4","category4/CS10.png","","","","",""
"","html-keyboard-response","85","617881","0.0-6.0-6.0-0.16","uvwxyp6tl5","many_one","0","indirect_first","0","AN06AN06","0","21","1","1","1","1","null","","","<div class = 'row'><div class = 'column'><img src = 'usneg/9635.2.bmp' width = '100%;'></div><div class = 'column'><img src = 'category2/CS4.png' width = '70%;'></div></div>","null","neg","CS","CS","2","category2/CS4.png","","","","",""
"","html-keyboard-response","86","620422","0.0-6.0-6.0-0.17","uvwxyp6tl5","many_one","0","indirect_first","0","AN06AN06","0","21","1","1","1","1","null","","","<div class = 'row'><div class = 'column'><img src = 'category4/CS1.png' width = '70%;'></div><div class = 'column'><img src = 'usneg/9330.bmp' width = '100%;'></div></div>","null","neg","CS","CS","4","category4/CS1.png","","","","",""
"","html-keyboard-response","87","622960","0.0-6.0-6.0-0.18","uvwxyp6tl5","many_one","0","indirect_first","0","AN06AN06","0","21","1","1","1","1","null","","","<div class = 'row'><div class = 'column'><img src = 'uspos/5629.bmp' width = '100%;'></div><div class = 'column'><img src = 'category3/CS9.png' width = '70%;'></div></div>","null","pos","CS","CS","3","category3/CS9.png","","","","",""
"","html-keyboard-response","88","625481","0.0-6.0-6.0-0.19","uvwxyp6tl5","many_one","0","indirect_first","0","AN06AN06","0","21","1","1","1","1","null","","","<div class = 'row'><div class = 'column'><img src = 'category4/CS7.png' width = '70%;'></div><div class = 'column'><img src = 'usneg/9181.bmp' width = '100%;'></div></div>","null","neg","CS","CS","4","category4/CS7.png","","","","",""
"","html-keyboard-response","89","687713","0.0-7.0","uvwxyp6tl5","many_one","0","indirect_first","0","AN06AN06","0","21","1","1","1","1","61720","","","<p>Sie sehen nun die chinesischen Zeichen nur ganz kurz. Danach sehen Sie die jeweilige Aussprache der Zeichen als Silbe auf dem Bildschrim. Ihre Aufgabe ist es, für jede Silbe anzugeben, ob diese etwas angenehmes, oder unangenehmes bedeuten könnte. Verlassen Sie sich hier vor allem auf Ihre Intuition.<br><br>Die Zeichen werden nur zur Orientierung dargestellt, beachten Sie sie deshalb nicht. Konzentrieren Sie sich vor allem auf die Silben. <br>Reagieren Sie mit folgenden zwei Tasten: <br><br><b>'D' </b> wenn die Silbe etwas <b>unangenehmes</b> bedeuten könnte. <br><b>'K'</b> wenn die Silbe etwas <b>angenehmes</b> bedeuten könnte. <br><br>Bitte legen Sie nun den Zeigefinger der linken Hand auf die Taste 'D' und den Zeigefinger der rechten Hand auf die Taste 'K'. <br>Reagieren Sie auf jede Silbe so schnell wie möglich. Uns interessiert Ihre spontane Reaktion. <br> <br> <br>Drücken Sie 'D' oder 'K', um die nächste Aufgabe zu starten. </p>","68","","","","","","","","","",""
"","html-keyboard-response","90","690741","0.0-8.0-0.0","uvwxyp6tl5","many_one","0","indirect_first","0","AN06AN06","0","21","1","1","1","1","null","","","<div style=""font-size:60px;"">+</div>","null","","","","","","","","","",""
"","html-keyboard-response","91","690841","0.0-8.0-1.0","uvwxyp6tl5","many_one","0","indirect_first","0","AN06AN06","0","21","1","1","1","1","null","","","<img src = 'category2/CS1.png' width = '100%;'>","null","","","","","","","","","",""
"","html-keyboard-response","92","691120","0.0-8.0-2.0","uvwxyp6tl5","many_one","0","indirect_first","0","AN06AN06","0","21","1","1","1","1","null","","","<img src = 'targets/39.png' width = '100%;'>","null","","","","","","","","","",""
"","html-keyboard-response","93","692543","0.0-8.0-3.0","uvwxyp6tl5","many_one","0","indirect_first","0","AN06AN06","0","21","1","1","1","1","1420","","","<img src = 'targets/mask.png' width = '100%;'>","68","neg","CS","CS","2","category2/CS1.png","targets/39.png","0","indirect","0",""
"","html-keyboard-response","94","694061","0.0-8.0-0.1","uvwxyp6tl5","many_one","0","indirect_first","0","AN06AN06","0","21","1","1","1","1","null","","","<div style=""font-size:60px;"">+</div>","null","","","","","","","","","",""
"","html-keyboard-response","95","694161","0.0-8.0-1.1","uvwxyp6tl5","many_one","0","indirect_first","0","AN06AN06","0","21","1","1","1","1","null","","","<img src = 'category1/CS4.png' width = '100%;'>","null","","","","","","","","","",""
"","html-keyboard-response","96","694441","0.0-8.0-2.1","uvwxyp6tl5","many_one","0","indirect_first","0","AN06AN06","0","21","1","1","1","1","null","","","<img src = 'targets/48.png' width = '100%;'>","null","","","","","","","","","",""
"","html-keyboard-response","97","695368","0.0-8.0-3.1","uvwxyp6tl5","many_one","0","indirect_first","0","AN06AN06","0","21","1","1","1","1","926","","","<img src = 'targets/mask.png' width = '100%;'>","68","pos","CS","CS","1","category1/CS4.png","targets/48.png","0","indirect","1",""
"","html-keyboard-response","98","696901","0.0-8.0-0.2","uvwxyp6tl5","many_one","0","indirect_first","0","AN06AN06","0","21","1","1","1","1","null","","","<div style=""font-size:60px;"">+</div>","null","","","","","","","","","",""
"","html-keyboard-response","99","697002","0.0-8.0-1.2","uvwxyp6tl5","many_one","0","indirect_first","0","AN06AN06","0","21","1","1","1","1","null","","","<img src = 'category2/CS4.png' width = '100%;'>","null","","","","","","","","","",""
"","html-keyboard-response","100","697281","0.0-8.0-2.2","uvwxyp6tl5","many_one","0","indirect_first","0","AN06AN06","0","21","1","1","1","1","null","","","<img src = 'targets/46.png' width = '100%;'>","null","","","","","","","","","",""
"","html-keyboard-response","101","698416","0.0-8.0-3.2","uvwxyp6tl5","many_one","0","indirect_first","0","AN06AN06","0","21","1","1","1","1","1133","","","<img src = 'targets/mask.png' width = '100%;'>","75","neg","CS","CS","2","category2/CS4.png","targets/46.png","1","indirect","2",""
"","html-keyboard-response","102","699921","0.0-8.0-0.3","uvwxyp6tl5","many_one","0","indirect_first","0","AN06AN06","0","21","1","1","1","1","null","","","<div style=""font-size:60px;"">+</div>","null","","","","","","","","","",""
"","html-keyboard-response","103","700021","0.0-8.0-1.3","uvwxyp6tl5","many_one","0","indirect_first","0","AN06AN06","0","21","1","1","1","1","null","","","<img src = 'category4/CS3.png' width = '100%;'>","null","","","","","","","","","",""
"","html-keyboard-response","104","700301","0.0-8.0-2.3","uvwxyp6tl5","many_one","0","indirect_first","0","AN06AN06","0","21","1","1","1","1","null","","","<img src = 'targets/25.png' width = '100%;'>","null","","","","","","","","","",""
"","html-keyboard-response","105","701112","0.0-8.0-3.3","uvwxyp6tl5","many_one","0","indirect_first","0","AN06AN06","0","21","1","1","1","1","809","","","<img src = 'targets/mask.png' width = '100%;'>","75","neg","GS","GSold","4","category4/CS3.png","targets/25.png","1","indirect","3",""
"","html-keyboard-response","106","702641","0.0-8.0-0.4","uvwxyp6tl5","many_one","0","indirect_first","0","AN06AN06","0","21","1","1","1","1","null","","","<div style=""font-size:60px;"">+</div>","null","","","","","","","","","",""
"","html-keyboard-response","107","702741","0.0-8.0-1.4","uvwxyp6tl5","many_one","0","indirect_first","0","AN06AN06","0","21","1","1","1","1","null","","","<img src = 'category4/CS1.png' width = '100%;'>","null","","","","","","","","","",""
"","html-keyboard-response","108","703017","0.0-8.0-2.4","uvwxyp6tl5","many_one","0","indirect_first","0","AN06AN06","0","21","1","1","1","1","null","","","<img src = 'targets/41.png' width = '100%;'>","null","","","","","","","","","",""
"","html-keyboard-response","109","704648","0.0-8.0-3.4","uvwxyp6tl5","many_one","0","indirect_first","0","AN06AN06","0","21","1","1","1","1","1629","","","<img src = 'targets/mask.png' width = '100%;'>","75","neg","CS","CS","4","category4/CS1.png","targets/41.png","1","indirect","4",""
"","html-keyboard-response","110","706180","0.0-8.0-0.5","uvwxyp6tl5","many_one","0","indirect_first","0","AN06AN06","0","21","1","1","1","1","null","","","<div style=""font-size:60px;"">+</div>","null","","","","","","","","","",""
"","html-keyboard-response","111","706281","0.0-8.0-1.5","uvwxyp6tl5","many_one","0","indirect_first","0","AN06AN06","0","21","1","1","1","1","null","","","<img src = 'category3/CS7.png' width = '100%;'>","null","","","","","","","","","",""
"","html-keyboard-response","112","706561","0.0-8.0-2.5","uvwxyp6tl5","many_one","0","indirect_first","0","AN06AN06","0","21","1","1","1","1","null","","","<img src = 'targets/36.png' width = '100%;'>","null","","","","","","","","","",""
"","html-keyboard-response","113","707383","0.0-8.0-3.5","uvwxyp6tl5","many_one","0","indirect_first","0","AN06AN06","0","21","1","1","1","1","821","","","<img src = 'targets/mask.png' width = '100%;'>","68","pos","CS","CS","3","category3/CS7.png","targets/36.png","0","indirect","5",""
"","html-keyboard-response","114","708921","0.0-8.0-0.6","uvwxyp6tl5","many_one","0","indirect_first","0","AN06AN06","0","21","1","1","1","1","null","","","<div style=""font-size:60px;"">+</div>","null","","","","","","","","","",""
"","html-keyboard-response","115","709021","0.0-8.0-1.6","uvwxyp6tl5","many_one","0","indirect_first","0","AN06AN06","0","21","1","1","1","1","null","","","<img src = 'category3/CS6.png' width = '100%;'>","null","","","","","","","","","",""
"","html-keyboard-response","116","709301","0.0-8.0-2.6","uvwxyp6tl5","many_one","0","indirect_first","0","AN06AN06","0","21","1","1","1","1","null","","","<img src = 'targets/29.png' width = '100%;'>","null","","","","","","","","","",""
"","html-keyboard-response","117","709880","0.0-8.0-3.6","uvwxyp6tl5","many_one","0","indirect_first","0","AN06AN06","0","21","1","1","1","1","577","","","<img src = 'targets/mask.png' width = '100%;'>","68","pos","CS","CS","3","category3/CS6.png","targets/29.png","0","indirect","6",""
"","html-keyboard-response","118","711401","0.0-8.0-0.7","uvwxyp6tl5","many_one","0","indirect_first","0","AN06AN06","0","21","1","1","1","1","null","","","<div style=""font-size:60px;"">+</div>","null","","","","","","","","","",""
"","html-keyboard-response","119","711501","0.0-8.0-1.7","uvwxyp6tl5","many_one","0","indirect_first","0","AN06AN06","0","21","1","1","1","1","null","","","<img src = 'category3/CS9.png' width = '100%;'>","null","","","","","","","","","",""
"","html-keyboard-response","120","711781","0.0-8.0-2.7","uvwxyp6tl5","many_one","0","indirect_first","0","AN06AN06","0","21","1","1","1","1","null","","","<img src = 'targets/30.png' width = '100%;'>","null","","","","","","","","","",""
"","html-keyboard-response","121","712335","0.0-8.0-3.7","uvwxyp6tl5","many_one","0","indirect_first","0","AN06AN06","0","21","1","1","1","1","553","","","<img src = 'targets/mask.png' width = '100%;'>","75","pos","CS","CS","3","category3/CS9.png","targets/30.png","1","indirect","7",""
"","html-keyboard-response","122","713861","0.0-8.0-0.8","uvwxyp6tl5","many_one","0","indirect_first","0","AN06AN06","0","21","1","1","1","1","null","","","<div style=""font-size:60px;"">+</div>","null","","","","","","","","","",""
"","html-keyboard-response","123","713961","0.0-8.0-1.8","uvwxyp6tl5","many_one","0","indirect_first","0","AN06AN06","0","21","1","1","1","1","null","","","<img src = 'category4/CS4.png' width = '100%;'>","null","","","","","","","","","",""
"","html-keyboard-response","124","714240","0.0-8.0-2.8","uvwxyp6tl5","many_one","0","indirect_first","0","AN06AN06","0","21","1","1","1","1","null","","","<img src = 'targets/33.png' width = '100%;'>","null","","","","","","","","","",""
"","html-keyboard-response","125","714784","0.0-8.0-3.8","uvwxyp6tl5","many_one","0","indirect_first","0","AN06AN06","0","21","1","1","1","1","542","","","<img src = 'targets/mask.png' width = '100%;'>","75","neg","CS","CS","4","category4/CS4.png","targets/33.png","1","indirect","8",""
"","html-keyboard-response","126","716321","0.0-8.0-0.9","uvwxyp6tl5","many_one","0","indirect_first","0","AN06AN06","0","21","1","1","1","1","null","","","<div style=""font-size:60px;"">+</div>","null","","","","","","","","","",""
"","html-keyboard-response","127","716421","0.0-8.0-1.9","uvwxyp6tl5","many_one","0","indirect_first","0","AN06AN06","0","21","1","1","1","1","null","","","<img src = 'category1/CS6.png' width = '100%;'>","null","","","","","","","","","",""
"","html-keyboard-response","128","716701","0.0-8.0-2.9","uvwxyp6tl5","many_one","0","indirect_first","0","AN06AN06","0","21","1","1","1","1","null","","","<img src = 'targets/16.png' width = '100%;'>","null","","","","","","","","","",""
"","html-keyboard-response","129","717264","0.0-8.0-3.9","uvwxyp6tl5","many_one","0","indirect_first","0","AN06AN06","0","21","1","1","1","1","560","","","<img src = 'targets/mask.png' width = '100%;'>","75","pos","CS","CS","1","category1/CS6.png","targets/16.png","1","indirect","9",""
"","html-keyboard-response","130","718781","0.0-8.0-0.10","uvwxyp6tl5","many_one","0","indirect_first","0","AN06AN06","0","21","1","1","1","1","null","","","<div style=""font-size:60px;"">+</div>","null","","","","","","","","","",""
"","html-keyboard-response","131","718881","0.0-8.0-1.10","uvwxyp6tl5","many_one","0","indirect_first","0","AN06AN06","0","21","1","1","1","1","null","","","<img src = 'category2/CS7.png' width = '100%;'>","null","","","","","","","","","",""
"","html-keyboard-response","132","719161","0.0-8.0-2.10","uvwxyp6tl5","many_one","0","indirect_first","0","AN06AN06","0","21","1","1","1","1","null","","","<img src = 'targets/12.png' width = '100%;'>","null","","","","","","","","","",""
"","html-keyboard-response","133","719848","0.0-8.0-3.10","uvwxyp6tl5","many_one","0","indirect_first","0","AN06AN06","0","21","1","1","1","1","685","","","<img src = 'targets/mask.png' width = '100%;'>","75","neg","CS","CS","2","category2/CS7.png","targets/12.png","1","indirect","10",""
"","html-keyboard-response","134","721362","0.0-8.0-0.11","uvwxyp6tl5","many_one","0","indirect_first","0","AN06AN06","0","21","1","1","1","1","null","","","<div style=""font-size:60px;"">+</div>","null","","","","","","","","","",""
"","html-keyboard-response","135","721453","0.0-8.0-1.11","uvwxyp6tl5","many_one","0","indirect_first","0","AN06AN06","0","21","1","1","1","1","null","","","<img src = 'category4/CS10.png' width = '100%;'>","null","","","","","","","","","",""
"","html-keyboard-response","136","721722","0.0-8.0-2.11","uvwxyp6tl5","many_one","0","indirect_first","0","AN06AN06","0","21","1","1","1","1","null","","","<img src = 'targets/20.png' width = '100%;'>","null","","","","","","","","","",""
"","html-keyboard-response","137","723543","0.0-8.0-3.11","uvwxyp6tl5","many_one","0","indirect_first","0","AN06AN06","0","21","1","1","1","1","1820","","","<img src = 'targets/mask.png' width = '100%;'>","68","neg","CS","CS","4","category4/CS10.png","targets/20.png","0","indirect","11",""
"","html-keyboard-response","138","725077","0.0-8.0-0.12","uvwxyp6tl5","many_one","0","indirect_first","0","AN06AN06","0","21","1","1","1","1","null","","","<div style=""font-size:60px;"">+</div>","null","","","","","","","","","",""
"","html-keyboard-response","139","725177","0.0-8.0-1.12","uvwxyp6tl5","many_one","0","indirect_first","0","AN06AN06","0","21","1","1","1","1","null","","","<img src = 'category4/CS8.png' width = '100%;'>","null","","","","","","","","","",""
"","html-keyboard-response","140","725461","0.0-8.0-2.12","uvwxyp6tl5","many_one","0","indirect_first","0","AN06AN06","0","21","1","1","1","1","null","","","<img src = 'targets/44.png' width = '100%;'>","null","","","","","","","","","",""
"","html-keyboard-response","141","726135","0.0-8.0-3.12","uvwxyp6tl5","many_one","0","indirect_first","0","AN06AN06","0","21","1","1","1","1","673","","","<img src = 'targets/mask.png' width = '100%;'>","75","neg","GS","GSold","4","category4/CS8.png","targets/44.png","1","indirect","12",""
"","html-keyboard-response","142","727661","0.0-8.0-0.13","uvwxyp6tl5","many_one","0","indirect_first","0","AN06AN06","0","21","1","1","1","1","null","","","<div style=""font-size:60px;"">+</div>","null","","","","","","","","","",""
"","html-keyboard-response","143","727761","0.0-8.0-1.13","uvwxyp6tl5","many_one","0","indirect_first","0","AN06AN06","0","21","1","1","1","1","null","","","<img src = 'category3/CS8.png' width = '100%;'>","null","","","","","","","","","",""
"","html-keyboard-response","144","728041","0.0-8.0-2.13","uvwxyp6tl5","many_one","0","indirect_first","0","AN06AN06","0","21","1","1","1","1","null","","","<img src = 'targets/28.png' width = '100%;'>","null","","","","","","","","","",""
"","html-keyboard-response","145","728727","0.0-8.0-3.13","uvwxyp6tl5","many_one","0","indirect_first","0","AN06AN06","0","21","1","1","1","1","685","","","<img src = 'targets/mask.png' width = '100%;'>","75","pos","CS","CS","3","category3/CS8.png","targets/28.png","1","indirect","13",""
"","html-keyboard-response","146","730261","0.0-8.0-0.14","uvwxyp6tl5","many_one","0","indirect_first","0","AN06AN06","0","21","1","1","1","1","null","","","<div style=""font-size:60px;"">+</div>","null","","","","","","","","","",""
"","html-keyboard-response","147","730361","0.0-8.0-1.14","uvwxyp6tl5","many_one","0","indirect_first","0","AN06AN06","0","21","1","1","1","1","null","","","<img src = 'category3/CS3.png' width = '100%;'>","null","","","","","","","","","",""
"","html-keyboard-response","148","730631","0.0-8.0-2.14","uvwxyp6tl5","many_one","0","indirect_first","0","AN06AN06","0","21","1","1","1","1","null","","","<img src = 'targets/21.png' width = '100%;'>","null","","","","","","","","","",""
"","html-keyboard-response","149","731102","0.0-8.0-3.14","uvwxyp6tl5","many_one","0","indirect_first","0","AN06AN06","0","21","1","1","1","1","470","","","<img src = 'targets/mask.png' width = '100%;'>","75","pos","GS","GSold","3","category3/CS3.png","targets/21.png","1","indirect","14",""
"","html-keyboard-response","150","732611","0.0-8.0-0.15","uvwxyp6tl5","many_one","0","indirect_first","0","AN06AN06","0","21","1","1","1","1","null","","","<div style=""font-size:60px;"">+</div>","null","","","","","","","","","",""
"","html-keyboard-response","151","732711","0.0-8.0-1.15","uvwxyp6tl5","many_one","0","indirect_first","0","AN06AN06","0","21","1","1","1","1","null","","","<img src = 'category1/CS10.png' width = '100%;'>","null","","","","","","","","","",""
"","html-keyboard-response","152","732990","0.0-8.0-2.15","uvwxyp6tl5","many_one","0","indirect_first","0","AN06AN06","0","21","1","1","1","1","null","","","<img src = 'targets/22.png' width = '100%;'>","null","","","","","","","","","",""
"","html-keyboard-response","153","733583","0.0-8.0-3.15","uvwxyp6tl5","many_one","0","indirect_first","0","AN06AN06","0","21","1","1","1","1","591","","","<img src = 'targets/mask.png' width = '100%;'>","75","pos","CS","CS","1","category1/CS10.png","targets/22.png","1","indirect","15",""
"","html-keyboard-response","154","735101","0.0-8.0-0.16","uvwxyp6tl5","many_one","0","indirect_first","0","AN06AN06","0","21","1","1","1","1","null","","","<div style=""font-size:60px;"">+</div>","null","","","","","","","","","",""
"","html-keyboard-response","155","735201","0.0-8.0-1.16","uvwxyp6tl5","many_one","0","indirect_first","0","AN06AN06","0","21","1","1","1","1","null","","","<img src = 'category2/CS3.png' width = '100%;'>","null","","","","","","","","","",""
"","html-keyboard-response","156","735481","0.0-8.0-2.16","uvwxyp6tl5","many_one","0","indirect_first","0","AN06AN06","0","21","1","1","1","1","null","","","<img src = 'targets/5.png' width = '100%;'>","null","","","","","","","","","",""
"","html-keyboard-response","157","735919","0.0-8.0-3.16","uvwxyp6tl5","many_one","0","indirect_first","0","AN06AN06","0","21","1","1","1","1","437","","","<img src = 'targets/mask.png' width = '100%;'>","75","neg","CS","CS","2","category2/CS3.png","targets/5.png","1","indirect","16",""
"","html-keyboard-response","158","737421","0.0-8.0-0.17","uvwxyp6tl5","many_one","0","indirect_first","0","AN06AN06","0","21","1","1","1","1","null","","","<div style=""font-size:60px;"">+</div>","null","","","","","","","","","",""
"","html-keyboard-response","159","737521","0.0-8.0-1.17","uvwxyp6tl5","many_one","0","indirect_first","0","AN06AN06","0","21","1","1","1","1","null","","","<img src = 'category3/CS10.png' width = '100%;'>","null","","","","","","","","","",""
"","html-keyboard-response","160","737801","0.0-8.0-2.17","uvwxyp6tl5","many_one","0","indirect_first","0","AN06AN06","0","21","1","1","1","1","null","","","<img src = 'targets/18.png' width = '100%;'>","null","","","","","","","","","",""
"","html-keyboard-response","161","738208","0.0-8.0-3.17","uvwxyp6tl5","many_one","0","indirect_first","0","AN06AN06","0","21","1","1","1","1","405","","","<img src = 'targets/mask.png' width = '100%;'>","68","pos","CS","CS","3","category3/CS10.png","targets/18.png","0","indirect","17",""
"","html-keyboard-response","162","739741","0.0-8.0-0.18","uvwxyp6tl5","many_one","0","indirect_first","0","AN06AN06","0","21","1","1","1","1","null","","","<div style=""font-size:60px;"">+</div>","null","","","","","","","","","",""
"","html-keyboard-response","163","739841","0.0-8.0-1.18","uvwxyp6tl5","many_one","0","indirect_first","0","AN06AN06","0","21","1","1","1","1","null","","","<img src = 'category4/CS7.png' width = '100%;'>","null","","","","","","","","","",""
"","html-keyboard-response","164","740121","0.0-8.0-2.18","uvwxyp6tl5","many_one","0","indirect_first","0","AN06AN06","0","21","1","1","1","1","null","","","<img src = 'targets/34.png' width = '100%;'>","null","","","","","","","","","",""
"","html-keyboard-response","165","740639","0.0-8.0-3.18","uvwxyp6tl5","many_one","0","indirect_first","0","AN06AN06","0","21","1","1","1","1","517","","","<img src = 'targets/mask.png' width = '100%;'>","68","neg","CS","CS","4","category4/CS7.png","targets/34.png","0","indirect","18",""
"","html-keyboard-response","166","742161","0.0-8.0-0.19","uvwxyp6tl5","many_one","0","indirect_first","0","AN06AN06","0","21","1","1","1","1","null","","","<div style=""font-size:60px;"">+</div>","null","","","","","","","","","",""
"","html-keyboard-response","167","742262","0.0-8.0-1.19","uvwxyp6tl5","many_one","0","indirect_first","0","AN06AN06","0","21","1","1","1","1","null","","","<img src = 'category4/CS5.png' width = '100%;'>","null","","","","","","","","","",""
"","html-keyboard-response","168","742540","0.0-8.0-2.19","uvwxyp6tl5","many_one","0","indirect_first","0","AN06AN06","0","21","1","1","1","1","null","","","<img src = 'targets/27.png' width = '100%;'>","null","","","","","","","","","",""
"","html-keyboard-response","169","743368","0.0-8.0-3.19","uvwxyp6tl5","many_one","0","indirect_first","0","AN06AN06","0","21","1","1","1","1","826","","","<img src = 'targets/mask.png' width = '100%;'>","68","neg","GS","GSold","4","category4/CS5.png","targets/27.png","0","indirect","19",""
"","html-keyboard-response","170","744881","0.0-8.0-0.20","uvwxyp6tl5","many_one","0","indirect_first","0","AN06AN06","0","21","1","1","1","1","null","","","<div style=""font-size:60px;"">+</div>","null","","","","","","","","","",""
"","html-keyboard-response","171","744981","0.0-8.0-1.20","uvwxyp6tl5","many_one","0","indirect_first","0","AN06AN06","0","21","1","1","1","1","null","","","<img src = 'category4/CS6.png' width = '100%;'>","null","","","","","","","","","",""
"","html-keyboard-response","172","745261","0.0-8.0-2.20","uvwxyp6tl5","many_one","0","indirect_first","0","AN06AN06","0","21","1","1","1","1","null","","","<img src = 'targets/37.png' width = '100%;'>","null","","","","","","","","","",""
"","html-keyboard-response","173","745871","0.0-8.0-3.20","uvwxyp6tl5","many_one","0","indirect_first","0","AN06AN06","0","21","1","1","1","1","609","","","<img src = 'targets/mask.png' width = '100%;'>","68","neg","CS","CS","4","category4/CS6.png","targets/37.png","0","indirect","20",""
"","html-keyboard-response","174","747400","0.0-8.0-0.21","uvwxyp6tl5","many_one","0","indirect_first","0","AN06AN06","0","21","1","1","1","1","null","","","<div style=""font-size:60px;"">+</div>","null","","","","","","","","","",""
"","html-keyboard-response","175","747501","0.0-8.0-1.21","uvwxyp6tl5","many_one","0","indirect_first","0","AN06AN06","0","21","1","1","1","1","null","","","<img src = 'category1/CS8.png' width = '100%;'>","null","","","","","","","","","",""
"","html-keyboard-response","176","747781","0.0-8.0-2.21","uvwxyp6tl5","many_one","0","indirect_first","0","AN06AN06","0","21","1","1","1","1","null","","","<img src = 'targets/26.png' width = '100%;'>","null","","","","","","","","","",""
"","html-keyboard-response","177","748335","0.0-8.0-3.21","uvwxyp6tl5","many_one","0","indirect_first","0","AN06AN06","0","21","1","1","1","1","553","","","<img src = 'targets/mask.png' width = '100%;'>","75","pos","CS","CS","1","category1/CS8.png","targets/26.png","1","indirect","21",""
"","html-keyboard-response","178","749841","0.0-8.0-0.22","uvwxyp6tl5","many_one","0","indirect_first","0","AN06AN06","0","21","1","1","1","1","null","","","<div style=""font-size:60px;"">+</div>","null","","","","","","","","","",""
"","html-keyboard-response","179","749941","0.0-8.0-1.22","uvwxyp6tl5","many_one","0","indirect_first","0","AN06AN06","0","21","1","1","1","1","null","","","<img src = 'category2/CS10.png' width = '100%;'>","null","","","","","","","","","",""
"","html-keyboard-response","180","750222","0.0-8.0-2.22","uvwxyp6tl5","many_one","0","indirect_first","0","AN06AN06","0","21","1","1","1","1","null","","","<img src = 'targets/3.png' width = '100%;'>","null","","","","","","","","","",""
"","html-keyboard-response","181","750976","0.0-8.0-3.22","uvwxyp6tl5","many_one","0","indirect_first","0","AN06AN06","0","21","1","1","1","1","753","","","<img src = 'targets/mask.png' width = '100%;'>","75","neg","CS","CS","2","category2/CS10.png","targets/3.png","1","indirect","22",""
"","html-keyboard-response","182","752481","0.0-8.0-0.23","uvwxyp6tl5","many_one","0","indirect_first","0","AN06AN06","0","21","1","1","1","1","null","","","<div style=""font-size:60px;"">+</div>","null","","","","","","","","","",""
"","html-keyboard-response","183","752581","0.0-8.0-1.23","uvwxyp6tl5","many_one","0","indirect_first","0","AN06AN06","0","21","1","1","1","1","null","","","<img src = 'category1/CS3.png' width = '100%;'>","null","","","","","","","","","",""
"","html-keyboard-response","184","752861","0.0-8.0-2.23","uvwxyp6tl5","many_one","0","indirect_first","0","AN06AN06","0","21","1","1","1","1","null","","","<img src = 'targets/40.png' width = '100%;'>","null","","","","","","","","","",""
"","html-keyboard-response","185","753542","0.0-8.0-3.23","uvwxyp6tl5","many_one","0","indirect_first","0","AN06AN06","0","21","1","1","1","1","680","","","<img src = 'targets/mask.png' width = '100%;'>","75","pos","CS","CS","1","category1/CS3.png","targets/40.png","1","indirect","23",""
"","survey-html-form","186","762367","0.0-9.0","uvwxyp6tl5","many_one","0","indirect_first","0","AN06AN06","0","21","1","1","1","1","8306","","{}","","","","","","","","","","","",""
"","html-keyboard-response","187","765397","0.0-10.0-0.0","uvwxyp6tl5","many_one","0","indirect_first","0","AN06AN06","0","21","1","1","1","1","null","","","<div style=""font-size:60px;"">+</div>","null","","","","","","","","","",""
"","html-keyboard-response","188","765491","0.0-10.0-1.0","uvwxyp6tl5","many_one","0","indirect_first","0","AN06AN06","0","21","1","1","1","1","null","","","<img src = 'category4/lin.png' width = '100%;'>","null","","","","","","","","","",""
"","html-keyboard-response","189","765771","0.0-10.0-2.0","uvwxyp6tl5","many_one","0","indirect_first","0","AN06AN06","0","21","1","1","1","1","null","","","<img src = 'targets/6.png' width = '100%;'>","null","","","","","","","","","",""
"","html-keyboard-response","190","766327","0.0-10.0-3.0","uvwxyp6tl5","many_one","0","indirect_first","0","AN06AN06","0","21","1","1","1","1","555","","","<img src = 'targets/mask.png' width = '100%;'>","68","neg","GS","abstract","4","category4/lin.png","targets/6.png","0","indirect","24",""
"","html-keyboard-response","191","767851","0.0-10.0-0.1","uvwxyp6tl5","many_one","0","indirect_first","0","AN06AN06","0","21","1","1","1","1","null","","","<div style=""font-size:60px;"">+</div>","null","","","","","","","","","",""
"","html-keyboard-response","192","767951","0.0-10.0-1.1","uvwxyp6tl5","many_one","0","indirect_first","0","AN06AN06","0","21","1","1","1","1","null","","","<img src = 'category3/CS5.png' width = '100%;'>","null","","","","","","","","","",""
"","html-keyboard-response","193","768231","0.0-10.0-2.1","uvwxyp6tl5","many_one","0","indirect_first","0","AN06AN06","0","21","1","1","1","1","null","","","<img src = 'targets/23.png' width = '100%;'>","null","","","","","","","","","",""
"","html-keyboard-response","194","768639","0.0-10.0-3.1","uvwxyp6tl5","many_one","0","indirect_first","0","AN06AN06","0","21","1","1","1","1","407","","","<img src = 'targets/mask.png' width = '100%;'>","68","pos","GS","GSold","3","category3/CS5.png","targets/23.png","0","indirect","25",""
"","html-keyboard-response","195","770161","0.0-10.0-0.2","uvwxyp6tl5","many_one","0","indirect_first","0","AN06AN06","0","21","1","1","1","1","null","","","<div style=""font-size:60px;"">+</div>","null","","","","","","","","","",""
"","html-keyboard-response","196","770261","0.0-10.0-1.2","uvwxyp6tl5","many_one","0","indirect_first","0","AN06AN06","0","21","1","1","1","1","null","","","<img src = 'category4/GS2.png' width = '100%;'>","null","","","","","","","","","",""
"","html-keyboard-response","197","770541","0.0-10.0-2.2","uvwxyp6tl5","many_one","0","indirect_first","0","AN06AN06","0","21","1","1","1","1","null","","","<img src = 'targets/4.png' width = '100%;'>","null","","","","","","","","","",""
"","html-keyboard-response","198","770968","0.0-10.0-3.2","uvwxyp6tl5","many_one","0","indirect_first","0","AN06AN06","0","21","1","1","1","1","425","","","<img src = 'targets/mask.png' width = '100%;'>","68","neg","GS","GSnew","4","category4/GS2.png","targets/4.png","0","indirect","26",""
"","html-keyboard-response","199","772501","0.0-10.0-0.3","uvwxyp6tl5","many_one","0","indirect_first","0","AN06AN06","0","21","1","1","1","1","null","","","<div style=""font-size:60px;"">+</div>","null","","","","","","","","","",""
"","html-keyboard-response","200","772601","0.0-10.0-1.3","uvwxyp6tl5","many_one","0","indirect_first","0","AN06AN06","0","21","1","1","1","1","null","","","<img src = 'category1/CS7.png' width = '100%;'>","null","","","","","","","","","",""
"","html-keyboard-response","201","772881","0.0-10.0-2.3","uvwxyp6tl5","many_one","0","indirect_first","0","AN06AN06","0","21","1","1","1","1","null","","","<img src = 'targets/13.png' width = '100%;'>","null","","","","","","","","","",""
"","html-keyboard-response","202","773535","0.0-10.0-3.3","uvwxyp6tl5","many_one","0","indirect_first","0","AN06AN06","0","21","1","1","1","1","654","","","<img src = 'targets/mask.png' width = '100%;'>","75","pos","GS","GSold","1","category1/CS7.png","targets/13.png","1","indirect","27",""
"","html-keyboard-response","203","775051","0.0-10.0-0.4","uvwxyp6tl5","many_one","0","indirect_first","0","AN06AN06","0","21","1","1","1","1","null","","","<div style=""font-size:60px;"">+</div>","null","","","","","","","","","",""
"","html-keyboard-response","204","775151","0.0-10.0-1.4","uvwxyp6tl5","many_one","0","indirect_first","0","AN06AN06","0","21","1","1","1","1","null","","","<img src = 'category3/CS2.png' width = '100%;'>","null","","","","","","","","","",""
"","html-keyboard-response","205","775419","0.0-10.0-2.4","uvwxyp6tl5","many_one","0","indirect_first","0","AN06AN06","0","21","1","1","1","1","null","","","<img src = 'targets/32.png' width = '100%;'>","null","","","","","","","","","",""
"","html-keyboard-response","206","776032","0.0-10.0-3.4","uvwxyp6tl5","many_one","0","indirect_first","0","AN06AN06","0","21","1","1","1","1","612","","","<img src = 'targets/mask.png' width = '100%;'>","68","pos","GS","GSold","3","category3/CS2.png","targets/32.png","0","indirect","28",""
"","html-keyboard-response","207","777551","0.0-10.0-0.5","uvwxyp6tl5","many_one","0","indirect_first","0","AN06AN06","0","21","1","1","1","1","null","","","<div style=""font-size:60px;"">+</div>","null","","","","","","","","","",""
"","html-keyboard-response","208","777651","0.0-10.0-1.5","uvwxyp6tl5","many_one","0","indirect_first","0","AN06AN06","0","21","1","1","1","1","null","","","<img src = 'category2/GS3.png' width = '100%;'>","null","","","","","","","","","",""
"","html-keyboard-response","209","777931","0.0-10.0-2.5","uvwxyp6tl5","many_one","0","indirect_first","0","AN06AN06","0","21","1","1","1","1","null","","","<img src = 'targets/11.png' width = '100%;'>","null","","","","","","","","","",""
"","html-keyboard-response","210","778312","0.0-10.0-3.5","uvwxyp6tl5","many_one","0","indirect_first","0","AN06AN06","0","21","1","1","1","1","379","","","<img src = 'targets/mask.png' width = '100%;'>","68","neg","GS","GSnew","2","category2/GS3.png","targets/11.png","0","indirect","29",""
"","html-keyboard-response","211","779851","0.0-10.0-0.6","uvwxyp6tl5","many_one","0","indirect_first","0","AN06AN06","0","21","1","1","1","1","null","","","<div style=""font-size:60px;"">+</div>","null","","","","","","","","","",""
"","html-keyboard-response","212","779951","0.0-10.0-1.6","uvwxyp6tl5","many_one","0","indirect_first","0","AN06AN06","0","21","1","1","1","1","null","","","<img src = 'category1/GS1.png' width = '100%;'>","null","","","","","","","","","",""
"","html-keyboard-response","213","780226","0.0-10.0-2.6","uvwxyp6tl5","many_one","0","indirect_first","0","AN06AN06","0","21","1","1","1","1","null","","","<img src = 'targets/10.png' width = '100%;'>","null","","","","","","","","","",""
"","html-keyboard-response","214","780671","0.0-10.0-3.6","uvwxyp6tl5","many_one","0","indirect_first","0","AN06AN06","0","21","1","1","1","1","444","","","<img src = 'targets/mask.png' width = '100%;'>","68","pos","GS","GSnew","1","category1/GS1.png","targets/10.png","0","indirect","30",""
"","html-keyboard-response","215","782181","0.0-10.0-0.7","uvwxyp6tl5","many_one","0","indirect_first","0","AN06AN06","0","21","1","1","1","1","null","","","<div style=""font-size:60px;"">+</div>","null","","","","","","","","","",""
"","html-keyboard-response","216","782272","0.0-10.0-1.7","uvwxyp6tl5","many_one","0","indirect_first","0","AN06AN06","0","21","1","1","1","1","null","","","<img src = 'category1/CS1.png' width = '100%;'>","null","","","","","","","","","",""
"","html-keyboard-response","217","782524","0.0-10.0-2.7","uvwxyp6tl5","many_one","0","indirect_first","0","AN06AN06","0","21","1","1","1","1","null","","","<img src = 'targets/24.png' width = '100%;'>","null","","","","","","","","","",""
"","html-keyboard-response","218","783335","0.0-10.0-3.7","uvwxyp6tl5","many_one","0","indirect_first","0","AN06AN06","0","21","1","1","1","1","809","","","<img src = 'targets/mask.png' width = '100%;'>","68","pos","GS","GSold","1","category1/CS1.png","targets/24.png","0","indirect","31",""
"","html-keyboard-response","219","784841","0.0-10.0-0.8","uvwxyp6tl5","many_one","0","indirect_first","0","AN06AN06","0","21","1","1","1","1","null","","","<div style=""font-size:60px;"">+</div>","null","","","","","","","","","",""
"","html-keyboard-response","220","784941","0.0-10.0-1.8","uvwxyp6tl5","many_one","0","indirect_first","0","AN06AN06","0","21","1","1","1","1","null","","","<img src = 'category4/GS1.png' width = '100%;'>","null","","","","","","","","","",""
"","html-keyboard-response","221","785220","0.0-10.0-2.8","uvwxyp6tl5","many_one","0","indirect_first","0","AN06AN06","0","21","1","1","1","1","null","","","<img src = 'targets/9.png' width = '100%;'>","null","","","","","","","","","",""
"","html-keyboard-response","222","785719","0.0-10.0-3.8","uvwxyp6tl5","many_one","0","indirect_first","0","AN06AN06","0","21","1","1","1","1","498","","","<img src = 'targets/mask.png' width = '100%;'>","68","neg","GS","GSnew","4","category4/GS1.png","targets/9.png","0","indirect","32",""
"","html-keyboard-response","223","787241","0.0-10.0-0.9","uvwxyp6tl5","many_one","0","indirect_first","0","AN06AN06","0","21","1","1","1","1","null","","","<div style=""font-size:60px;"">+</div>","null","","","","","","","","","",""
"","html-keyboard-response","224","787341","0.0-10.0-1.9","uvwxyp6tl5","many_one","0","indirect_first","0","AN06AN06","0","21","1","1","1","1","null","","","<img src = 'category1/ma.png' width = '100%;'>","null","","","","","","","","","",""
"","html-keyboard-response","225","787621","0.0-10.0-2.9","uvwxyp6tl5","many_one","0","indirect_first","0","AN06AN06","0","21","1","1","1","1","null","","","<img src = 'targets/1.png' width = '100%;'>","null","","","","","","","","","",""
"","html-keyboard-response","226","788431","0.0-10.0-3.9","uvwxyp6tl5","many_one","0","indirect_first","0","AN06AN06","0","21","1","1","1","1","810","","","<img src = 'targets/mask.png' width = '100%;'>","75","pos","GS","abstract","1","category1/ma.png","targets/1.png","1","indirect","33",""
"","html-keyboard-response","227","789961","0.0-10.0-0.10","uvwxyp6tl5","many_one","0","indirect_first","0","AN06AN06","0","21","1","1","1","1","null","","","<div style=""font-size:60px;"">+</div>","null","","","","","","","","","",""
"","html-keyboard-response","228","790061","0.0-10.0-1.10","uvwxyp6tl5","many_one","0","indirect_first","0","AN06AN06","0","21","1","1","1","1","null","","","<img src = 'category2/GS2.png' width = '100%;'>","null","","","","","","","","","",""
"","html-keyboard-response","229","790341","0.0-10.0-2.10","uvwxyp6tl5","many_one","0","indirect_first","0","AN06AN06","0","21","1","1","1","1","null","","","<img src = 'targets/42.png' width = '100%;'>","null","","","","","","","","","",""
"","html-keyboard-response","230","790823","0.0-10.0-3.10","uvwxyp6tl5","many_one","0","indirect_first","0","AN06AN06","0","21","1","1","1","1","480","","","<img src = 'targets/mask.png' width = '100%;'>","75","neg","GS","GSnew","2","category2/GS2.png","targets/42.png","1","indirect","34",""
"","html-keyboard-response","231","792357","0.0-10.0-0.11","uvwxyp6tl5","many_one","0","indirect_first","0","AN06AN06","0","21","1","1","1","1","null","","","<div style=""font-size:60px;"">+</div>","null","","","","","","","","","",""
"","html-keyboard-response","232","792457","0.0-10.0-1.11","uvwxyp6tl5","many_one","0","indirect_first","0","AN06AN06","0","21","1","1","1","1","null","","","<img src = 'category2/GS1.png' width = '100%;'>","null","","","","","","","","","",""
"","html-keyboard-response","233","792741","0.0-10.0-2.11","uvwxyp6tl5","many_one","0","indirect_first","0","AN06AN06","0","21","1","1","1","1","null","","","<img src = 'targets/2.png' width = '100%;'>","null","","","","","","","","","",""
"","html-keyboard-response","234","793486","0.0-10.0-3.11","uvwxyp6tl5","many_one","0","indirect_first","0","AN06AN06","0","21","1","1","1","1","744","","","<img src = 'targets/mask.png' width = '100%;'>","75","neg","GS","GSnew","2","category2/GS1.png","targets/2.png","1","indirect","35",""
"","html-keyboard-response","235","794991","0.0-10.0-0.12","uvwxyp6tl5","many_one","0","indirect_first","0","AN06AN06","0","21","1","1","1","1","null","","","<div style=""font-size:60px;"">+</div>","null","","","","","","","","","",""
"","html-keyboard-response","236","795091","0.0-10.0-1.12","uvwxyp6tl5","many_one","0","indirect_first","0","AN06AN06","0","21","1","1","1","1","null","","","<img src = 'category2/CS5.png' width = '100%;'>","null","","","","","","","","","",""
"","html-keyboard-response","237","795371","0.0-10.0-2.12","uvwxyp6tl5","many_one","0","indirect_first","0","AN06AN06","0","21","1","1","1","1","null","","","<img src = 'targets/14.png' width = '100%;'>","null","","","","","","","","","",""
"","html-keyboard-response","238","795952","0.0-10.0-3.12","uvwxyp6tl5","many_one","0","indirect_first","0","AN06AN06","0","21","1","1","1","1","580","","","<img src = 'targets/mask.png' width = '100%;'>","75","neg","GS","GSold","2","category2/CS5.png","targets/14.png","1","indirect","36",""
"","html-keyboard-response","239","797491","0.0-10.0-0.13","uvwxyp6tl5","many_one","0","indirect_first","0","AN06AN06","0","21","1","1","1","1","null","","","<div style=""font-size:60px;"">+</div>","null","","","","","","","","","",""
"","html-keyboard-response","240","797591","0.0-10.0-1.13","uvwxyp6tl5","many_one","0","indirect_first","0","AN06AN06","0","21","1","1","1","1","null","","","<img src = 'category3/GS3.png' width = '100%;'>","null","","","","","","","","","",""
"","html-keyboard-response","241","797866","0.0-10.0-2.13","uvwxyp6tl5","many_one","0","indirect_first","0","AN06AN06","0","21","1","1","1","1","null","","","<img src = 'targets/38.png' width = '100%;'>","null","","","","","","","","","",""
"","html-keyboard-response","242","798446","0.0-10.0-3.13","uvwxyp6tl5","many_one","0","indirect_first","0","AN06AN06","0","21","1","1","1","1","579","","","<img src = 'targets/mask.png' width = '100%;'>","68","pos","GS","GSnew","3","category3/GS3.png","targets/38.png","0","indirect","37",""
"","html-keyboard-response","243","799971","0.0-10.0-0.14","uvwxyp6tl5","many_one","0","indirect_first","0","AN06AN06","0","21","1","1","1","1","null","","","<div style=""font-size:60px;"">+</div>","null","","","","","","","","","",""
"","html-keyboard-response","244","800072","0.0-10.0-1.14","uvwxyp6tl5","many_one","0","indirect_first","0","AN06AN06","0","21","1","1","1","1","null","","","<img src = 'category3/GS1.png' width = '100%;'>","null","","","","","","","","","",""
"","html-keyboard-response","245","800351","0.0-10.0-2.14","uvwxyp6tl5","many_one","0","indirect_first","0","AN06AN06","0","21","1","1","1","1","null","","","<img src = 'targets/35.png' width = '100%;'>","null","","","","","","","","","",""
"","html-keyboard-response","246","800887","0.0-10.0-3.14","uvwxyp6tl5","many_one","0","indirect_first","0","AN06AN06","0","21","1","1","1","1","535","","","<img src = 'targets/mask.png' width = '100%;'>","75","pos","GS","GSnew","3","category3/GS1.png","targets/35.png","1","indirect","38",""
"","html-keyboard-response","247","802411","0.0-10.0-0.15","uvwxyp6tl5","many_one","0","indirect_first","0","AN06AN06","0","21","1","1","1","1","null","","","<div style=""font-size:60px;"">+</div>","null","","","","","","","","","",""
"","html-keyboard-response","248","802511","0.0-10.0-1.15","uvwxyp6tl5","many_one","0","indirect_first","0","AN06AN06","0","21","1","1","1","1","null","","","<img src = 'category1/CS2.png' width = '100%;'>","null","","","","","","","","","",""
"","html-keyboard-response","249","802791","0.0-10.0-2.15","uvwxyp6tl5","many_one","0","indirect_first","0","AN06AN06","0","21","1","1","1","1","null","","","<img src = 'targets/43.png' width = '100%;'>","null","","","","","","","","","",""
"","html-keyboard-response","250","803431","0.0-10.0-3.15","uvwxyp6tl5","many_one","0","indirect_first","0","AN06AN06","0","21","1","1","1","1","639","","","<img src = 'targets/mask.png' width = '100%;'>","75","pos","GS","GSold","1","category1/CS2.png","targets/43.png","1","indirect","39",""
"","html-keyboard-response","251","804971","0.0-10.0-0.16","uvwxyp6tl5","many_one","0","indirect_first","0","AN06AN06","0","21","1","1","1","1","null","","","<div style=""font-size:60px;"">+</div>","null","","","","","","","","","",""
"","html-keyboard-response","252","805071","0.0-10.0-1.16","uvwxyp6tl5","many_one","0","indirect_first","0","AN06AN06","0","21","1","1","1","1","null","","","<img src = 'category2/CS2.png' width = '100%;'>","null","","","","","","","","","",""
"","html-keyboard-response","253","805351","0.0-10.0-2.16","uvwxyp6tl5","many_one","0","indirect_first","0","AN06AN06","0","21","1","1","1","1","null","","","<img src = 'targets/19.png' width = '100%;'>","null","","","","","","","","","",""
"","html-keyboard-response","254","805880","0.0-10.0-3.16","uvwxyp6tl5","many_one","0","indirect_first","0","AN06AN06","0","21","1","1","1","1","527","","","<img src = 'targets/mask.png' width = '100%;'>","75","neg","GS","GSold","2","category2/CS2.png","targets/19.png","1","indirect","40",""
"","html-keyboard-response","255","807411","0.0-10.0-0.17","uvwxyp6tl5","many_one","0","indirect_first","0","AN06AN06","0","21","1","1","1","1","null","","","<div style=""font-size:60px;"">+</div>","null","","","","","","","","","",""
"","html-keyboard-response","256","807510","0.0-10.0-1.17","uvwxyp6tl5","many_one","0","indirect_first","0","AN06AN06","0","21","1","1","1","1","null","","","<img src = 'category2/men.png' width = '100%;'>","null","","","","","","","","","",""
"","html-keyboard-response","257","807791","0.0-10.0-2.17","uvwxyp6tl5","many_one","0","indirect_first","0","AN06AN06","0","21","1","1","1","1","null","","","<img src = 'targets/8.png' width = '100%;'>","null","","","","","","","","","",""
"","html-keyboard-response","258","808423","0.0-10.0-3.17","uvwxyp6tl5","many_one","0","indirect_first","0","AN06AN06","0","21","1","1","1","1","631","","","<img src = 'targets/mask.png' width = '100%;'>","68","neg","GS","abstract","2","category2/men.png","targets/8.png","0","indirect","41",""
"","html-keyboard-response","259","809950","0.0-10.0-0.18","uvwxyp6tl5","many_one","0","indirect_first","0","AN06AN06","0","21","1","1","1","1","null","","","<div style=""font-size:60px;"">+</div>","null","","","","","","","","","",""
"","html-keyboard-response","260","810051","0.0-10.0-1.18","uvwxyp6tl5","many_one","0","indirect_first","0","AN06AN06","0","21","1","1","1","1","null","","","<img src = 'category2/CS6.png' width = '100%;'>","null","","","","","","","","","",""
"","html-keyboard-response","261","810331","0.0-10.0-2.18","uvwxyp6tl5","many_one","0","indirect_first","0","AN06AN06","0","21","1","1","1","1","null","","","<img src = 'targets/17.png' width = '100%;'>","null","","","","","","","","","",""
"","html-keyboard-response","262","811176","0.0-10.0-3.18","uvwxyp6tl5","many_one","0","indirect_first","0","AN06AN06","0","21","1","1","1","1","843","","","<img src = 'targets/mask.png' width = '100%;'>","75","neg","GS","GSold","2","category2/CS6.png","targets/17.png","1","indirect","42",""
"","html-keyboard-response","263","812711","0.0-10.0-0.19","uvwxyp6tl5","many_one","0","indirect_first","0","AN06AN06","0","21","1","1","1","1","null","","","<div style=""font-size:60px;"">+</div>","null","","","","","","","","","",""
"","html-keyboard-response","264","812811","0.0-10.0-1.19","uvwxyp6tl5","many_one","0","indirect_first","0","AN06AN06","0","21","1","1","1","1","null","","","<img src = 'category3/wang.png' width = '100%;'>","null","","","","","","","","","",""
"","html-keyboard-response","265","813091","0.0-10.0-2.19","uvwxyp6tl5","many_one","0","indirect_first","0","AN06AN06","0","21","1","1","1","1","null","","","<img src = 'targets/47.png' width = '100%;'>","null","","","","","","","","","",""
"","html-keyboard-response","266","813926","0.0-10.0-3.19","uvwxyp6tl5","many_one","0","indirect_first","0","AN06AN06","0","21","1","1","1","1","835","","","<img src = 'targets/mask.png' width = '100%;'>","75","pos","GS","abstract","3","category3/wang.png","targets/47.png","1","indirect","43",""
"","html-keyboard-response","267","815461","0.0-10.0-0.20","uvwxyp6tl5","many_one","0","indirect_first","0","AN06AN06","0","21","1","1","1","1","null","","","<div style=""font-size:60px;"">+</div>","null","","","","","","","","","",""
"","html-keyboard-response","268","815561","0.0-10.0-1.20","uvwxyp6tl5","many_one","0","indirect_first","0","AN06AN06","0","21","1","1","1","1","null","","","<img src = 'category1/GS3.png' width = '100%;'>","null","","","","","","","","","",""
"","html-keyboard-response","269","815841","0.0-10.0-2.20","uvwxyp6tl5","many_one","0","indirect_first","0","AN06AN06","0","21","1","1","1","1","null","","","<img src = 'targets/7.png' width = '100%;'>","null","","","","","","","","","",""
"","html-keyboard-response","270","816559","0.0-10.0-3.20","uvwxyp6tl5","many_one","0","indirect_first","0","AN06AN06","0","21","1","1","1","1","718","","","<img src = 'targets/mask.png' width = '100%;'>","68","pos","GS","GSnew","1","category1/GS3.png","targets/7.png","0","indirect","44",""
"","html-keyboard-response","271","818081","0.0-10.0-0.21","uvwxyp6tl5","many_one","0","indirect_first","0","AN06AN06","0","21","1","1","1","1","null","","","<div style=""font-size:60px;"">+</div>","null","","","","","","","","","",""
"","html-keyboard-response","272","818181","0.0-10.0-1.21","uvwxyp6tl5","many_one","0","indirect_first","0","AN06AN06","0","21","1","1","1","1","null","","","<img src = 'category1/GS2.png' width = '100%;'>","null","","","","","","","","","",""
"","html-keyboard-response","273","818461","0.0-10.0-2.21","uvwxyp6tl5","many_one","0","indirect_first","0","AN06AN06","0","21","1","1","1","1","null","","","<img src = 'targets/45.png' width = '100%;'>","null","","","","","","","","","",""
"","html-keyboard-response","274","819014","0.0-10.0-3.21","uvwxyp6tl5","many_one","0","indirect_first","0","AN06AN06","0","21","1","1","1","1","552","","","<img src = 'targets/mask.png' width = '100%;'>","68","pos","GS","GSnew","1","category1/GS2.png","targets/45.png","0","indirect","45",""
"","html-keyboard-response","275","820521","0.0-10.0-0.22","uvwxyp6tl5","many_one","0","indirect_first","0","AN06AN06","0","21","1","1","1","1","null","","","<div style=""font-size:60px;"">+</div>","null","","","","","","","","","",""
"","html-keyboard-response","276","820621","0.0-10.0-1.22","uvwxyp6tl5","many_one","0","indirect_first","0","AN06AN06","0","21","1","1","1","1","null","","","<img src = 'category4/GS3.png' width = '100%;'>","null","","","","","","","","","",""
"","html-keyboard-response","277","820901","0.0-10.0-2.22","uvwxyp6tl5","many_one","0","indirect_first","0","AN06AN06","0","21","1","1","1","1","null","","","<img src = 'targets/15.png' width = '100%;'>","null","","","","","","","","","",""
"","html-keyboard-response","278","821743","0.0-10.0-3.22","uvwxyp6tl5","many_one","0","indirect_first","0","AN06AN06","0","21","1","1","1","1","841","","","<img src = 'targets/mask.png' width = '100%;'>","68","neg","GS","GSnew","4","category4/GS3.png","targets/15.png","0","indirect","46",""
"","html-keyboard-response","279","823281","0.0-10.0-0.23","uvwxyp6tl5","many_one","0","indirect_first","0","AN06AN06","0","21","1","1","1","1","null","","","<div style=""font-size:60px;"">+</div>","null","","","","","","","","","",""
"","html-keyboard-response","280","823381","0.0-10.0-1.23","uvwxyp6tl5","many_one","0","indirect_first","0","AN06AN06","0","21","1","1","1","1","null","","","<img src = 'category3/GS2.png' width = '100%;'>","null","","","","","","","","","",""
"","html-keyboard-response","281","823661","0.0-10.0-2.23","uvwxyp6tl5","many_one","0","indirect_first","0","AN06AN06","0","21","1","1","1","1","null","","","<img src = 'targets/31.png' width = '100%;'>","null","","","","","","","","","",""
"","html-keyboard-response","282","824159","0.0-10.0-3.23","uvwxyp6tl5","many_one","0","indirect_first","0","AN06AN06","0","21","1","1","1","1","497","","","<img src = 'targets/mask.png' width = '100%;'>","68","pos","GS","GSnew","3","category3/GS2.png","targets/31.png","0","indirect","47",""
"","survey-html-form","283","847615","0.0-11.0","uvwxyp6tl5","many_one","0","indirect_first","0","AN06AN06","0","21","1","1","1","1","22953","","{}","","","","","","","","","","","",""
"","image-slider-response","284","860662","0.0-12.0-0.0","uvwxyp6tl5","many_one","0","indirect_first","0","AN06AN06","0","21","1","1","1","1","11032","","","","","pos","CS","CS","3","category3/CS7.png","targets/36.png","","direct","","27"
"","image-slider-response","285","865239","0.0-12.0-0.1","uvwxyp6tl5","many_one","0","indirect_first","0","AN06AN06","0","21","1","1","1","1","4575","","","","","pos","GS","GSnew","3","category3/GS3.png","targets/38.png","","direct","","-34"
"","image-slider-response","286","872558","0.0-12.0-0.2","uvwxyp6tl5","many_one","0","indirect_first","0","AN06AN06","0","21","1","1","1","1","7318","","","","","pos","CS","CS","1","category1/CS3.png","targets/40.png","","direct","","-42"
"","image-slider-response","287","877710","0.0-12.0-0.3","uvwxyp6tl5","many_one","0","indirect_first","0","AN06AN06","0","21","1","1","1","1","5150","","","","","neg","GS","GSnew","2","category2/GS1.png","targets/2.png","","direct","","-76"
"","image-slider-response","288","883774","0.0-12.0-0.4","uvwxyp6tl5","many_one","0","indirect_first","0","AN06AN06","0","21","1","1","1","1","6063","","","","","pos","CS","CS","3","category3/CS9.png","targets/30.png","","direct","","57"
"","image-slider-response","289","890487","0.0-12.0-0.5","uvwxyp6tl5","many_one","0","indirect_first","0","AN06AN06","0","21","1","1","1","1","6711","","","","","neg","CS","CS","2","category2/CS4.png","targets/46.png","","direct","","-3"
"","image-slider-response","290","897799","0.0-12.0-0.6","uvwxyp6tl5","many_one","0","indirect_first","0","AN06AN06","0","21","1","1","1","1","7310","","","","","pos","GS","GSnew","3","category3/GS1.png","targets/35.png","","direct","","-38"
"","image-slider-response","291","901014","0.0-12.0-0.7","uvwxyp6tl5","many_one","0","indirect_first","0","AN06AN06","0","21","1","1","1","1","3215","","","","","neg","CS","CS","2","category2/CS1.png","targets/39.png","","direct","","37"
"","image-slider-response","292","904671","0.0-12.0-0.8","uvwxyp6tl5","many_one","0","indirect_first","0","AN06AN06","0","21","1","1","1","1","3655","","","","","neg","CS","CS","4","category4/CS10.png","targets/20.png","","direct","","52"
"","image-slider-response","293","911350","0.0-12.0-0.9","uvwxyp6tl5","many_one","0","indirect_first","0","AN06AN06","0","21","1","1","1","1","6678","","","","","neg","GS","GSnew","2","category2/GS2.png","targets/42.png","","direct","","24"
"","image-slider-response","294","915319","0.0-12.0-0.10","uvwxyp6tl5","many_one","0","indirect_first","0","AN06AN06","0","21","1","1","1","1","3966","","","","","neg","GS","abstract","2","category2/men.png","targets/8.png","","direct","","68"
"","image-slider-response","295","922710","0.0-12.0-0.11","uvwxyp6tl5","many_one","0","indirect_first","0","AN06AN06","0","21","1","1","1","1","7390","","","","","pos","GS","GSold","3","category3/CS2.png","targets/32.png","","direct","","25"
"","image-slider-response","296","927830","0.0-12.0-0.12","uvwxyp6tl5","many_one","0","indirect_first","0","AN06AN06","0","21","1","1","1","1","5119","","","","","pos","GS","abstract","3","category3/wang.png","targets/47.png","","direct","","18"
"","image-slider-response","297","931606","0.0-12.0-0.13","uvwxyp6tl5","many_one","0","indirect_first","0","AN06AN06","0","21","1","1","1","1","3775","","","","","neg","GS","GSold","4","category4/CS5.png","targets/27.png","","direct","","27"
"","image-slider-response","298","937278","0.0-12.0-0.14","uvwxyp6tl5","many_one","0","indirect_first","0","AN06AN06","0","21","1","1","1","1","5671","","","","","neg","GS","GSnew","4","category4/GS2.png","targets/4.png","","direct","","-81"
"","image-slider-response","299","940734","0.0-12.0-0.15","uvwxyp6tl5","many_one","0","indirect_first","0","AN06AN06","0","21","1","1","1","1","3455","","","","","pos","CS","CS","3","category3/CS10.png","targets/18.png","","direct","","-52"
"","image-slider-response","300","943774","0.0-12.0-0.16","uvwxyp6tl5","many_one","0","indirect_first","0","AN06AN06","0","21","1","1","1","1","3040","","","","","neg","GS","GSold","2","category2/CS5.png","targets/14.png","","direct","","-41"
"","image-slider-response","301","946654","0.0-12.0-0.17","uvwxyp6tl5","many_one","0","indirect_first","0","AN06AN06","0","21","1","1","1","1","2879","","","","","neg","GS","GSnew","4","category4/GS3.png","targets/15.png","","direct","","-47"
"","image-slider-response","302","953646","0.0-12.0-0.18","uvwxyp6tl5","many_one","0","indirect_first","0","AN06AN06","0","21","1","1","1","1","6991","","","","","neg","CS","CS","2","category2/CS3.png","targets/5.png","","direct","","-66"
"","image-slider-response","303","956358","0.0-12.0-0.19","uvwxyp6tl5","many_one","0","indirect_first","0","AN06AN06","0","21","1","1","1","1","2711","","","","","pos","GS","GSold","1","category1/CS7.png","targets/13.png","","direct","","-35"
"","image-slider-response","304","961455","0.0-12.0-0.20","uvwxyp6tl5","many_one","0","indirect_first","0","AN06AN06","0","21","1","1","1","1","5095","","","","","pos","GS","GSnew","3","category3/GS2.png","targets/31.png","","direct","","-44"
"","image-slider-response","305","968254","0.0-12.0-0.21","uvwxyp6tl5","many_one","0","indirect_first","0","AN06AN06","0","21","1","1","1","1","6798","","","","","pos","CS","CS","3","category3/CS6.png","targets/29.png","","direct","","21"
"","image-slider-response","306","971270","0.0-12.0-0.22","uvwxyp6tl5","many_one","0","indirect_first","0","AN06AN06","0","21","1","1","1","1","3014","","","","","neg","GS","GSnew","4","category4/GS1.png","targets/9.png","","direct","","23"
"","image-slider-response","307","976126","0.0-12.0-0.23","uvwxyp6tl5","many_one","0","indirect_first","0","AN06AN06","0","21","1","1","1","1","4855","","","","","neg","GS","GSold","4","category4/CS3.png","targets/25.png","","direct","","-25"
"","image-slider-response","308","981286","0.0-12.0-0.24","uvwxyp6tl5","many_one","0","indirect_first","0","AN06AN06","0","21","1","1","1","1","5159","","","","","pos","GS","GSold","1","category1/CS2.png","targets/43.png","","direct","","-84"
"","image-slider-response","309","985358","0.0-12.0-0.25","uvwxyp6tl5","many_one","0","indirect_first","0","AN06AN06","0","21","1","1","1","1","4070","","","","","pos","CS","CS","1","category1/CS10.png","targets/22.png","","direct","","34"
"","image-slider-response","310","988006","0.0-12.0-0.26","uvwxyp6tl5","many_one","0","indirect_first","0","AN06AN06","0","21","1","1","1","1","2646","","","","","neg","GS","abstract","4","category4/lin.png","targets/6.png","","direct","","40"
"","image-slider-response","311","992622","0.0-12.0-0.27","uvwxyp6tl5","many_one","0","indirect_first","0","AN06AN06","0","21","1","1","1","1","4615","","","","","pos","CS","CS","1","category1/CS8.png","targets/26.png","","direct","","18"
"","image-slider-response","312","995710","0.0-12.0-0.28","uvwxyp6tl5","many_one","0","indirect_first","0","AN06AN06","0","21","1","1","1","1","3087","","","","","pos","CS","CS","1","category1/CS4.png","targets/48.png","","direct","","15"
"","image-slider-response","313","999510","0.0-12.0-0.29","uvwxyp6tl5","many_one","0","indirect_first","0","AN06AN06","0","21","1","1","1","1","3798","","","","","pos","GS","GSnew","1","category1/GS1.png","targets/10.png","","direct","","44"
"","image-slider-response","314","1002702","0.0-12.0-0.30","uvwxyp6tl5","many_one","0","indirect_first","0","AN06AN06","0","21","1","1","1","1","3191","","","","","pos","GS","GSold","1","category1/CS1.png","targets/24.png","","direct","","37"
"","image-slider-response","315","1007414","0.0-12.0-0.31","uvwxyp6tl5","many_one","0","indirect_first","0","AN06AN06","0","21","1","1","1","1","4711","","","","","neg","CS","CS","4","category4/CS7.png","targets/34.png","","direct","","45"
"","image-slider-response","316","1010382","0.0-12.0-0.32","uvwxyp6tl5","many_one","0","indirect_first","0","AN06AN06","0","21","1","1","1","1","2967","","","","","pos","GS","GSold","3","category3/CS3.png","targets/21.png","","direct","","-28"
"","image-slider-response","317","1013094","0.0-12.0-0.33","uvwxyp6tl5","many_one","0","indirect_first","0","AN06AN06","0","21","1","1","1","1","2711","","","","","pos","GS","abstract","1","category1/ma.png","targets/1.png","","direct","","37"
"","image-slider-response","318","1019551","0.0-12.0-0.34","uvwxyp6tl5","many_one","0","indirect_first","0","AN06AN06","0","21","1","1","1","1","6456","","","","","pos","CS","CS","1","category1/CS6.png","targets/16.png","","direct","","15"
"","image-slider-response","319","1024438","0.0-12.0-0.35","uvwxyp6tl5","many_one","0","indirect_first","0","AN06AN06","0","21","1","1","1","1","4888","","","","","neg","GS","GSold","2","category2/CS2.png","targets/19.png","","direct","","54"
"","image-slider-response","320","1028822","0.0-12.0-0.36","uvwxyp6tl5","many_one","0","indirect_first","0","AN06AN06","0","21","1","1","1","1","4383","","","","","neg","CS","CS","4","category4/CS4.png","targets/33.png","","direct","","78"
"","image-slider-response","321","1031926","0.0-12.0-0.37","uvwxyp6tl5","many_one","0","indirect_first","0","AN06AN06","0","21","1","1","1","1","3103","","","","","pos","GS","GSnew","1","category1/GS2.png","targets/45.png","","direct","","22"
"","image-slider-response","322","1035534","0.0-12.0-0.38","uvwxyp6tl5","many_one","0","indirect_first","0","AN06AN06","0","21","1","1","1","1","3606","","","","","neg","GS","GSnew","2","category2/GS3.png","targets/11.png","","direct","","4"
"","image-slider-response","323","1038775","0.0-12.0-0.39","uvwxyp6tl5","many_one","0","indirect_first","0","AN06AN06","0","21","1","1","1","1","3239","","","","","neg","GS","GSold","2","category2/CS6.png","targets/17.png","","direct","","59"
"","image-slider-response","324","1041447","0.0-12.0-0.40","uvwxyp6tl5","many_one","0","indirect_first","0","AN06AN06","0","21","1","1","1","1","2671","","","","","neg","CS","CS","2","category2/CS7.png","targets/12.png","","direct","","-42"
"","image-slider-response","325","1044215","0.0-12.0-0.41","uvwxyp6tl5","many_one","0","indirect_first","0","AN06AN06","0","21","1","1","1","1","2767","","","","","neg","GS","GSold","4","category4/CS8.png","targets/44.png","","direct","","14"
"","image-slider-response","326","1046822","0.0-12.0-0.42","uvwxyp6tl5","many_one","0","indirect_first","0","AN06AN06","0","21","1","1","1","1","2606","","","","","neg","CS","CS","4","category4/CS6.png","targets/37.png","","direct","","28"
"","image-slider-response","327","1052702","0.0-12.0-0.43","uvwxyp6tl5","many_one","0","indirect_first","0","AN06AN06","0","21","1","1","1","1","5879","","","","","pos","GS","GSnew","1","category1/GS3.png","targets/7.png","","direct","","57"
"","image-slider-response","328","1056759","0.0-12.0-0.44","uvwxyp6tl5","many_one","0","indirect_first","0","AN06AN06","0","21","1","1","1","1","4056","","","","","pos","GS","GSold","3","category3/CS5.png","targets/23.png","","direct","","-5"
"","image-slider-response","329","1059718","0.0-12.0-0.45","uvwxyp6tl5","many_one","0","indirect_first","0","AN06AN06","0","21","1","1","1","1","2958","","","","","neg","CS","CS","4","category4/CS1.png","targets/41.png","","direct","","85"
"","image-slider-response","330","1064134","0.0-12.0-0.46","uvwxyp6tl5","many_one","0","indirect_first","0","AN06AN06","0","21","1","1","1","1","4416","","","","","neg","CS","CS","2","category2/CS10.png","targets/3.png","","direct","","100"
"","image-slider-response","331","1066918","0.0-12.0-0.47","uvwxyp6tl5","many_one","0","indirect_first","0","AN06AN06","0","21","1","1","1","1","2784","","","","","pos","CS","CS","3","category3/CS8.png","targets/28.png","","direct","","-67"
"","survey-html-form","332","1077887","0.0-13.0","uvwxyp6tl5","many_one","0","indirect_first","0","AN06AN06","0","21","1","1","1","1","10968","","{}","","","","","","","","","","","",""
"","image-slider-response","333","1083791","0.0-14.0-0.0","uvwxyp6tl5","many_one","0","indirect_first","0","AN06AN06","0","21","1","1","1","1","4886","","","","","neg","All","all","2","category2/men_all.png","","","all","","21"
"","image-slider-response","334","1087110","0.0-14.0-0.1","uvwxyp6tl5","many_one","0","indirect_first","0","AN06AN06","0","21","1","1","1","1","3319","","","","","neg","All","all","4","category4/lin_all.png","","","all","","83"
"","image-slider-response","335","1093950","0.0-14.0-0.2","uvwxyp6tl5","many_one","0","indirect_first","0","AN06AN06","0","21","1","1","1","1","6839","","","","","pos","All","all","1","category1/ma_all.png","","","all","","17"
"","image-slider-response","336","1097062","0.0-14.0-0.3","uvwxyp6tl5","many_one","0","indirect_first","0","AN06AN06","0","21","1","1","1","1","3111","","","","","pos","All","all","3","category3/wang_all.png","","","all","","24"
"","survey-text","337","1101152","0.0-15.0","uvwxyp6tl5","many_one","0","indirect_first","0","AN06AN06","0","21","1","1","1","1","4086","","{""Q0"":""""}","","","","","","","","","","","",""
