"success","trial_type","trial_index","time_elapsed","internal_node_id","subject","condition","condition_code","measure","measure_code","codeword","gender","age","education","chinese","fach","handedness","comment","hinschauen","ablenkung","gewissenhaft","rt","url","responses","stimulus","key_press","val","type","type_specific","category","cs_selected","target","indirect","task","nr_pres","response"
"true","fullscreen","0","10290","0.0-0.0","80v1177e8v","many_one","0","indirect_first","0","Uß04ER02","0","24","1","1","3","1","","0","1","0","","","","","","","","","","","","","","",""
"","external-html","1","21761","0.0-1.0","80v1177e8v","many_one","0","indirect_first","0","Uß04ER02","0","24","1","1","3","1","","0","1","0","11394.49999993667","text/information.html","","","","","","","","","","","","",""
"","external-html","2","39869","0.0-2.0","80v1177e8v","many_one","0","indirect_first","0","Uß04ER02","0","24","1","1","3","1","","0","1","0","18032.614999916404","text/consent.html","","","","","","","","","","","","",""
"","survey-html-form","3","75683","0.0-3.0","80v1177e8v","many_one","0","indirect_first","0","Uß04ER02","0","24","1","1","3","1","","0","1","0","35802.74000018835","","{""codeword_enter"":""Uß04ER02""}","","","","","","","","","","","",""
"","survey-html-form","4","100370","0.0-4.0","80v1177e8v","many_one","0","indirect_first","0","Uß04ER02","0","24","1","1","3","1","","0","1","0","24675.57999957353","","{""age"":""24"",""education"":""1"",""subject"":""3"",""gender"":""0"",""handedness"":""1"",""chinese"":""1""}","","","","","","","","","","","",""
"","survey-html-form","5","113180","0.0-5.0","80v1177e8v","many_one","0","indirect_first","0","Uß04ER02","0","24","1","1","3","1","","0","1","0","12804.26499992609","","{}","","","","","","","","","","","",""
"","html-keyboard-response","6","117190","0.0-6.0-0.0-0.0","80v1177e8v","many_one","0","indirect_first","0","Uß04ER02","0","24","1","1","3","1","","0","1","0","null","","","<div class = 'row'><div class = 'column'><img src = 'category1/CS5.png' width = '70%;'></div><div class = 'column'><img src = 'usneg/6212.bmp' width = '100%;'></div></div>","null","neg","CS","CS","1","category1/CS5.png","","","","",""
"","html-keyboard-response","7","119697","0.0-6.0-0.0-0.1","80v1177e8v","many_one","0","indirect_first","0","Uß04ER02","0","24","1","1","3","1","","0","1","0","null","","","<div class = 'row'><div class = 'column'><img src = 'uspos/2057.bmp' width = '100%;'></div><div class = 'column'><img src = 'category2/CS2.png' width = '70%;'></div></div>","null","pos","CS","CS","2","category2/CS2.png","","","","",""
"","html-keyboard-response","8","122203","0.0-6.0-0.0-0.2","80v1177e8v","many_one","0","indirect_first","0","Uß04ER02","0","24","1","1","3","1","","0","1","0","null","","","<div class = 'row'><div class = 'column'><img src = 'category4/CS10.png' width = '70%;'></div><div class = 'column'><img src = 'usneg/9000.bmp' width = '100%;'></div></div>","null","neg","CS","CS","4","category4/CS10.png","","","","",""
"","html-keyboard-response","9","124708","0.0-6.0-0.0-0.3","80v1177e8v","many_one","0","indirect_first","0","Uß04ER02","0","24","1","1","3","1","","0","1","0","null","","","<div class = 'row'><div class = 'column'><img src = 'usneg/6020.bmp' width = '100%;'></div><div class = 'column'><img src = 'category4/CS5.png' width = '70%;'></div></div>","null","neg","CS","CS","4","category4/CS5.png","","","","",""
"","html-keyboard-response","10","127213","0.0-6.0-0.0-0.4","80v1177e8v","many_one","0","indirect_first","0","Uß04ER02","0","24","1","1","3","1","","0","1","0","null","","","<div class = 'row'><div class = 'column'><img src = 'usneg/2900.bmp' width = '100%;'></div><div class = 'column'><img src = 'category4/CS4.png' width = '70%;'></div></div>","null","neg","CS","CS","4","category4/CS4.png","","","","",""
"","html-keyboard-response","11","129718","0.0-6.0-0.0-0.5","80v1177e8v","many_one","0","indirect_first","0","Uß04ER02","0","24","1","1","3","1","","0","1","0","null","","","<div class = 'row'><div class = 'column'><img src = 'category3/CS2.png' width = '70%;'></div><div class = 'column'><img src = 'uspos/2900.2.bmp' width = '100%;'></div></div>","null","pos","CS","CS","3","category3/CS2.png","","","","",""
"","html-keyboard-response","12","132223","0.0-6.0-0.0-0.6","80v1177e8v","many_one","0","indirect_first","0","Uß04ER02","0","24","1","1","3","1","","0","1","0","null","","","<div class = 'row'><div class = 'column'><img src = 'uspos/5621.bmp' width = '100%;'></div><div class = 'column'><img src = 'category2/CS9.png' width = '70%;'></div></div>","null","pos","CS","CS","2","category2/CS9.png","","","","",""
"","html-keyboard-response","13","134727","0.0-6.0-0.0-0.7","80v1177e8v","many_one","0","indirect_first","0","Uß04ER02","0","24","1","1","3","1","","0","1","0","null","","","<div class = 'row'><div class = 'column'><img src = 'category3/CS6.png' width = '70%;'></div><div class = 'column'><img src = 'uspos/7325.bmp' width = '100%;'></div></div>","null","pos","CS","CS","3","category3/CS6.png","","","","",""
"","html-keyboard-response","14","137234","0.0-6.0-0.0-0.8","80v1177e8v","many_one","0","indirect_first","0","Uß04ER02","0","24","1","1","3","1","","0","1","0","null","","","<div class = 'row'><div class = 'column'><img src = 'usneg/3160.bmp' width = '100%;'></div><div class = 'column'><img src = 'category4/CS2.png' width = '70%;'></div></div>","null","neg","CS","CS","4","category4/CS2.png","","","","",""
"","html-keyboard-response","15","139738","0.0-6.0-0.0-0.9","80v1177e8v","many_one","0","indirect_first","0","Uß04ER02","0","24","1","1","3","1","","0","1","0","null","","","<div class = 'row'><div class = 'column'><img src = 'category1/CS4.png' width = '70%;'></div><div class = 'column'><img src = 'usneg/7380.bmp' width = '100%;'></div></div>","null","neg","CS","CS","1","category1/CS4.png","","","","",""
"","html-keyboard-response","16","142245","0.0-6.0-0.0-0.10","80v1177e8v","many_one","0","indirect_first","0","Uß04ER02","0","24","1","1","3","1","","0","1","0","null","","","<div class = 'row'><div class = 'column'><img src = 'uspos/5470.bmp' width = '100%;'></div><div class = 'column'><img src = 'category3/CS8.png' width = '70%;'></div></div>","null","pos","CS","CS","3","category3/CS8.png","","","","",""
"","html-keyboard-response","17","144750","0.0-6.0-0.0-0.11","80v1177e8v","many_one","0","indirect_first","0","Uß04ER02","0","24","1","1","3","1","","0","1","0","null","","","<div class = 'row'><div class = 'column'><img src = 'usneg/9342.bmp' width = '100%;'></div><div class = 'column'><img src = 'category4/CS7.png' width = '70%;'></div></div>","null","neg","CS","CS","4","category4/CS7.png","","","","",""
"","html-keyboard-response","18","147256","0.0-6.0-0.0-0.12","80v1177e8v","many_one","0","indirect_first","0","Uß04ER02","0","24","1","1","3","1","","0","1","0","null","","","<div class = 'row'><div class = 'column'><img src = 'uspos/2530.bmp' width = '100%;'></div><div class = 'column'><img src = 'category2/CS6.png' width = '70%;'></div></div>","null","pos","CS","CS","2","category2/CS6.png","","","","",""
"","html-keyboard-response","19","149761","0.0-6.0-0.0-0.13","80v1177e8v","many_one","0","indirect_first","0","Uß04ER02","0","24","1","1","3","1","","0","1","0","null","","","<div class = 'row'><div class = 'column'><img src = 'category3/CS5.png' width = '70%;'></div><div class = 'column'><img src = 'uspos/5830.bmp' width = '100%;'></div></div>","null","pos","CS","CS","3","category3/CS5.png","","","","",""
"","html-keyboard-response","20","152266","0.0-6.0-0.0-0.14","80v1177e8v","many_one","0","indirect_first","0","Uß04ER02","0","24","1","1","3","1","","0","1","0","null","","","<div class = 'row'><div class = 'column'><img src = 'category3/CS9.png' width = '70%;'></div><div class = 'column'><img src = 'uspos/2040.bmp' width = '100%;'></div></div>","null","pos","CS","CS","3","category3/CS9.png","","","","",""
"","html-keyboard-response","21","154772","0.0-6.0-0.0-0.15","80v1177e8v","many_one","0","indirect_first","0","Uß04ER02","0","24","1","1","3","1","","0","1","0","null","","","<div class = 'row'><div class = 'column'><img src = 'usneg/9584.bmp' width = '100%;'></div><div class = 'column'><img src = 'category1/CS3.png' width = '70%;'></div></div>","null","neg","CS","CS","1","category1/CS3.png","","","","",""
"","html-keyboard-response","22","157278","0.0-6.0-0.0-0.16","80v1177e8v","many_one","0","indirect_first","0","Uß04ER02","0","24","1","1","3","1","","0","1","0","null","","","<div class = 'row'><div class = 'column'><img src = 'category1/CS10.png' width = '70%;'></div><div class = 'column'><img src = 'usneg/9435.bmp' width = '100%;'></div></div>","null","neg","CS","CS","1","category1/CS10.png","","","","",""
"","html-keyboard-response","23","159784","0.0-6.0-0.0-0.17","80v1177e8v","many_one","0","indirect_first","0","Uß04ER02","0","24","1","1","3","1","","0","1","0","null","","","<div class = 'row'><div class = 'column'><img src = 'category2/CS1.png' width = '70%;'></div><div class = 'column'><img src = 'uspos/2058.bmp' width = '100%;'></div></div>","null","pos","CS","CS","2","category2/CS1.png","","","","",""
"","html-keyboard-response","24","162289","0.0-6.0-0.0-0.18","80v1177e8v","many_one","0","indirect_first","0","Uß04ER02","0","24","1","1","3","1","","0","1","0","null","","","<div class = 'row'><div class = 'column'><img src = 'uspos/2311.bmp' width = '100%;'></div><div class = 'column'><img src = 'category2/CS4.png' width = '70%;'></div></div>","null","pos","CS","CS","2","category2/CS4.png","","","","",""
"","html-keyboard-response","25","164801","0.0-6.0-0.0-0.19","80v1177e8v","many_one","0","indirect_first","0","Uß04ER02","0","24","1","1","3","1","","0","1","0","null","","","<div class = 'row'><div class = 'column'><img src = 'usneg/6838.bmp' width = '100%;'></div><div class = 'column'><img src = 'category1/CS6.png' width = '70%;'></div></div>","null","neg","CS","CS","1","category1/CS6.png","","","","",""
"","survey-html-form","26","171210","0.0-6.0-1.0","80v1177e8v","many_one","0","indirect_first","0","Uß04ER02","0","24","1","1","3","1","","0","1","0","5906.919999979436","","{}","","","","","","","","","","","",""
"","html-keyboard-response","27","175217","0.0-6.0-2.0-0.0","80v1177e8v","many_one","0","indirect_first","0","Uß04ER02","0","24","1","1","3","1","","0","1","0","null","","","<div class = 'row'><div class = 'column'><img src = 'category3/CS6.png' width = '70%;'></div><div class = 'column'><img src = 'uspos/7325.bmp' width = '100%;'></div></div>","null","pos","CS","CS","3","category3/CS6.png","","","","",""
"","html-keyboard-response","28","177723","0.0-6.0-2.0-0.1","80v1177e8v","many_one","0","indirect_first","0","Uß04ER02","0","24","1","1","3","1","","0","1","0","null","","","<div class = 'row'><div class = 'column'><img src = 'category3/CS8.png' width = '70%;'></div><div class = 'column'><img src = 'uspos/5470.bmp' width = '100%;'></div></div>","null","pos","CS","CS","3","category3/CS8.png","","","","",""
"","html-keyboard-response","29","180228","0.0-6.0-2.0-0.2","80v1177e8v","many_one","0","indirect_first","0","Uß04ER02","0","24","1","1","3","1","","0","1","0","null","","","<div class = 'row'><div class = 'column'><img src = 'usneg/9584.bmp' width = '100%;'></div><div class = 'column'><img src = 'category1/CS3.png' width = '70%;'></div></div>","null","neg","CS","CS","1","category1/CS3.png","","","","",""
"","html-keyboard-response","30","182733","0.0-6.0-2.0-0.3","80v1177e8v","many_one","0","indirect_first","0","Uß04ER02","0","24","1","1","3","1","","0","1","0","null","","","<div class = 'row'><div class = 'column'><img src = 'uspos/2311.bmp' width = '100%;'></div><div class = 'column'><img src = 'category2/CS4.png' width = '70%;'></div></div>","null","pos","CS","CS","2","category2/CS4.png","","","","",""
"","html-keyboard-response","31","185239","0.0-6.0-2.0-0.4","80v1177e8v","many_one","0","indirect_first","0","Uß04ER02","0","24","1","1","3","1","","0","1","0","null","","","<div class = 'row'><div class = 'column'><img src = 'usneg/9000.bmp' width = '100%;'></div><div class = 'column'><img src = 'category4/CS10.png' width = '70%;'></div></div>","null","neg","CS","CS","4","category4/CS10.png","","","","",""
"","html-keyboard-response","32","187744","0.0-6.0-2.0-0.5","80v1177e8v","many_one","0","indirect_first","0","Uß04ER02","0","24","1","1","3","1","","0","1","0","null","","","<div class = 'row'><div class = 'column'><img src = 'usneg/2900.bmp' width = '100%;'></div><div class = 'column'><img src = 'category4/CS4.png' width = '70%;'></div></div>","null","neg","CS","CS","4","category4/CS4.png","","","","",""
"","html-keyboard-response","33","190250","0.0-6.0-2.0-0.6","80v1177e8v","many_one","0","indirect_first","0","Uß04ER02","0","24","1","1","3","1","","0","1","0","null","","","<div class = 'row'><div class = 'column'><img src = 'category3/CS5.png' width = '70%;'></div><div class = 'column'><img src = 'uspos/5830.bmp' width = '100%;'></div></div>","null","pos","CS","CS","3","category3/CS5.png","","","","",""
"","html-keyboard-response","34","192755","0.0-6.0-2.0-0.7","80v1177e8v","many_one","0","indirect_first","0","Uß04ER02","0","24","1","1","3","1","","0","1","0","null","","","<div class = 'row'><div class = 'column'><img src = 'uspos/2900.2.bmp' width = '100%;'></div><div class = 'column'><img src = 'category3/CS2.png' width = '70%;'></div></div>","null","pos","CS","CS","3","category3/CS2.png","","","","",""
"","html-keyboard-response","35","195263","0.0-6.0-2.0-0.8","80v1177e8v","many_one","0","indirect_first","0","Uß04ER02","0","24","1","1","3","1","","0","1","0","null","","","<div class = 'row'><div class = 'column'><img src = 'uspos/2530.bmp' width = '100%;'></div><div class = 'column'><img src = 'category2/CS6.png' width = '70%;'></div></div>","null","pos","CS","CS","2","category2/CS6.png","","","","",""
"","html-keyboard-response","36","197768","0.0-6.0-2.0-0.9","80v1177e8v","many_one","0","indirect_first","0","Uß04ER02","0","24","1","1","3","1","","0","1","0","null","","","<div class = 'row'><div class = 'column'><img src = 'uspos/2057.bmp' width = '100%;'></div><div class = 'column'><img src = 'category2/CS2.png' width = '70%;'></div></div>","null","pos","CS","CS","2","category2/CS2.png","","","","",""
"","html-keyboard-response","37","200273","0.0-6.0-2.0-0.10","80v1177e8v","many_one","0","indirect_first","0","Uß04ER02","0","24","1","1","3","1","","0","1","0","null","","","<div class = 'row'><div class = 'column'><img src = 'usneg/6212.bmp' width = '100%;'></div><div class = 'column'><img src = 'category1/CS5.png' width = '70%;'></div></div>","null","neg","CS","CS","1","category1/CS5.png","","","","",""
"","html-keyboard-response","38","202778","0.0-6.0-2.0-0.11","80v1177e8v","many_one","0","indirect_first","0","Uß04ER02","0","24","1","1","3","1","","0","1","0","null","","","<div class = 'row'><div class = 'column'><img src = 'category4/CS7.png' width = '70%;'></div><div class = 'column'><img src = 'usneg/9342.bmp' width = '100%;'></div></div>","null","neg","CS","CS","4","category4/CS7.png","","","","",""
"","html-keyboard-response","39","205285","0.0-6.0-2.0-0.12","80v1177e8v","many_one","0","indirect_first","0","Uß04ER02","0","24","1","1","3","1","","0","1","0","null","","","<div class = 'row'><div class = 'column'><img src = 'usneg/3160.bmp' width = '100%;'></div><div class = 'column'><img src = 'category4/CS2.png' width = '70%;'></div></div>","null","neg","CS","CS","4","category4/CS2.png","","","","",""
"","html-keyboard-response","40","207791","0.0-6.0-2.0-0.13","80v1177e8v","many_one","0","indirect_first","0","Uß04ER02","0","24","1","1","3","1","","0","1","0","null","","","<div class = 'row'><div class = 'column'><img src = 'category1/CS6.png' width = '70%;'></div><div class = 'column'><img src = 'usneg/6838.bmp' width = '100%;'></div></div>","null","neg","CS","CS","1","category1/CS6.png","","","","",""
"","html-keyboard-response","41","210296","0.0-6.0-2.0-0.14","80v1177e8v","many_one","0","indirect_first","0","Uß04ER02","0","24","1","1","3","1","","0","1","0","null","","","<div class = 'row'><div class = 'column'><img src = 'category2/CS9.png' width = '70%;'></div><div class = 'column'><img src = 'uspos/5621.bmp' width = '100%;'></div></div>","null","pos","CS","CS","2","category2/CS9.png","","","","",""
"","html-keyboard-response","42","212800","0.0-6.0-2.0-0.15","80v1177e8v","many_one","0","indirect_first","0","Uß04ER02","0","24","1","1","3","1","","0","1","0","null","","","<div class = 'row'><div class = 'column'><img src = 'usneg/9435.bmp' width = '100%;'></div><div class = 'column'><img src = 'category1/CS10.png' width = '70%;'></div></div>","null","neg","CS","CS","1","category1/CS10.png","","","","",""
"","html-keyboard-response","43","215307","0.0-6.0-2.0-0.16","80v1177e8v","many_one","0","indirect_first","0","Uß04ER02","0","24","1","1","3","1","","0","1","0","null","","","<div class = 'row'><div class = 'column'><img src = 'usneg/7380.bmp' width = '100%;'></div><div class = 'column'><img src = 'category1/CS4.png' width = '70%;'></div></div>","null","neg","CS","CS","1","category1/CS4.png","","","","",""
"","html-keyboard-response","44","217812","0.0-6.0-2.0-0.17","80v1177e8v","many_one","0","indirect_first","0","Uß04ER02","0","24","1","1","3","1","","0","1","0","null","","","<div class = 'row'><div class = 'column'><img src = 'uspos/2040.bmp' width = '100%;'></div><div class = 'column'><img src = 'category3/CS9.png' width = '70%;'></div></div>","null","pos","CS","CS","3","category3/CS9.png","","","","",""
"","html-keyboard-response","45","220317","0.0-6.0-2.0-0.18","80v1177e8v","many_one","0","indirect_first","0","Uß04ER02","0","24","1","1","3","1","","0","1","0","null","","","<div class = 'row'><div class = 'column'><img src = 'category4/CS5.png' width = '70%;'></div><div class = 'column'><img src = 'usneg/6020.bmp' width = '100%;'></div></div>","null","neg","CS","CS","4","category4/CS5.png","","","","",""
"","html-keyboard-response","46","222821","0.0-6.0-2.0-0.19","80v1177e8v","many_one","0","indirect_first","0","Uß04ER02","0","24","1","1","3","1","","0","1","0","null","","","<div class = 'row'><div class = 'column'><img src = 'uspos/2058.bmp' width = '100%;'></div><div class = 'column'><img src = 'category2/CS1.png' width = '70%;'></div></div>","null","pos","CS","CS","2","category2/CS1.png","","","","",""
"","survey-html-form","47","225679","0.0-6.0-3.0","80v1177e8v","many_one","0","indirect_first","0","Uß04ER02","0","24","1","1","3","1","","0","1","0","2355.8899997733533","","{}","","","","","","","","","","","",""
"","html-keyboard-response","48","229691","0.0-6.0-4.0-0.0","80v1177e8v","many_one","0","indirect_first","0","Uß04ER02","0","24","1","1","3","1","","0","1","0","null","","","<div class = 'row'><div class = 'column'><img src = 'usneg/7380.bmp' width = '100%;'></div><div class = 'column'><img src = 'category1/CS4.png' width = '70%;'></div></div>","null","neg","CS","CS","1","category1/CS4.png","","","","",""
"","html-keyboard-response","49","232204","0.0-6.0-4.0-0.1","80v1177e8v","many_one","0","indirect_first","0","Uß04ER02","0","24","1","1","3","1","","0","1","0","null","","","<div class = 'row'><div class = 'column'><img src = 'category4/CS4.png' width = '70%;'></div><div class = 'column'><img src = 'usneg/2900.bmp' width = '100%;'></div></div>","null","neg","CS","CS","4","category4/CS4.png","","","","",""
"","html-keyboard-response","50","234711","0.0-6.0-4.0-0.2","80v1177e8v","many_one","0","indirect_first","0","Uß04ER02","0","24","1","1","3","1","","0","1","0","null","","","<div class = 'row'><div class = 'column'><img src = 'usneg/9435.bmp' width = '100%;'></div><div class = 'column'><img src = 'category1/CS10.png' width = '70%;'></div></div>","null","neg","CS","CS","1","category1/CS10.png","","","","",""
"","html-keyboard-response","51","237223","0.0-6.0-4.0-0.3","80v1177e8v","many_one","0","indirect_first","0","Uß04ER02","0","24","1","1","3","1","","0","1","0","null","","","<div class = 'row'><div class = 'column'><img src = 'uspos/5470.bmp' width = '100%;'></div><div class = 'column'><img src = 'category3/CS8.png' width = '70%;'></div></div>","null","pos","CS","CS","3","category3/CS8.png","","","","",""
"","html-keyboard-response","52","239738","0.0-6.0-4.0-0.4","80v1177e8v","many_one","0","indirect_first","0","Uß04ER02","0","24","1","1","3","1","","0","1","0","null","","","<div class = 'row'><div class = 'column'><img src = 'uspos/5621.bmp' width = '100%;'></div><div class = 'column'><img src = 'category2/CS9.png' width = '70%;'></div></div>","null","pos","CS","CS","2","category2/CS9.png","","","","",""
"","html-keyboard-response","53","242243","0.0-6.0-4.0-0.5","80v1177e8v","many_one","0","indirect_first","0","Uß04ER02","0","24","1","1","3","1","","0","1","0","null","","","<div class = 'row'><div class = 'column'><img src = 'category1/CS5.png' width = '70%;'></div><div class = 'column'><img src = 'usneg/6212.bmp' width = '100%;'></div></div>","null","neg","CS","CS","1","category1/CS5.png","","","","",""
"","html-keyboard-response","54","244749","0.0-6.0-4.0-0.6","80v1177e8v","many_one","0","indirect_first","0","Uß04ER02","0","24","1","1","3","1","","0","1","0","null","","","<div class = 'row'><div class = 'column'><img src = 'uspos/2040.bmp' width = '100%;'></div><div class = 'column'><img src = 'category3/CS9.png' width = '70%;'></div></div>","null","pos","CS","CS","3","category3/CS9.png","","","","",""
"","html-keyboard-response","55","247262","0.0-6.0-4.0-0.7","80v1177e8v","many_one","0","indirect_first","0","Uß04ER02","0","24","1","1","3","1","","0","1","0","null","","","<div class = 'row'><div class = 'column'><img src = 'usneg/9342.bmp' width = '100%;'></div><div class = 'column'><img src = 'category4/CS7.png' width = '70%;'></div></div>","null","neg","CS","CS","4","category4/CS7.png","","","","",""
"","html-keyboard-response","56","249769","0.0-6.0-4.0-0.8","80v1177e8v","many_one","0","indirect_first","0","Uß04ER02","0","24","1","1","3","1","","0","1","0","null","","","<div class = 'row'><div class = 'column'><img src = 'category3/CS6.png' width = '70%;'></div><div class = 'column'><img src = 'uspos/7325.bmp' width = '100%;'></div></div>","null","pos","CS","CS","3","category3/CS6.png","","","","",""
"","html-keyboard-response","57","252276","0.0-6.0-4.0-0.9","80v1177e8v","many_one","0","indirect_first","0","Uß04ER02","0","24","1","1","3","1","","0","1","0","null","","","<div class = 'row'><div class = 'column'><img src = 'usneg/6838.bmp' width = '100%;'></div><div class = 'column'><img src = 'category1/CS6.png' width = '70%;'></div></div>","null","neg","CS","CS","1","category1/CS6.png","","","","",""
"","html-keyboard-response","58","254790","0.0-6.0-4.0-0.10","80v1177e8v","many_one","0","indirect_first","0","Uß04ER02","0","24","1","1","3","1","","0","1","0","null","","","<div class = 'row'><div class = 'column'><img src = 'category2/CS2.png' width = '70%;'></div><div class = 'column'><img src = 'uspos/2057.bmp' width = '100%;'></div></div>","null","pos","CS","CS","2","category2/CS2.png","","","","",""
"","html-keyboard-response","59","257302","0.0-6.0-4.0-0.11","80v1177e8v","many_one","0","indirect_first","0","Uß04ER02","0","24","1","1","3","1","","0","1","0","null","","","<div class = 'row'><div class = 'column'><img src = 'usneg/9584.bmp' width = '100%;'></div><div class = 'column'><img src = 'category1/CS3.png' width = '70%;'></div></div>","null","neg","CS","CS","1","category1/CS3.png","","","","",""
"","html-keyboard-response","60","259833","0.0-6.0-4.0-0.12","80v1177e8v","many_one","0","indirect_first","0","Uß04ER02","0","24","1","1","3","1","","0","1","0","null","","","<div class = 'row'><div class = 'column'><img src = 'uspos/2058.bmp' width = '100%;'></div><div class = 'column'><img src = 'category2/CS1.png' width = '70%;'></div></div>","null","pos","CS","CS","2","category2/CS1.png","","","","",""
"","html-keyboard-response","61","262344","0.0-6.0-4.0-0.13","80v1177e8v","many_one","0","indirect_first","0","Uß04ER02","0","24","1","1","3","1","","0","1","0","null","","","<div class = 'row'><div class = 'column'><img src = 'category2/CS6.png' width = '70%;'></div><div class = 'column'><img src = 'uspos/2530.bmp' width = '100%;'></div></div>","null","pos","CS","CS","2","category2/CS6.png","","","","",""
"","html-keyboard-response","62","264856","0.0-6.0-4.0-0.14","80v1177e8v","many_one","0","indirect_first","0","Uß04ER02","0","24","1","1","3","1","","0","1","0","null","","","<div class = 'row'><div class = 'column'><img src = 'usneg/6020.bmp' width = '100%;'></div><div class = 'column'><img src = 'category4/CS5.png' width = '70%;'></div></div>","null","neg","CS","CS","4","category4/CS5.png","","","","",""
"","html-keyboard-response","63","267369","0.0-6.0-4.0-0.15","80v1177e8v","many_one","0","indirect_first","0","Uß04ER02","0","24","1","1","3","1","","0","1","0","null","","","<div class = 'row'><div class = 'column'><img src = 'uspos/2311.bmp' width = '100%;'></div><div class = 'column'><img src = 'category2/CS4.png' width = '70%;'></div></div>","null","pos","CS","CS","2","category2/CS4.png","","","","",""
"","html-keyboard-response","64","269884","0.0-6.0-4.0-0.16","80v1177e8v","many_one","0","indirect_first","0","Uß04ER02","0","24","1","1","3","1","","0","1","0","null","","","<div class = 'row'><div class = 'column'><img src = 'usneg/3160.bmp' width = '100%;'></div><div class = 'column'><img src = 'category4/CS2.png' width = '70%;'></div></div>","null","neg","CS","CS","4","category4/CS2.png","","","","",""
"","html-keyboard-response","65","272390","0.0-6.0-4.0-0.17","80v1177e8v","many_one","0","indirect_first","0","Uß04ER02","0","24","1","1","3","1","","0","1","0","null","","","<div class = 'row'><div class = 'column'><img src = 'uspos/5830.bmp' width = '100%;'></div><div class = 'column'><img src = 'category3/CS5.png' width = '70%;'></div></div>","null","pos","CS","CS","3","category3/CS5.png","","","","",""
"","html-keyboard-response","66","274904","0.0-6.0-4.0-0.18","80v1177e8v","many_one","0","indirect_first","0","Uß04ER02","0","24","1","1","3","1","","0","1","0","null","","","<div class = 'row'><div class = 'column'><img src = 'usneg/9000.bmp' width = '100%;'></div><div class = 'column'><img src = 'category4/CS10.png' width = '70%;'></div></div>","null","neg","CS","CS","4","category4/CS10.png","","","","",""
"","html-keyboard-response","67","277412","0.0-6.0-4.0-0.19","80v1177e8v","many_one","0","indirect_first","0","Uß04ER02","0","24","1","1","3","1","","0","1","0","null","","","<div class = 'row'><div class = 'column'><img src = 'uspos/2900.2.bmp' width = '100%;'></div><div class = 'column'><img src = 'category3/CS2.png' width = '70%;'></div></div>","null","pos","CS","CS","3","category3/CS2.png","","","","",""
"","survey-html-form","68","281661","0.0-6.0-5.0","80v1177e8v","many_one","0","indirect_first","0","Uß04ER02","0","24","1","1","3","1","","0","1","0","3744.005000218749","","{}","","","","","","","","","","","",""
"","html-keyboard-response","69","285684","0.0-6.0-6.0-0.0","80v1177e8v","many_one","0","indirect_first","0","Uß04ER02","0","24","1","1","3","1","","0","1","0","null","","","<div class = 'row'><div class = 'column'><img src = 'usneg/9584.bmp' width = '100%;'></div><div class = 'column'><img src = 'category1/CS3.png' width = '70%;'></div></div>","null","neg","CS","CS","1","category1/CS3.png","","","","",""
"","html-keyboard-response","70","288189","0.0-6.0-6.0-0.1","80v1177e8v","many_one","0","indirect_first","0","Uß04ER02","0","24","1","1","3","1","","0","1","0","null","","","<div class = 'row'><div class = 'column'><img src = 'category2/CS1.png' width = '70%;'></div><div class = 'column'><img src = 'uspos/2058.bmp' width = '100%;'></div></div>","null","pos","CS","CS","2","category2/CS1.png","","","","",""
"","html-keyboard-response","71","290699","0.0-6.0-6.0-0.2","80v1177e8v","many_one","0","indirect_first","0","Uß04ER02","0","24","1","1","3","1","","0","1","0","null","","","<div class = 'row'><div class = 'column'><img src = 'uspos/5830.bmp' width = '100%;'></div><div class = 'column'><img src = 'category3/CS5.png' width = '70%;'></div></div>","null","pos","CS","CS","3","category3/CS5.png","","","","",""
"","html-keyboard-response","72","293217","0.0-6.0-6.0-0.3","80v1177e8v","many_one","0","indirect_first","0","Uß04ER02","0","24","1","1","3","1","","0","1","0","null","","","<div class = 'row'><div class = 'column'><img src = 'uspos/5470.bmp' width = '100%;'></div><div class = 'column'><img src = 'category3/CS8.png' width = '70%;'></div></div>","null","pos","CS","CS","3","category3/CS8.png","","","","",""
"","html-keyboard-response","73","295724","0.0-6.0-6.0-0.4","80v1177e8v","many_one","0","indirect_first","0","Uß04ER02","0","24","1","1","3","1","","0","1","0","null","","","<div class = 'row'><div class = 'column'><img src = 'usneg/9000.bmp' width = '100%;'></div><div class = 'column'><img src = 'category4/CS10.png' width = '70%;'></div></div>","null","neg","CS","CS","4","category4/CS10.png","","","","",""
"","html-keyboard-response","74","298229","0.0-6.0-6.0-0.5","80v1177e8v","many_one","0","indirect_first","0","Uß04ER02","0","24","1","1","3","1","","0","1","0","null","","","<div class = 'row'><div class = 'column'><img src = 'category4/CS4.png' width = '70%;'></div><div class = 'column'><img src = 'usneg/2900.bmp' width = '100%;'></div></div>","null","neg","CS","CS","4","category4/CS4.png","","","","",""
"","html-keyboard-response","75","300742","0.0-6.0-6.0-0.6","80v1177e8v","many_one","0","indirect_first","0","Uß04ER02","0","24","1","1","3","1","","0","1","0","null","","","<div class = 'row'><div class = 'column'><img src = 'uspos/5621.bmp' width = '100%;'></div><div class = 'column'><img src = 'category2/CS9.png' width = '70%;'></div></div>","null","pos","CS","CS","2","category2/CS9.png","","","","",""
"","html-keyboard-response","76","303249","0.0-6.0-6.0-0.7","80v1177e8v","many_one","0","indirect_first","0","Uß04ER02","0","24","1","1","3","1","","0","1","0","null","","","<div class = 'row'><div class = 'column'><img src = 'category1/CS4.png' width = '70%;'></div><div class = 'column'><img src = 'usneg/7380.bmp' width = '100%;'></div></div>","null","neg","CS","CS","1","category1/CS4.png","","","","",""
"","html-keyboard-response","77","305763","0.0-6.0-6.0-0.8","80v1177e8v","many_one","0","indirect_first","0","Uß04ER02","0","24","1","1","3","1","","0","1","0","null","","","<div class = 'row'><div class = 'column'><img src = 'usneg/6212.bmp' width = '100%;'></div><div class = 'column'><img src = 'category1/CS5.png' width = '70%;'></div></div>","null","neg","CS","CS","1","category1/CS5.png","","","","",""
"","html-keyboard-response","78","308276","0.0-6.0-6.0-0.9","80v1177e8v","many_one","0","indirect_first","0","Uß04ER02","0","24","1","1","3","1","","0","1","0","null","","","<div class = 'row'><div class = 'column'><img src = 'uspos/2057.bmp' width = '100%;'></div><div class = 'column'><img src = 'category2/CS2.png' width = '70%;'></div></div>","null","pos","CS","CS","2","category2/CS2.png","","","","",""
"","html-keyboard-response","79","310788","0.0-6.0-6.0-0.10","80v1177e8v","many_one","0","indirect_first","0","Uß04ER02","0","24","1","1","3","1","","0","1","0","null","","","<div class = 'row'><div class = 'column'><img src = 'uspos/2311.bmp' width = '100%;'></div><div class = 'column'><img src = 'category2/CS4.png' width = '70%;'></div></div>","null","pos","CS","CS","2","category2/CS4.png","","","","",""
"","html-keyboard-response","80","313299","0.0-6.0-6.0-0.11","80v1177e8v","many_one","0","indirect_first","0","Uß04ER02","0","24","1","1","3","1","","0","1","0","null","","","<div class = 'row'><div class = 'column'><img src = 'category4/CS7.png' width = '70%;'></div><div class = 'column'><img src = 'usneg/9342.bmp' width = '100%;'></div></div>","null","neg","CS","CS","4","category4/CS7.png","","","","",""
"","html-keyboard-response","81","315808","0.0-6.0-6.0-0.12","80v1177e8v","many_one","0","indirect_first","0","Uß04ER02","0","24","1","1","3","1","","0","1","0","null","","","<div class = 'row'><div class = 'column'><img src = 'usneg/3160.bmp' width = '100%;'></div><div class = 'column'><img src = 'category4/CS2.png' width = '70%;'></div></div>","null","neg","CS","CS","4","category4/CS2.png","","","","",""
"","html-keyboard-response","82","318314","0.0-6.0-6.0-0.13","80v1177e8v","many_one","0","indirect_first","0","Uß04ER02","0","24","1","1","3","1","","0","1","0","null","","","<div class = 'row'><div class = 'column'><img src = 'uspos/2900.2.bmp' width = '100%;'></div><div class = 'column'><img src = 'category3/CS2.png' width = '70%;'></div></div>","null","pos","CS","CS","3","category3/CS2.png","","","","",""
"","html-keyboard-response","83","320821","0.0-6.0-6.0-0.14","80v1177e8v","many_one","0","indirect_first","0","Uß04ER02","0","24","1","1","3","1","","0","1","0","null","","","<div class = 'row'><div class = 'column'><img src = 'category4/CS5.png' width = '70%;'></div><div class = 'column'><img src = 'usneg/6020.bmp' width = '100%;'></div></div>","null","neg","CS","CS","4","category4/CS5.png","","","","",""
"","html-keyboard-response","84","323326","0.0-6.0-6.0-0.15","80v1177e8v","many_one","0","indirect_first","0","Uß04ER02","0","24","1","1","3","1","","0","1","0","null","","","<div class = 'row'><div class = 'column'><img src = 'uspos/2040.bmp' width = '100%;'></div><div class = 'column'><img src = 'category3/CS9.png' width = '70%;'></div></div>","null","pos","CS","CS","3","category3/CS9.png","","","","",""
"","html-keyboard-response","85","325833","0.0-6.0-6.0-0.16","80v1177e8v","many_one","0","indirect_first","0","Uß04ER02","0","24","1","1","3","1","","0","1","0","null","","","<div class = 'row'><div class = 'column'><img src = 'usneg/6838.bmp' width = '100%;'></div><div class = 'column'><img src = 'category1/CS6.png' width = '70%;'></div></div>","null","neg","CS","CS","1","category1/CS6.png","","","","",""
"","html-keyboard-response","86","328339","0.0-6.0-6.0-0.17","80v1177e8v","many_one","0","indirect_first","0","Uß04ER02","0","24","1","1","3","1","","0","1","0","null","","","<div class = 'row'><div class = 'column'><img src = 'category2/CS6.png' width = '70%;'></div><div class = 'column'><img src = 'uspos/2530.bmp' width = '100%;'></div></div>","null","pos","CS","CS","2","category2/CS6.png","","","","",""
"","html-keyboard-response","87","330846","0.0-6.0-6.0-0.18","80v1177e8v","many_one","0","indirect_first","0","Uß04ER02","0","24","1","1","3","1","","0","1","0","null","","","<div class = 'row'><div class = 'column'><img src = 'usneg/9435.bmp' width = '100%;'></div><div class = 'column'><img src = 'category1/CS10.png' width = '70%;'></div></div>","null","neg","CS","CS","1","category1/CS10.png","","","","",""
"","html-keyboard-response","88","333351","0.0-6.0-6.0-0.19","80v1177e8v","many_one","0","indirect_first","0","Uß04ER02","0","24","1","1","3","1","","0","1","0","null","","","<div class = 'row'><div class = 'column'><img src = 'category3/CS6.png' width = '70%;'></div><div class = 'column'><img src = 'uspos/7325.bmp' width = '100%;'></div></div>","null","pos","CS","CS","3","category3/CS6.png","","","","",""
"","html-keyboard-response","89","369070","0.0-7.0","80v1177e8v","many_one","0","indirect_first","0","Uß04ER02","0","24","1","1","3","1","","0","1","0","35213.56000006199","","","<p>Sie sehen nun die chinesischen Zeichen nur ganz kurz. Danach sehen Sie die jeweilige Aussprache der Zeichen als Silbe auf dem Bildschrim. Ihre Aufgabe ist es, für jede Silbe anzugeben, ob diese etwas angenehmes, oder unangenehmes bedeuten könnte. Verlassen Sie sich hier vor allem auf Ihre Intuition.<br><br>Die Zeichen werden nur zur Orientierung dargestellt, beachten Sie sie deshalb nicht. Konzentrieren Sie sich vor allem auf die Silben. <br>Reagieren Sie mit folgenden zwei Tasten: <br><br><b>'D' </b> wenn die Silbe etwas <b>unangenehmes</b> bedeuten könnte. <br><b>'K'</b> wenn die Silbe etwas <b>angenehmes</b> bedeuten könnte. <br><br>Bitte legen Sie nun den Zeigefinger der linken Hand auf die Taste 'D' und den Zeigefinger der rechten Hand auf die Taste 'K'. <br>Reagieren Sie auf jede Silbe so schnell wie möglich. Uns interessiert Ihre spontane Reaktion. <br> <br> <br>Drücken Sie 'D' oder 'K', um die nächste Aufgabe zu starten. </p>","68","","","","","","","","","",""
"","html-keyboard-response","90","372080","0.0-8.0-0.0","80v1177e8v","many_one","0","indirect_first","0","Uß04ER02","0","24","1","1","3","1","","0","1","0","null","","","<div style=""font-size:60px;"">+</div>","null","","","","","","","","","",""
"","html-keyboard-response","91","372181","0.0-8.0-1.0","80v1177e8v","many_one","0","indirect_first","0","Uß04ER02","0","24","1","1","3","1","","0","1","0","null","","","<img src = 'category2/CS2.png' width = '100%;'>","null","","","","","","","","","",""
"","html-keyboard-response","92","372463","0.0-8.0-2.0","80v1177e8v","many_one","0","indirect_first","0","Uß04ER02","0","24","1","1","3","1","","0","1","0","null","","","<img src = 'targets/39.png' width = '100%;'>","null","","","","","","","","","",""
"","html-keyboard-response","93","378006","0.0-8.0-3.0","80v1177e8v","many_one","0","indirect_first","0","Uß04ER02","0","24","1","1","3","1","","0","1","0","5539.000000339001","","","<img src = 'targets/mask.png' width = '100%;'>","68","pos","CS","CS","2","category2/CS2.png","targets/39.png","0","indirect","0",""
"","html-keyboard-response","94","379516","0.0-8.0-0.1","80v1177e8v","many_one","0","indirect_first","0","Uß04ER02","0","24","1","1","3","1","","0","1","0","null","","","<div style=""font-size:60px;"">+</div>","null","","","","","","","","","",""
"","html-keyboard-response","95","379612","0.0-8.0-1.1","80v1177e8v","many_one","0","indirect_first","0","Uß04ER02","0","24","1","1","3","1","","0","1","0","null","","","<img src = 'category3/CS2.png' width = '100%;'>","null","","","","","","","","","",""
"","html-keyboard-response","96","379868","0.0-8.0-2.1","80v1177e8v","many_one","0","indirect_first","0","Uß04ER02","0","24","1","1","3","1","","0","1","0","null","","","<img src = 'targets/11.png' width = '100%;'>","null","","","","","","","","","",""
"","html-keyboard-response","97","385236","0.0-8.0-3.1","80v1177e8v","many_one","0","indirect_first","0","Uß04ER02","0","24","1","1","3","1","","0","1","0","5359.975000377744","","","<img src = 'targets/mask.png' width = '100%;'>","75","pos","CS","CS","3","category3/CS2.png","targets/11.png","1","indirect","1",""
"","html-keyboard-response","98","386740","0.0-8.0-0.2","80v1177e8v","many_one","0","indirect_first","0","Uß04ER02","0","24","1","1","3","1","","0","1","0","null","","","<div style=""font-size:60px;"">+</div>","null","","","","","","","","","",""
"","html-keyboard-response","99","386836","0.0-8.0-1.2","80v1177e8v","many_one","0","indirect_first","0","Uß04ER02","0","24","1","1","3","1","","0","1","0","null","","","<img src = 'category3/CS5.png' width = '100%;'>","null","","","","","","","","","",""
"","html-keyboard-response","100","387091","0.0-8.0-2.2","80v1177e8v","many_one","0","indirect_first","0","Uß04ER02","0","24","1","1","3","1","","0","1","0","null","","","<img src = 'targets/14.png' width = '100%;'>","null","","","","","","","","","",""
"","html-keyboard-response","101","391028","0.0-8.0-3.2","80v1177e8v","many_one","0","indirect_first","0","Uß04ER02","0","24","1","1","3","1","","0","1","0","3928.1850000843406","","","<img src = 'targets/mask.png' width = '100%;'>","75","pos","CS","CS","3","category3/CS5.png","targets/14.png","1","indirect","2",""
"","html-keyboard-response","102","392533","0.0-8.0-0.3","80v1177e8v","many_one","0","indirect_first","0","Uß04ER02","0","24","1","1","3","1","","0","1","0","null","","","<div style=""font-size:60px;"">+</div>","null","","","","","","","","","",""
"","html-keyboard-response","103","392629","0.0-8.0-1.3","80v1177e8v","many_one","0","indirect_first","0","Uß04ER02","0","24","1","1","3","1","","0","1","0","null","","","<img src = 'category1/CS5.png' width = '100%;'>","null","","","","","","","","","",""
"","html-keyboard-response","104","392884","0.0-8.0-2.3","80v1177e8v","many_one","0","indirect_first","0","Uß04ER02","0","24","1","1","3","1","","0","1","0","null","","","<img src = 'targets/1.png' width = '100%;'>","null","","","","","","","","","",""
"","html-keyboard-response","105","396921","0.0-8.0-3.3","80v1177e8v","many_one","0","indirect_first","0","Uß04ER02","0","24","1","1","3","1","","0","1","0","4030.1549998112023","","","<img src = 'targets/mask.png' width = '100%;'>","75","neg","CS","CS","1","category1/CS5.png","targets/1.png","1","indirect","3",""
"","html-keyboard-response","106","398427","0.0-8.0-0.4","80v1177e8v","many_one","0","indirect_first","0","Uß04ER02","0","24","1","1","3","1","","0","1","0","null","","","<div style=""font-size:60px;"">+</div>","null","","","","","","","","","",""
"","html-keyboard-response","107","398523","0.0-8.0-1.4","80v1177e8v","many_one","0","indirect_first","0","Uß04ER02","0","24","1","1","3","1","","0","1","0","null","","","<img src = 'category3/CS8.png' width = '100%;'>","null","","","","","","","","","",""
"","html-keyboard-response","108","398778","0.0-8.0-2.4","80v1177e8v","many_one","0","indirect_first","0","Uß04ER02","0","24","1","1","3","1","","0","1","0","null","","","<img src = 'targets/6.png' width = '100%;'>","null","","","","","","","","","",""
"","html-keyboard-response","109","399152","0.0-8.0-3.4","80v1177e8v","many_one","0","indirect_first","0","Uß04ER02","0","24","1","1","3","1","","0","1","0","365.6099997460842","","","<img src = 'targets/mask.png' width = '100%;'>","68","pos","CS","CS","3","category3/CS8.png","targets/6.png","0","indirect","4",""
"","html-keyboard-response","110","400656","0.0-8.0-0.5","80v1177e8v","many_one","0","indirect_first","0","Uß04ER02","0","24","1","1","3","1","","0","1","0","null","","","<div style=""font-size:60px;"">+</div>","null","","","","","","","","","",""
"","html-keyboard-response","111","400754","0.0-8.0-1.5","80v1177e8v","many_one","0","indirect_first","0","Uß04ER02","0","24","1","1","3","1","","0","1","0","null","","","<img src = 'category4/CS5.png' width = '100%;'>","null","","","","","","","","","",""
"","html-keyboard-response","112","401009","0.0-8.0-2.5","80v1177e8v","many_one","0","indirect_first","0","Uß04ER02","0","24","1","1","3","1","","0","1","0","null","","","<img src = 'targets/3.png' width = '100%;'>","null","","","","","","","","","",""
"","html-keyboard-response","113","403600","0.0-8.0-3.5","80v1177e8v","many_one","0","indirect_first","0","Uß04ER02","0","24","1","1","3","1","","0","1","0","2584.640000015497","","","<img src = 'targets/mask.png' width = '100%;'>","75","neg","CS","CS","4","category4/CS5.png","targets/3.png","1","indirect","5",""
"","html-keyboard-response","114","405103","0.0-8.0-0.6","80v1177e8v","many_one","0","indirect_first","0","Uß04ER02","0","24","1","1","3","1","","0","1","0","null","","","<div style=""font-size:60px;"">+</div>","null","","","","","","","","","",""
"","html-keyboard-response","115","405200","0.0-8.0-1.6","80v1177e8v","many_one","0","indirect_first","0","Uß04ER02","0","24","1","1","3","1","","0","1","0","null","","","<img src = 'category4/CS10.png' width = '100%;'>","null","","","","","","","","","",""
"","html-keyboard-response","116","405457","0.0-8.0-2.6","80v1177e8v","many_one","0","indirect_first","0","Uß04ER02","0","24","1","1","3","1","","0","1","0","null","","","<img src = 'targets/10.png' width = '100%;'>","null","","","","","","","","","",""
"","html-keyboard-response","117","408586","0.0-8.0-3.6","80v1177e8v","many_one","0","indirect_first","0","Uß04ER02","0","24","1","1","3","1","","0","1","0","3121.220000088215","","","<img src = 'targets/mask.png' width = '100%;'>","75","neg","CS","CS","4","category4/CS10.png","targets/10.png","1","indirect","6",""
"","html-keyboard-response","118","410091","0.0-8.0-0.7","80v1177e8v","many_one","0","indirect_first","0","Uß04ER02","0","24","1","1","3","1","","0","1","0","null","","","<div style=""font-size:60px;"">+</div>","null","","","","","","","","","",""
"","html-keyboard-response","119","410187","0.0-8.0-1.7","80v1177e8v","many_one","0","indirect_first","0","Uß04ER02","0","24","1","1","3","1","","0","1","0","null","","","<img src = 'category1/CS4.png' width = '100%;'>","null","","","","","","","","","",""
"","html-keyboard-response","120","410442","0.0-8.0-2.7","80v1177e8v","many_one","0","indirect_first","0","Uß04ER02","0","24","1","1","3","1","","0","1","0","null","","","<img src = 'targets/21.png' width = '100%;'>","null","","","","","","","","","",""
"","html-keyboard-response","121","412101","0.0-8.0-3.7","80v1177e8v","many_one","0","indirect_first","0","Uß04ER02","0","24","1","1","3","1","","0","1","0","1650.3800000064075","","","<img src = 'targets/mask.png' width = '100%;'>","75","neg","CS","CS","1","category1/CS4.png","targets/21.png","1","indirect","7",""
"","html-keyboard-response","122","413606","0.0-8.0-0.8","80v1177e8v","many_one","0","indirect_first","0","Uß04ER02","0","24","1","1","3","1","","0","1","0","null","","","<div style=""font-size:60px;"">+</div>","null","","","","","","","","","",""
"","html-keyboard-response","123","413702","0.0-8.0-1.8","80v1177e8v","many_one","0","indirect_first","0","Uß04ER02","0","24","1","1","3","1","","0","1","0","null","","","<img src = 'category1/CS10.png' width = '100%;'>","null","","","","","","","","","",""
"","html-keyboard-response","124","413959","0.0-8.0-2.8","80v1177e8v","many_one","0","indirect_first","0","Uß04ER02","0","24","1","1","3","1","","0","1","0","null","","","<img src = 'targets/46.png' width = '100%;'>","null","","","","","","","","","",""
"","html-keyboard-response","125","414172","0.0-8.0-3.8","80v1177e8v","many_one","0","indirect_first","0","Uß04ER02","0","24","1","1","3","1","","0","1","0","210.64999978989363","","","<img src = 'targets/mask.png' width = '100%;'>","75","neg","CS","CS","1","category1/CS10.png","targets/46.png","1","indirect","8",""
"","html-keyboard-response","126","415677","0.0-8.0-0.9","80v1177e8v","many_one","0","indirect_first","0","Uß04ER02","0","24","1","1","3","1","","0","1","0","null","","","<div style=""font-size:60px;"">+</div>","null","","","","","","","","","",""
"","html-keyboard-response","127","415773","0.0-8.0-1.9","80v1177e8v","many_one","0","indirect_first","0","Uß04ER02","0","24","1","1","3","1","","0","1","0","null","","","<img src = 'category4/CS2.png' width = '100%;'>","null","","","","","","","","","",""
"","html-keyboard-response","128","416028","0.0-8.0-2.9","80v1177e8v","many_one","0","indirect_first","0","Uß04ER02","0","24","1","1","3","1","","0","1","0","null","","","<img src = 'targets/20.png' width = '100%;'>","null","","","","","","","","","",""
"","html-keyboard-response","129","416464","0.0-8.0-3.9","80v1177e8v","many_one","0","indirect_first","0","Uß04ER02","0","24","1","1","3","1","","0","1","0","430.2099999040365","","","<img src = 'targets/mask.png' width = '100%;'>","68","neg","CS","CS","4","category4/CS2.png","targets/20.png","0","indirect","9",""
"","html-keyboard-response","130","417969","0.0-8.0-0.10","80v1177e8v","many_one","0","indirect_first","0","Uß04ER02","0","24","1","1","3","1","","0","1","0","null","","","<div style=""font-size:60px;"">+</div>","null","","","","","","","","","",""
"","html-keyboard-response","131","418065","0.0-8.0-1.10","80v1177e8v","many_one","0","indirect_first","0","Uß04ER02","0","24","1","1","3","1","","0","1","0","null","","","<img src = 'category2/CS6.png' width = '100%;'>","null","","","","","","","","","",""
"","html-keyboard-response","132","418320","0.0-8.0-2.10","80v1177e8v","many_one","0","indirect_first","0","Uß04ER02","0","24","1","1","3","1","","0","1","0","null","","","<img src = 'targets/5.png' width = '100%;'>","null","","","","","","","","","",""
"","html-keyboard-response","133","418549","0.0-8.0-3.10","80v1177e8v","many_one","0","indirect_first","0","Uß04ER02","0","24","1","1","3","1","","0","1","0","223.20999996736646","","","<img src = 'targets/mask.png' width = '100%;'>","68","pos","CS","CS","2","category2/CS6.png","targets/5.png","0","indirect","10",""
"","html-keyboard-response","134","420053","0.0-8.0-0.11","80v1177e8v","many_one","0","indirect_first","0","Uß04ER02","0","24","1","1","3","1","","0","1","0","null","","","<div style=""font-size:60px;"">+</div>","null","","","","","","","","","",""
"","html-keyboard-response","135","420149","0.0-8.0-1.11","80v1177e8v","many_one","0","indirect_first","0","Uß04ER02","0","24","1","1","3","1","","0","1","0","null","","","<img src = 'category4/CS7.png' width = '100%;'>","null","","","","","","","","","",""
"","html-keyboard-response","136","420404","0.0-8.0-2.11","80v1177e8v","many_one","0","indirect_first","0","Uß04ER02","0","24","1","1","3","1","","0","1","0","null","","","<img src = 'targets/8.png' width = '100%;'>","null","","","","","","","","","",""
"","html-keyboard-response","137","420666","0.0-8.0-3.11","80v1177e8v","many_one","0","indirect_first","0","Uß04ER02","0","24","1","1","3","1","","0","1","0","256.0399998910725","","","<img src = 'targets/mask.png' width = '100%;'>","68","neg","CS","CS","4","category4/CS7.png","targets/8.png","0","indirect","11",""
"","html-keyboard-response","138","422172","0.0-8.0-0.12","80v1177e8v","many_one","0","indirect_first","0","Uß04ER02","0","24","1","1","3","1","","0","1","0","null","","","<div style=""font-size:60px;"">+</div>","null","","","","","","","","","",""
"","html-keyboard-response","139","422267","0.0-8.0-1.12","80v1177e8v","many_one","0","indirect_first","0","Uß04ER02","0","24","1","1","3","1","","0","1","0","null","","","<img src = 'category4/CS3.png' width = '100%;'>","null","","","","","","","","","",""
"","html-keyboard-response","140","422524","0.0-8.0-2.12","80v1177e8v","many_one","0","indirect_first","0","Uß04ER02","0","24","1","1","3","1","","0","1","0","null","","","<img src = 'targets/40.png' width = '100%;'>","null","","","","","","","","","",""
"","html-keyboard-response","141","422681","0.0-8.0-3.12","80v1177e8v","many_one","0","indirect_first","0","Uß04ER02","0","24","1","1","3","1","","0","1","0","152.63999998569489","","","<img src = 'targets/mask.png' width = '100%;'>","75","neg","GS","GSold","4","category4/CS3.png","targets/40.png","1","indirect","12",""
"","html-keyboard-response","142","424187","0.0-8.0-0.13","80v1177e8v","many_one","0","indirect_first","0","Uß04ER02","0","24","1","1","3","1","","0","1","0","null","","","<div style=""font-size:60px;"">+</div>","null","","","","","","","","","",""
"","html-keyboard-response","143","424284","0.0-8.0-1.13","80v1177e8v","many_one","0","indirect_first","0","Uß04ER02","0","24","1","1","3","1","","0","1","0","null","","","<img src = 'category3/CS4.png' width = '100%;'>","null","","","","","","","","","",""
"","html-keyboard-response","144","424542","0.0-8.0-2.13","80v1177e8v","many_one","0","indirect_first","0","Uß04ER02","0","24","1","1","3","1","","0","1","0","null","","","<img src = 'targets/25.png' width = '100%;'>","null","","","","","","","","","",""
"","html-keyboard-response","145","424731","0.0-8.0-3.13","80v1177e8v","many_one","0","indirect_first","0","Uß04ER02","0","24","1","1","3","1","","0","1","0","184.02499984949827","","","<img src = 'targets/mask.png' width = '100%;'>","75","pos","GS","GSold","3","category3/CS4.png","targets/25.png","1","indirect","13",""
"","html-keyboard-response","146","426237","0.0-8.0-0.14","80v1177e8v","many_one","0","indirect_first","0","Uß04ER02","0","24","1","1","3","1","","0","1","0","null","","","<div style=""font-size:60px;"">+</div>","null","","","","","","","","","",""
"","html-keyboard-response","147","426333","0.0-8.0-1.14","80v1177e8v","many_one","0","indirect_first","0","Uß04ER02","0","24","1","1","3","1","","0","1","0","null","","","<img src = 'category2/CS4.png' width = '100%;'>","null","","","","","","","","","",""
"","html-keyboard-response","148","426588","0.0-8.0-2.14","80v1177e8v","many_one","0","indirect_first","0","Uß04ER02","0","24","1","1","3","1","","0","1","0","null","","","<img src = 'targets/19.png' width = '100%;'>","null","","","","","","","","","",""
"","html-keyboard-response","149","426747","0.0-8.0-3.14","80v1177e8v","many_one","0","indirect_first","0","Uß04ER02","0","24","1","1","3","1","","0","1","0","153.80500024184585","","","<img src = 'targets/mask.png' width = '100%;'>","75","pos","CS","CS","2","category2/CS4.png","targets/19.png","1","indirect","14",""
"","html-keyboard-response","150","428251","0.0-8.0-0.15","80v1177e8v","many_one","0","indirect_first","0","Uß04ER02","0","24","1","1","3","1","","0","1","0","null","","","<div style=""font-size:60px;"">+</div>","null","","","","","","","","","",""
"","html-keyboard-response","151","428344","0.0-8.0-1.15","80v1177e8v","many_one","0","indirect_first","0","Uß04ER02","0","24","1","1","3","1","","0","1","0","null","","","<img src = 'category4/CS9.png' width = '100%;'>","null","","","","","","","","","",""
"","html-keyboard-response","152","428597","0.0-8.0-2.15","80v1177e8v","many_one","0","indirect_first","0","Uß04ER02","0","24","1","1","3","1","","0","1","0","null","","","<img src = 'targets/32.png' width = '100%;'>","null","","","","","","","","","",""
"","html-keyboard-response","153","428604","0.0-8.0-3.15","80v1177e8v","many_one","0","indirect_first","0","Uß04ER02","0","24","1","1","3","1","","0","1","0","6.335000041872263","","","<img src = 'targets/mask.png' width = '100%;'>","68","neg","GS","GSold","4","category4/CS9.png","targets/32.png","0","indirect","15",""
"","html-keyboard-response","154","430109","0.0-8.0-0.16","80v1177e8v","many_one","0","indirect_first","0","Uß04ER02","0","24","1","1","3","1","","0","1","0","null","","","<div style=""font-size:60px;"">+</div>","null","","","","","","","","","",""
"","html-keyboard-response","155","430203","0.0-8.0-1.16","80v1177e8v","many_one","0","indirect_first","0","Uß04ER02","0","24","1","1","3","1","","0","1","0","null","","","<img src = 'category4/CS1.png' width = '100%;'>","null","","","","","","","","","",""
"","html-keyboard-response","156","430460","0.0-8.0-2.16","80v1177e8v","many_one","0","indirect_first","0","Uß04ER02","0","24","1","1","3","1","","0","1","0","null","","","<img src = 'targets/34.png' width = '100%;'>","null","","","","","","","","","",""
"","html-keyboard-response","157","430646","0.0-8.0-3.16","80v1177e8v","many_one","0","indirect_first","0","Uß04ER02","0","24","1","1","3","1","","0","1","0","180.86999980732799","","","<img src = 'targets/mask.png' width = '100%;'>","68","neg","GS","GSold","4","category4/CS1.png","targets/34.png","0","indirect","16",""
"","html-keyboard-response","158","432151","0.0-8.0-0.17","80v1177e8v","many_one","0","indirect_first","0","Uß04ER02","0","24","1","1","3","1","","0","1","0","null","","","<div style=""font-size:60px;"">+</div>","null","","","","","","","","","",""
"","html-keyboard-response","159","432246","0.0-8.0-1.17","80v1177e8v","many_one","0","indirect_first","0","Uß04ER02","0","24","1","1","3","1","","0","1","0","null","","","<img src = 'category1/CS6.png' width = '100%;'>","null","","","","","","","","","",""
"","html-keyboard-response","160","432501","0.0-8.0-2.17","80v1177e8v","many_one","0","indirect_first","0","Uß04ER02","0","24","1","1","3","1","","0","1","0","null","","","<img src = 'targets/41.png' width = '100%;'>","null","","","","","","","","","",""
"","html-keyboard-response","161","432529","0.0-8.0-3.17","80v1177e8v","many_one","0","indirect_first","0","Uß04ER02","0","24","1","1","3","1","","0","1","0","23.64500006660819","","","<img src = 'targets/mask.png' width = '100%;'>","75","neg","CS","CS","1","category1/CS6.png","targets/41.png","1","indirect","17",""
"","html-keyboard-response","162","434035","0.0-8.0-0.18","80v1177e8v","many_one","0","indirect_first","0","Uß04ER02","0","24","1","1","3","1","","0","1","0","null","","","<div style=""font-size:60px;"">+</div>","null","","","","","","","","","",""
"","html-keyboard-response","163","434129","0.0-8.0-1.18","80v1177e8v","many_one","0","indirect_first","0","Uß04ER02","0","24","1","1","3","1","","0","1","0","null","","","<img src = 'category1/CS3.png' width = '100%;'>","null","","","","","","","","","",""
"","html-keyboard-response","164","434384","0.0-8.0-2.18","80v1177e8v","many_one","0","indirect_first","0","Uß04ER02","0","24","1","1","3","1","","0","1","0","null","","","<img src = 'targets/9.png' width = '100%;'>","null","","","","","","","","","",""
"","html-keyboard-response","165","434558","0.0-8.0-3.18","80v1177e8v","many_one","0","indirect_first","0","Uß04ER02","0","24","1","1","3","1","","0","1","0","169.7850003838539","","","<img src = 'targets/mask.png' width = '100%;'>","75","neg","CS","CS","1","category1/CS3.png","targets/9.png","1","indirect","18",""
"","html-keyboard-response","166","436062","0.0-8.0-0.19","80v1177e8v","many_one","0","indirect_first","0","Uß04ER02","0","24","1","1","3","1","","0","1","0","null","","","<div style=""font-size:60px;"">+</div>","null","","","","","","","","","",""
"","html-keyboard-response","167","436158","0.0-8.0-1.19","80v1177e8v","many_one","0","indirect_first","0","Uß04ER02","0","24","1","1","3","1","","0","1","0","null","","","<img src = 'category4/CS4.png' width = '100%;'>","null","","","","","","","","","",""
"","html-keyboard-response","168","436415","0.0-8.0-2.19","80v1177e8v","many_one","0","indirect_first","0","Uß04ER02","0","24","1","1","3","1","","0","1","0","null","","","<img src = 'targets/23.png' width = '100%;'>","null","","","","","","","","","",""
"","html-keyboard-response","169","436629","0.0-8.0-3.19","80v1177e8v","many_one","0","indirect_first","0","Uß04ER02","0","24","1","1","3","1","","0","1","0","210.0599999539554","","","<img src = 'targets/mask.png' width = '100%;'>","75","neg","CS","CS","4","category4/CS4.png","targets/23.png","1","indirect","19",""
"","html-keyboard-response","170","438133","0.0-8.0-0.20","80v1177e8v","many_one","0","indirect_first","0","Uß04ER02","0","24","1","1","3","1","","0","1","0","null","","","<div style=""font-size:60px;"">+</div>","null","","","","","","","","","",""
"","html-keyboard-response","171","438229","0.0-8.0-1.20","80v1177e8v","many_one","0","indirect_first","0","Uß04ER02","0","24","1","1","3","1","","0","1","0","null","","","<img src = 'category2/CS9.png' width = '100%;'>","null","","","","","","","","","",""
"","html-keyboard-response","172","438481","0.0-8.0-2.20","80v1177e8v","many_one","0","indirect_first","0","Uß04ER02","0","24","1","1","3","1","","0","1","0","null","","","<img src = 'targets/42.png' width = '100%;'>","null","","","","","","","","","",""
"","html-keyboard-response","173","438812","0.0-8.0-3.20","80v1177e8v","many_one","0","indirect_first","0","Uß04ER02","0","24","1","1","3","1","","0","1","0","328.1550002284348","","","<img src = 'targets/mask.png' width = '100%;'>","75","pos","CS","CS","2","category2/CS9.png","targets/42.png","1","indirect","20",""
"","html-keyboard-response","174","440316","0.0-8.0-0.21","80v1177e8v","many_one","0","indirect_first","0","Uß04ER02","0","24","1","1","3","1","","0","1","0","null","","","<div style=""font-size:60px;"">+</div>","null","","","","","","","","","",""
"","html-keyboard-response","175","440412","0.0-8.0-1.21","80v1177e8v","many_one","0","indirect_first","0","Uß04ER02","0","24","1","1","3","1","","0","1","0","null","","","<img src = 'category3/CS9.png' width = '100%;'>","null","","","","","","","","","",""
"","html-keyboard-response","176","440667","0.0-8.0-2.21","80v1177e8v","many_one","0","indirect_first","0","Uß04ER02","0","24","1","1","3","1","","0","1","0","null","","","<img src = 'targets/31.png' width = '100%;'>","null","","","","","","","","","",""
"","html-keyboard-response","177","441033","0.0-8.0-3.21","80v1177e8v","many_one","0","indirect_first","0","Uß04ER02","0","24","1","1","3","1","","0","1","0","360.79000029712915","","","<img src = 'targets/mask.png' width = '100%;'>","75","pos","CS","CS","3","category3/CS9.png","targets/31.png","1","indirect","21",""
"","html-keyboard-response","178","442537","0.0-8.0-0.22","80v1177e8v","many_one","0","indirect_first","0","Uß04ER02","0","24","1","1","3","1","","0","1","0","null","","","<div style=""font-size:60px;"">+</div>","null","","","","","","","","","",""
"","html-keyboard-response","179","442633","0.0-8.0-1.22","80v1177e8v","many_one","0","indirect_first","0","Uß04ER02","0","24","1","1","3","1","","0","1","0","null","","","<img src = 'category2/CS1.png' width = '100%;'>","null","","","","","","","","","",""
"","html-keyboard-response","180","442888","0.0-8.0-2.22","80v1177e8v","many_one","0","indirect_first","0","Uß04ER02","0","24","1","1","3","1","","0","1","0","null","","","<img src = 'targets/2.png' width = '100%;'>","null","","","","","","","","","",""
"","html-keyboard-response","181","443113","0.0-8.0-3.22","80v1177e8v","many_one","0","indirect_first","0","Uß04ER02","0","24","1","1","3","1","","0","1","0","220.0950002297759","","","<img src = 'targets/mask.png' width = '100%;'>","75","pos","CS","CS","2","category2/CS1.png","targets/2.png","1","indirect","22",""
"","html-keyboard-response","182","444619","0.0-8.0-0.23","80v1177e8v","many_one","0","indirect_first","0","Uß04ER02","0","24","1","1","3","1","","0","1","0","null","","","<div style=""font-size:60px;"">+</div>","null","","","","","","","","","",""
"","html-keyboard-response","183","444714","0.0-8.0-1.23","80v1177e8v","many_one","0","indirect_first","0","Uß04ER02","0","24","1","1","3","1","","0","1","0","null","","","<img src = 'category3/CS6.png' width = '100%;'>","null","","","","","","","","","",""
"","html-keyboard-response","184","444970","0.0-8.0-2.23","80v1177e8v","many_one","0","indirect_first","0","Uß04ER02","0","24","1","1","3","1","","0","1","0","null","","","<img src = 'targets/45.png' width = '100%;'>","null","","","","","","","","","",""
"","html-keyboard-response","185","445356","0.0-8.0-3.23","80v1177e8v","many_one","0","indirect_first","0","Uß04ER02","0","24","1","1","3","1","","0","1","0","381.92000007256866","","","<img src = 'targets/mask.png' width = '100%;'>","68","pos","CS","CS","3","category3/CS6.png","targets/45.png","0","indirect","23",""
"","survey-html-form","186","448106","0.0-9.0","80v1177e8v","many_one","0","indirect_first","0","Uß04ER02","0","24","1","1","3","1","","0","1","0","2245.4700004309416","","{}","","","","","","","","","","","",""
"","html-keyboard-response","187","451114","0.0-10.0-0.0","80v1177e8v","many_one","0","indirect_first","0","Uß04ER02","0","24","1","1","3","1","","0","1","0","null","","","<div style=""font-size:60px;"">+</div>","null","","","","","","","","","",""
"","html-keyboard-response","188","451211","0.0-10.0-1.0","80v1177e8v","many_one","0","indirect_first","0","Uß04ER02","0","24","1","1","3","1","","0","1","0","null","","","<img src = 'category1/CS8.png' width = '100%;'>","null","","","","","","","","","",""
"","html-keyboard-response","189","451467","0.0-10.0-2.0","80v1177e8v","many_one","0","indirect_first","0","Uß04ER02","0","24","1","1","3","1","","0","1","0","null","","","<img src = 'targets/24.png' width = '100%;'>","null","","","","","","","","","",""
"","html-keyboard-response","190","453191","0.0-10.0-3.0","80v1177e8v","many_one","0","indirect_first","0","Uß04ER02","0","24","1","1","3","1","","0","1","0","1716.1750001832843","","","<img src = 'targets/mask.png' width = '100%;'>","75","neg","GS","GSold","1","category1/CS8.png","targets/24.png","1","indirect","24",""
"","html-keyboard-response","191","454696","0.0-10.0-0.1","80v1177e8v","many_one","0","indirect_first","0","Uß04ER02","0","24","1","1","3","1","","0","1","0","null","","","<div style=""font-size:60px;"">+</div>","null","","","","","","","","","",""
"","html-keyboard-response","192","454791","0.0-10.0-1.1","80v1177e8v","many_one","0","indirect_first","0","Uß04ER02","0","24","1","1","3","1","","0","1","0","null","","","<img src = 'category2/CS10.png' width = '100%;'>","null","","","","","","","","","",""
"","html-keyboard-response","193","455047","0.0-10.0-2.1","80v1177e8v","many_one","0","indirect_first","0","Uß04ER02","0","24","1","1","3","1","","0","1","0","null","","","<img src = 'targets/12.png' width = '100%;'>","null","","","","","","","","","",""
"","html-keyboard-response","194","455287","0.0-10.0-3.1","80v1177e8v","many_one","0","indirect_first","0","Uß04ER02","0","24","1","1","3","1","","0","1","0","235.0750002078712","","","<img src = 'targets/mask.png' width = '100%;'>","68","pos","GS","GSold","2","category2/CS10.png","targets/12.png","0","indirect","25",""
"","html-keyboard-response","195","456791","0.0-10.0-0.2","80v1177e8v","many_one","0","indirect_first","0","Uß04ER02","0","24","1","1","3","1","","0","1","0","null","","","<div style=""font-size:60px;"">+</div>","null","","","","","","","","","",""
"","html-keyboard-response","196","456887","0.0-10.0-1.2","80v1177e8v","many_one","0","indirect_first","0","Uß04ER02","0","24","1","1","3","1","","0","1","0","null","","","<img src = 'category2/GS1.png' width = '100%;'>","null","","","","","","","","","",""
"","html-keyboard-response","197","457141","0.0-10.0-2.2","80v1177e8v","many_one","0","indirect_first","0","Uß04ER02","0","24","1","1","3","1","","0","1","0","null","","","<img src = 'targets/15.png' width = '100%;'>","null","","","","","","","","","",""
"","html-keyboard-response","198","457415","0.0-10.0-3.2","80v1177e8v","many_one","0","indirect_first","0","Uß04ER02","0","24","1","1","3","1","","0","1","0","268.24500039219856","","","<img src = 'targets/mask.png' width = '100%;'>","75","pos","GS","GSnew","2","category2/GS1.png","targets/15.png","1","indirect","26",""
"","html-keyboard-response","199","458919","0.0-10.0-0.3","80v1177e8v","many_one","0","indirect_first","0","Uß04ER02","0","24","1","1","3","1","","0","1","0","null","","","<div style=""font-size:60px;"">+</div>","null","","","","","","","","","",""
"","html-keyboard-response","200","459014","0.0-10.0-1.3","80v1177e8v","many_one","0","indirect_first","0","Uß04ER02","0","24","1","1","3","1","","0","1","0","null","","","<img src = 'category3/GS3.png' width = '100%;'>","null","","","","","","","","","",""
"","html-keyboard-response","201","459271","0.0-10.0-2.3","80v1177e8v","many_one","0","indirect_first","0","Uß04ER02","0","24","1","1","3","1","","0","1","0","null","","","<img src = 'targets/36.png' width = '100%;'>","null","","","","","","","","","",""
"","html-keyboard-response","202","459461","0.0-10.0-3.3","80v1177e8v","many_one","0","indirect_first","0","Uß04ER02","0","24","1","1","3","1","","0","1","0","185.25000009685755","","","<img src = 'targets/mask.png' width = '100%;'>","75","pos","GS","GSnew","3","category3/GS3.png","targets/36.png","1","indirect","27",""
"","html-keyboard-response","203","460967","0.0-10.0-0.4","80v1177e8v","many_one","0","indirect_first","0","Uß04ER02","0","24","1","1","3","1","","0","1","0","null","","","<div style=""font-size:60px;"">+</div>","null","","","","","","","","","",""
"","html-keyboard-response","204","461062","0.0-10.0-1.4","80v1177e8v","many_one","0","indirect_first","0","Uß04ER02","0","24","1","1","3","1","","0","1","0","null","","","<img src = 'category1/GS3.png' width = '100%;'>","null","","","","","","","","","",""
"","html-keyboard-response","205","461318","0.0-10.0-2.4","80v1177e8v","many_one","0","indirect_first","0","Uß04ER02","0","24","1","1","3","1","","0","1","0","null","","","<img src = 'targets/48.png' width = '100%;'>","null","","","","","","","","","",""
"","html-keyboard-response","206","461682","0.0-10.0-3.4","80v1177e8v","many_one","0","indirect_first","0","Uß04ER02","0","24","1","1","3","1","","0","1","0","358.9349999092519","","","<img src = 'targets/mask.png' width = '100%;'>","75","neg","GS","GSnew","1","category1/GS3.png","targets/48.png","1","indirect","28",""
"","html-keyboard-response","207","463188","0.0-10.0-0.5","80v1177e8v","many_one","0","indirect_first","0","Uß04ER02","0","24","1","1","3","1","","0","1","0","null","","","<div style=""font-size:60px;"">+</div>","null","","","","","","","","","",""
"","html-keyboard-response","208","463283","0.0-10.0-1.5","80v1177e8v","many_one","0","indirect_first","0","Uß04ER02","0","24","1","1","3","1","","0","1","0","null","","","<img src = 'category1/CS7.png' width = '100%;'>","null","","","","","","","","","",""
"","html-keyboard-response","209","463539","0.0-10.0-2.5","80v1177e8v","many_one","0","indirect_first","0","Uß04ER02","0","24","1","1","3","1","","0","1","0","null","","","<img src = 'targets/33.png' width = '100%;'>","null","","","","","","","","","",""
"","html-keyboard-response","210","463874","0.0-10.0-3.5","80v1177e8v","many_one","0","indirect_first","0","Uß04ER02","0","24","1","1","3","1","","0","1","0","327.87999976426363","","","<img src = 'targets/mask.png' width = '100%;'>","68","neg","GS","GSold","1","category1/CS7.png","targets/33.png","0","indirect","29",""
"","html-keyboard-response","211","465379","0.0-10.0-0.6","80v1177e8v","many_one","0","indirect_first","0","Uß04ER02","0","24","1","1","3","1","","0","1","0","null","","","<div style=""font-size:60px;"">+</div>","null","","","","","","","","","",""
"","html-keyboard-response","212","465474","0.0-10.0-1.6","80v1177e8v","many_one","0","indirect_first","0","Uß04ER02","0","24","1","1","3","1","","0","1","0","null","","","<img src = 'category3/GS1.png' width = '100%;'>","null","","","","","","","","","",""
"","html-keyboard-response","213","465729","0.0-10.0-2.6","80v1177e8v","many_one","0","indirect_first","0","Uß04ER02","0","24","1","1","3","1","","0","1","0","null","","","<img src = 'targets/27.png' width = '100%;'>","null","","","","","","","","","",""
"","html-keyboard-response","214","466074","0.0-10.0-3.6","80v1177e8v","many_one","0","indirect_first","0","Uß04ER02","0","24","1","1","3","1","","0","1","0","338.9349998906255","","","<img src = 'targets/mask.png' width = '100%;'>","75","pos","GS","GSnew","3","category3/GS1.png","targets/27.png","1","indirect","30",""
"","html-keyboard-response","215","467580","0.0-10.0-0.7","80v1177e8v","many_one","0","indirect_first","0","Uß04ER02","0","24","1","1","3","1","","0","1","0","null","","","<div style=""font-size:60px;"">+</div>","null","","","","","","","","","",""
"","html-keyboard-response","216","467673","0.0-10.0-1.7","80v1177e8v","many_one","0","indirect_first","0","Uß04ER02","0","24","1","1","3","1","","0","1","0","null","","","<img src = 'category3/wang.png' width = '100%;'>","null","","","","","","","","","",""
"","html-keyboard-response","217","467928","0.0-10.0-2.7","80v1177e8v","many_one","0","indirect_first","0","Uß04ER02","0","24","1","1","3","1","","0","1","0","null","","","<img src = 'targets/44.png' width = '100%;'>","null","","","","","","","","","",""
"","html-keyboard-response","218","468866","0.0-10.0-3.7","80v1177e8v","many_one","0","indirect_first","0","Uß04ER02","0","24","1","1","3","1","","0","1","0","932.7699998393655","","","<img src = 'targets/mask.png' width = '100%;'>","68","pos","GS","abstract","3","category3/wang.png","targets/44.png","0","indirect","31",""
"","html-keyboard-response","219","470371","0.0-10.0-0.8","80v1177e8v","many_one","0","indirect_first","0","Uß04ER02","0","24","1","1","3","1","","0","1","0","null","","","<div style=""font-size:60px;"">+</div>","null","","","","","","","","","",""
"","html-keyboard-response","220","470466","0.0-10.0-1.8","80v1177e8v","many_one","0","indirect_first","0","Uß04ER02","0","24","1","1","3","1","","0","1","0","null","","","<img src = 'category1/CS9.png' width = '100%;'>","null","","","","","","","","","",""
"","html-keyboard-response","221","470722","0.0-10.0-2.8","80v1177e8v","many_one","0","indirect_first","0","Uß04ER02","0","24","1","1","3","1","","0","1","0","null","","","<img src = 'targets/43.png' width = '100%;'>","null","","","","","","","","","",""
"","html-keyboard-response","222","470957","0.0-10.0-3.8","80v1177e8v","many_one","0","indirect_first","0","Uß04ER02","0","24","1","1","3","1","","0","1","0","229.40499987453222","","","<img src = 'targets/mask.png' width = '100%;'>","75","neg","GS","GSold","1","category1/CS9.png","targets/43.png","1","indirect","32",""
"","html-keyboard-response","223","472464","0.0-10.0-0.9","80v1177e8v","many_one","0","indirect_first","0","Uß04ER02","0","24","1","1","3","1","","0","1","0","null","","","<div style=""font-size:60px;"">+</div>","null","","","","","","","","","",""
"","html-keyboard-response","224","472558","0.0-10.0-1.9","80v1177e8v","many_one","0","indirect_first","0","Uß04ER02","0","24","1","1","3","1","","0","1","0","null","","","<img src = 'category3/GS2.png' width = '100%;'>","null","","","","","","","","","",""
"","html-keyboard-response","225","472814","0.0-10.0-2.9","80v1177e8v","many_one","0","indirect_first","0","Uß04ER02","0","24","1","1","3","1","","0","1","0","null","","","<img src = 'targets/17.png' width = '100%;'>","null","","","","","","","","","",""
"","html-keyboard-response","226","473127","0.0-10.0-3.9","80v1177e8v","many_one","0","indirect_first","0","Uß04ER02","0","24","1","1","3","1","","0","1","0","307.9450000077486","","","<img src = 'targets/mask.png' width = '100%;'>","75","pos","GS","GSnew","3","category3/GS2.png","targets/17.png","1","indirect","33",""
"","html-keyboard-response","227","474633","0.0-10.0-0.10","80v1177e8v","many_one","0","indirect_first","0","Uß04ER02","0","24","1","1","3","1","","0","1","0","null","","","<div style=""font-size:60px;"">+</div>","null","","","","","","","","","",""
"","html-keyboard-response","228","474728","0.0-10.0-1.10","80v1177e8v","many_one","0","indirect_first","0","Uß04ER02","0","24","1","1","3","1","","0","1","0","null","","","<img src = 'category2/GS2.png' width = '100%;'>","null","","","","","","","","","",""
"","html-keyboard-response","229","474984","0.0-10.0-2.10","80v1177e8v","many_one","0","indirect_first","0","Uß04ER02","0","24","1","1","3","1","","0","1","0","null","","","<img src = 'targets/47.png' width = '100%;'>","null","","","","","","","","","",""
"","html-keyboard-response","230","475255","0.0-10.0-3.10","80v1177e8v","many_one","0","indirect_first","0","Uß04ER02","0","24","1","1","3","1","","0","1","0","264.0899997204542","","","<img src = 'targets/mask.png' width = '100%;'>","75","pos","GS","GSnew","2","category2/GS2.png","targets/47.png","1","indirect","34",""
"","html-keyboard-response","231","476761","0.0-10.0-0.11","80v1177e8v","many_one","0","indirect_first","0","Uß04ER02","0","24","1","1","3","1","","0","1","0","null","","","<div style=""font-size:60px;"">+</div>","null","","","","","","","","","",""
"","html-keyboard-response","232","476857","0.0-10.0-1.11","80v1177e8v","many_one","0","indirect_first","0","Uß04ER02","0","24","1","1","3","1","","0","1","0","null","","","<img src = 'category4/GS1.png' width = '100%;'>","null","","","","","","","","","",""
"","html-keyboard-response","233","477115","0.0-10.0-2.11","80v1177e8v","many_one","0","indirect_first","0","Uß04ER02","0","24","1","1","3","1","","0","1","0","null","","","<img src = 'targets/16.png' width = '100%;'>","null","","","","","","","","","",""
"","html-keyboard-response","234","477358","0.0-10.0-3.11","80v1177e8v","many_one","0","indirect_first","0","Uß04ER02","0","24","1","1","3","1","","0","1","0","240.77000003308058","","","<img src = 'targets/mask.png' width = '100%;'>","75","neg","GS","GSnew","4","category4/GS1.png","targets/16.png","1","indirect","35",""
"","html-keyboard-response","235","478862","0.0-10.0-0.12","80v1177e8v","many_one","0","indirect_first","0","Uß04ER02","0","24","1","1","3","1","","0","1","0","null","","","<div style=""font-size:60px;"">+</div>","null","","","","","","","","","",""
"","html-keyboard-response","236","478969","0.0-10.0-1.12","80v1177e8v","many_one","0","indirect_first","0","Uß04ER02","0","24","1","1","3","1","","0","1","0","null","","","<img src = 'category2/men.png' width = '100%;'>","null","","","","","","","","","",""
"","html-keyboard-response","237","479225","0.0-10.0-2.12","80v1177e8v","many_one","0","indirect_first","0","Uß04ER02","0","24","1","1","3","1","","0","1","0","null","","","<img src = 'targets/7.png' width = '100%;'>","null","","","","","","","","","",""
"","html-keyboard-response","238","479483","0.0-10.0-3.12","80v1177e8v","many_one","0","indirect_first","0","Uß04ER02","0","24","1","1","3","1","","0","1","0","254.71499981358647","","","<img src = 'targets/mask.png' width = '100%;'>","68","pos","GS","abstract","2","category2/men.png","targets/7.png","0","indirect","36",""
"","html-keyboard-response","239","480988","0.0-10.0-0.13","80v1177e8v","many_one","0","indirect_first","0","Uß04ER02","0","24","1","1","3","1","","0","1","0","null","","","<div style=""font-size:60px;"">+</div>","null","","","","","","","","","",""
"","html-keyboard-response","240","481084","0.0-10.0-1.13","80v1177e8v","many_one","0","indirect_first","0","Uß04ER02","0","24","1","1","3","1","","0","1","0","null","","","<img src = 'category4/GS3.png' width = '100%;'>","null","","","","","","","","","",""
"","html-keyboard-response","241","481339","0.0-10.0-2.13","80v1177e8v","many_one","0","indirect_first","0","Uß04ER02","0","24","1","1","3","1","","0","1","0","null","","","<img src = 'targets/37.png' width = '100%;'>","null","","","","","","","","","",""
"","html-keyboard-response","242","481540","0.0-10.0-3.13","80v1177e8v","many_one","0","indirect_first","0","Uß04ER02","0","24","1","1","3","1","","0","1","0","195.50499971956015","","","<img src = 'targets/mask.png' width = '100%;'>","75","neg","GS","GSnew","4","category4/GS3.png","targets/37.png","1","indirect","37",""
"","html-keyboard-response","243","483044","0.0-10.0-0.14","80v1177e8v","many_one","0","indirect_first","0","Uß04ER02","0","24","1","1","3","1","","0","1","0","null","","","<div style=""font-size:60px;"">+</div>","null","","","","","","","","","",""
"","html-keyboard-response","244","483140","0.0-10.0-1.14","80v1177e8v","many_one","0","indirect_first","0","Uß04ER02","0","24","1","1","3","1","","0","1","0","null","","","<img src = 'category1/GS2.png' width = '100%;'>","null","","","","","","","","","",""
"","html-keyboard-response","245","483397","0.0-10.0-2.14","80v1177e8v","many_one","0","indirect_first","0","Uß04ER02","0","24","1","1","3","1","","0","1","0","null","","","<img src = 'targets/22.png' width = '100%;'>","null","","","","","","","","","",""
"","html-keyboard-response","246","483615","0.0-10.0-3.14","80v1177e8v","many_one","0","indirect_first","0","Uß04ER02","0","24","1","1","3","1","","0","1","0","213.2949996739626","","","<img src = 'targets/mask.png' width = '100%;'>","75","neg","GS","GSnew","1","category1/GS2.png","targets/22.png","1","indirect","38",""
"","html-keyboard-response","247","485122","0.0-10.0-0.15","80v1177e8v","many_one","0","indirect_first","0","Uß04ER02","0","24","1","1","3","1","","0","1","0","null","","","<div style=""font-size:60px;"">+</div>","null","","","","","","","","","",""
"","html-keyboard-response","248","485219","0.0-10.0-1.15","80v1177e8v","many_one","0","indirect_first","0","Uß04ER02","0","24","1","1","3","1","","0","1","0","null","","","<img src = 'category2/CS3.png' width = '100%;'>","null","","","","","","","","","",""
"","html-keyboard-response","249","485476","0.0-10.0-2.15","80v1177e8v","many_one","0","indirect_first","0","Uß04ER02","0","24","1","1","3","1","","0","1","0","null","","","<img src = 'targets/18.png' width = '100%;'>","null","","","","","","","","","",""
"","html-keyboard-response","250","485707","0.0-10.0-3.15","80v1177e8v","many_one","0","indirect_first","0","Uß04ER02","0","24","1","1","3","1","","0","1","0","225.13499995693564","","","<img src = 'targets/mask.png' width = '100%;'>","75","pos","GS","GSold","2","category2/CS3.png","targets/18.png","1","indirect","39",""
"","html-keyboard-response","251","487214","0.0-10.0-0.16","80v1177e8v","many_one","0","indirect_first","0","Uß04ER02","0","24","1","1","3","1","","0","1","0","null","","","<div style=""font-size:60px;"">+</div>","null","","","","","","","","","",""
"","html-keyboard-response","252","487310","0.0-10.0-1.16","80v1177e8v","many_one","0","indirect_first","0","Uß04ER02","0","24","1","1","3","1","","0","1","0","null","","","<img src = 'category4/GS2.png' width = '100%;'>","null","","","","","","","","","",""
"","html-keyboard-response","253","487566","0.0-10.0-2.16","80v1177e8v","many_one","0","indirect_first","0","Uß04ER02","0","24","1","1","3","1","","0","1","0","null","","","<img src = 'targets/35.png' width = '100%;'>","null","","","","","","","","","",""
"","html-keyboard-response","254","487864","0.0-10.0-3.16","80v1177e8v","many_one","0","indirect_first","0","Uß04ER02","0","24","1","1","3","1","","0","1","0","291.16000002250075","","","<img src = 'targets/mask.png' width = '100%;'>","75","neg","GS","GSnew","4","category4/GS2.png","targets/35.png","1","indirect","40",""
"","html-keyboard-response","255","489369","0.0-10.0-0.17","80v1177e8v","many_one","0","indirect_first","0","Uß04ER02","0","24","1","1","3","1","","0","1","0","null","","","<div style=""font-size:60px;"">+</div>","null","","","","","","","","","",""
"","html-keyboard-response","256","489463","0.0-10.0-1.17","80v1177e8v","many_one","0","indirect_first","0","Uß04ER02","0","24","1","1","3","1","","0","1","0","null","","","<img src = 'category1/GS1.png' width = '100%;'>","null","","","","","","","","","",""
"","html-keyboard-response","257","489719","0.0-10.0-2.17","80v1177e8v","many_one","0","indirect_first","0","Uß04ER02","0","24","1","1","3","1","","0","1","0","null","","","<img src = 'targets/38.png' width = '100%;'>","null","","","","","","","","","",""
"","html-keyboard-response","258","490021","0.0-10.0-3.17","80v1177e8v","many_one","0","indirect_first","0","Uß04ER02","0","24","1","1","3","1","","0","1","0","296.50000017136335","","","<img src = 'targets/mask.png' width = '100%;'>","75","neg","GS","GSnew","1","category1/GS1.png","targets/38.png","1","indirect","41",""
"","html-keyboard-response","259","491527","0.0-10.0-0.18","80v1177e8v","many_one","0","indirect_first","0","Uß04ER02","0","24","1","1","3","1","","0","1","0","null","","","<div style=""font-size:60px;"">+</div>","null","","","","","","","","","",""
"","html-keyboard-response","260","491623","0.0-10.0-1.18","80v1177e8v","many_one","0","indirect_first","0","Uß04ER02","0","24","1","1","3","1","","0","1","0","null","","","<img src = 'category2/CS5.png' width = '100%;'>","null","","","","","","","","","",""
"","html-keyboard-response","261","491878","0.0-10.0-2.18","80v1177e8v","many_one","0","indirect_first","0","Uß04ER02","0","24","1","1","3","1","","0","1","0","null","","","<img src = 'targets/29.png' width = '100%;'>","null","","","","","","","","","",""
"","html-keyboard-response","262","492163","0.0-10.0-3.18","80v1177e8v","many_one","0","indirect_first","0","Uß04ER02","0","24","1","1","3","1","","0","1","0","279.66999961063266","","","<img src = 'targets/mask.png' width = '100%;'>","75","pos","GS","GSold","2","category2/CS5.png","targets/29.png","1","indirect","42",""
"","html-keyboard-response","263","493669","0.0-10.0-0.19","80v1177e8v","many_one","0","indirect_first","0","Uß04ER02","0","24","1","1","3","1","","0","1","0","null","","","<div style=""font-size:60px;"">+</div>","null","","","","","","","","","",""
"","html-keyboard-response","264","493762","0.0-10.0-1.19","80v1177e8v","many_one","0","indirect_first","0","Uß04ER02","0","24","1","1","3","1","","0","1","0","null","","","<img src = 'category1/ma.png' width = '100%;'>","null","","","","","","","","","",""
"","html-keyboard-response","265","494018","0.0-10.0-2.19","80v1177e8v","many_one","0","indirect_first","0","Uß04ER02","0","24","1","1","3","1","","0","1","0","null","","","<img src = 'targets/28.png' width = '100%;'>","null","","","","","","","","","",""
"","html-keyboard-response","266","494507","0.0-10.0-3.19","80v1177e8v","many_one","0","indirect_first","0","Uß04ER02","0","24","1","1","3","1","","0","1","0","482.4449997395277","","","<img src = 'targets/mask.png' width = '100%;'>","68","neg","GS","abstract","1","category1/ma.png","targets/28.png","0","indirect","43",""
"","html-keyboard-response","267","496011","0.0-10.0-0.20","80v1177e8v","many_one","0","indirect_first","0","Uß04ER02","0","24","1","1","3","1","","0","1","0","null","","","<div style=""font-size:60px;"">+</div>","null","","","","","","","","","",""
"","html-keyboard-response","268","496107","0.0-10.0-1.20","80v1177e8v","many_one","0","indirect_first","0","Uß04ER02","0","24","1","1","3","1","","0","1","0","null","","","<img src = 'category2/GS3.png' width = '100%;'>","null","","","","","","","","","",""
"","html-keyboard-response","269","496363","0.0-10.0-2.20","80v1177e8v","many_one","0","indirect_first","0","Uß04ER02","0","24","1","1","3","1","","0","1","0","null","","","<img src = 'targets/30.png' width = '100%;'>","null","","","","","","","","","",""
"","html-keyboard-response","270","496734","0.0-10.0-3.20","80v1177e8v","many_one","0","indirect_first","0","Uß04ER02","0","24","1","1","3","1","","0","1","0","364.94999984279275","","","<img src = 'targets/mask.png' width = '100%;'>","75","pos","GS","GSnew","2","category2/GS3.png","targets/30.png","1","indirect","44",""
"","html-keyboard-response","271","498239","0.0-10.0-0.21","80v1177e8v","many_one","0","indirect_first","0","Uß04ER02","0","24","1","1","3","1","","0","1","0","null","","","<div style=""font-size:60px;"">+</div>","null","","","","","","","","","",""
"","html-keyboard-response","272","498333","0.0-10.0-1.21","80v1177e8v","many_one","0","indirect_first","0","Uß04ER02","0","24","1","1","3","1","","0","1","0","null","","","<img src = 'category3/CS10.png' width = '100%;'>","null","","","","","","","","","",""
"","html-keyboard-response","273","498590","0.0-10.0-2.21","80v1177e8v","many_one","0","indirect_first","0","Uß04ER02","0","24","1","1","3","1","","0","1","0","null","","","<img src = 'targets/13.png' width = '100%;'>","null","","","","","","","","","",""
"","html-keyboard-response","274","498929","0.0-10.0-3.21","80v1177e8v","many_one","0","indirect_first","0","Uß04ER02","0","24","1","1","3","1","","0","1","0","334.4200002029538","","","<img src = 'targets/mask.png' width = '100%;'>","75","pos","GS","GSold","3","category3/CS10.png","targets/13.png","1","indirect","45",""
"","html-keyboard-response","275","500434","0.0-10.0-0.22","80v1177e8v","many_one","0","indirect_first","0","Uß04ER02","0","24","1","1","3","1","","0","1","0","null","","","<div style=""font-size:60px;"">+</div>","null","","","","","","","","","",""
"","html-keyboard-response","276","500530","0.0-10.0-1.22","80v1177e8v","many_one","0","indirect_first","0","Uß04ER02","0","24","1","1","3","1","","0","1","0","null","","","<img src = 'category4/lin.png' width = '100%;'>","null","","","","","","","","","",""
"","html-keyboard-response","277","500787","0.0-10.0-2.22","80v1177e8v","many_one","0","indirect_first","0","Uß04ER02","0","24","1","1","3","1","","0","1","0","null","","","<img src = 'targets/4.png' width = '100%;'>","null","","","","","","","","","",""
"","html-keyboard-response","278","501048","0.0-10.0-3.22","80v1177e8v","many_one","0","indirect_first","0","Uß04ER02","0","24","1","1","3","1","","0","1","0","254.1100000962615","","","<img src = 'targets/mask.png' width = '100%;'>","75","neg","GS","abstract","4","category4/lin.png","targets/4.png","1","indirect","46",""
"","html-keyboard-response","279","502554","0.0-10.0-0.23","80v1177e8v","many_one","0","indirect_first","0","Uß04ER02","0","24","1","1","3","1","","0","1","0","null","","","<div style=""font-size:60px;"">+</div>","null","","","","","","","","","",""
"","html-keyboard-response","280","502648","0.0-10.0-1.23","80v1177e8v","many_one","0","indirect_first","0","Uß04ER02","0","24","1","1","3","1","","0","1","0","null","","","<img src = 'category3/CS3.png' width = '100%;'>","null","","","","","","","","","",""
"","html-keyboard-response","281","502903","0.0-10.0-2.23","80v1177e8v","many_one","0","indirect_first","0","Uß04ER02","0","24","1","1","3","1","","0","1","0","null","","","<img src = 'targets/26.png' width = '100%;'>","null","","","","","","","","","",""
"","html-keyboard-response","282","503200","0.0-10.0-3.23","80v1177e8v","many_one","0","indirect_first","0","Uß04ER02","0","24","1","1","3","1","","0","1","0","291.87999991700053","","","<img src = 'targets/mask.png' width = '100%;'>","75","pos","GS","GSold","3","category3/CS3.png","targets/26.png","1","indirect","47",""
"","survey-html-form","283","513995","0.0-11.0","80v1177e8v","many_one","0","indirect_first","0","Uß04ER02","0","24","1","1","3","1","","0","1","0","10289.985000155866","","{}","","","","","","","","","","","",""
"","image-slider-response","284","521769","0.0-12.0-0.0","80v1177e8v","many_one","0","indirect_first","0","Uß04ER02","0","24","1","1","3","1","","0","1","0","5751.904999837279","","","","","pos","CS","CS","3","category3/CS9.png","targets/31.png","","direct","","76"
"","image-slider-response","285","526746","0.0-12.0-0.1","80v1177e8v","many_one","0","indirect_first","0","Uß04ER02","0","24","1","1","3","1","","0","1","0","4972.684999927878","","","","","neg","CS","CS","1","category1/CS5.png","targets/1.png","","direct","","-53"
"","image-slider-response","286","530654","0.0-12.0-0.2","80v1177e8v","many_one","0","indirect_first","0","Uß04ER02","0","24","1","1","3","1","","0","1","0","3903.8149998523295","","","","","pos","GS","GSold","2","category2/CS5.png","targets/29.png","","direct","","-66"
"","image-slider-response","287","534041","0.0-12.0-0.3","80v1177e8v","many_one","0","indirect_first","0","Uß04ER02","0","24","1","1","3","1","","0","1","0","3383.19499976933","","","","","neg","CS","CS","1","category1/CS6.png","targets/41.png","","direct","","-62"
"","image-slider-response","288","538405","0.0-12.0-0.4","80v1177e8v","many_one","0","indirect_first","0","Uß04ER02","0","24","1","1","3","1","","0","1","0","4359.58500020206","","","","","pos","GS","GSold","3","category3/CS10.png","targets/13.png","","direct","","-68"
"","image-slider-response","289","541559","0.0-12.0-0.5","80v1177e8v","many_one","0","indirect_first","0","Uß04ER02","0","24","1","1","3","1","","0","1","0","3150.7049999199808","","","","","pos","CS","CS","2","category2/CS2.png","targets/39.png","","direct","","60"
"","image-slider-response","290","547397","0.0-12.0-0.6","80v1177e8v","many_one","0","indirect_first","0","Uß04ER02","0","24","1","1","3","1","","0","1","0","5833.895000163466","","","","","neg","CS","CS","4","category4/CS7.png","targets/8.png","","direct","","-59"
"","image-slider-response","291","550838","0.0-12.0-0.7","80v1177e8v","many_one","0","indirect_first","0","Uß04ER02","0","24","1","1","3","1","","0","1","0","3435.4149997234344","","","","","neg","GS","GSnew","1","category1/GS3.png","targets/48.png","","direct","","61"
"","image-slider-response","292","554473","0.0-12.0-0.8","80v1177e8v","many_one","0","indirect_first","0","Uß04ER02","0","24","1","1","3","1","","0","1","0","3630.8499998413026","","","","","pos","GS","GSnew","2","category2/GS1.png","targets/15.png","","direct","","-62"
"","image-slider-response","293","558304","0.0-12.0-0.9","80v1177e8v","many_one","0","indirect_first","0","Uß04ER02","0","24","1","1","3","1","","0","1","0","3826.4849996194243","","","","","pos","GS","GSnew","3","category3/GS2.png","targets/17.png","","direct","","62"
"","image-slider-response","294","562205","0.0-12.0-0.10","80v1177e8v","many_one","0","indirect_first","0","Uß04ER02","0","24","1","1","3","1","","0","1","0","3896.0549999028444","","","","","pos","GS","abstract","2","category2/men.png","targets/7.png","","direct","","65"
"","image-slider-response","295","565598","0.0-12.0-0.11","80v1177e8v","many_one","0","indirect_first","0","Uß04ER02","0","24","1","1","3","1","","0","1","0","3388.870000373572","","","","","neg","GS","abstract","1","category1/ma.png","targets/28.png","","direct","","75"
"","image-slider-response","296","568974","0.0-12.0-0.12","80v1177e8v","many_one","0","indirect_first","0","Uß04ER02","0","24","1","1","3","1","","0","1","0","3372.1300000324845","","","","","neg","GS","abstract","4","category4/lin.png","targets/4.png","","direct","","72"
"","image-slider-response","297","572500","0.0-12.0-0.13","80v1177e8v","many_one","0","indirect_first","0","Uß04ER02","0","24","1","1","3","1","","0","1","0","3520.120000001043","","","","","neg","GS","GSold","1","category1/CS7.png","targets/33.png","","direct","","-67"
"","image-slider-response","298","575993","0.0-12.0-0.14","80v1177e8v","many_one","0","indirect_first","0","Uß04ER02","0","24","1","1","3","1","","0","1","0","3488.445000257343","","","","","pos","CS","CS","2","category2/CS6.png","targets/5.png","","direct","","-64"
"","image-slider-response","299","580420","0.0-12.0-0.15","80v1177e8v","many_one","0","indirect_first","0","Uß04ER02","0","24","1","1","3","1","","0","1","0","4424.039999954402","","","","","pos","GS","GSnew","2","category2/GS3.png","targets/30.png","","direct","","65"
"","image-slider-response","300","583937","0.0-12.0-0.16","80v1177e8v","many_one","0","indirect_first","0","Uß04ER02","0","24","1","1","3","1","","0","1","0","3512.990000192076","","","","","pos","GS","GSold","3","category3/CS4.png","targets/25.png","","direct","","-67"
"","image-slider-response","301","587796","0.0-12.0-0.17","80v1177e8v","many_one","0","indirect_first","0","Uß04ER02","0","24","1","1","3","1","","0","1","0","3855.930000077933","","","","","neg","GS","GSold","1","category1/CS8.png","targets/24.png","","direct","","-70"
"","image-slider-response","302","591297","0.0-12.0-0.18","80v1177e8v","many_one","0","indirect_first","0","Uß04ER02","0","24","1","1","3","1","","0","1","0","3495.960000436753","","","","","neg","GS","GSold","4","category4/CS3.png","targets/40.png","","direct","","55"
"","image-slider-response","303","594810","0.0-12.0-0.19","80v1177e8v","many_one","0","indirect_first","0","Uß04ER02","0","24","1","1","3","1","","0","1","0","3509.059999603778","","","","","pos","GS","GSnew","3","category3/GS1.png","targets/27.png","","direct","","62"
"","image-slider-response","304","598466","0.0-12.0-0.20","80v1177e8v","many_one","0","indirect_first","0","Uß04ER02","0","24","1","1","3","1","","0","1","0","3651.8100001849234","","","","","neg","GS","GSold","4","category4/CS1.png","targets/34.png","","direct","","60"
"","image-slider-response","305","602242","0.0-12.0-0.21","80v1177e8v","many_one","0","indirect_first","0","Uß04ER02","0","24","1","1","3","1","","0","1","0","3771.635000128299","","","","","neg","CS","CS","4","category4/CS2.png","targets/20.png","","direct","","65"
"","image-slider-response","306","605340","0.0-12.0-0.22","80v1177e8v","many_one","0","indirect_first","0","Uß04ER02","0","24","1","1","3","1","","0","1","0","3094.02499999851","","","","","neg","CS","CS","4","category4/CS5.png","targets/3.png","","direct","","65"
"","image-slider-response","307","608863","0.0-12.0-0.23","80v1177e8v","many_one","0","indirect_first","0","Uß04ER02","0","24","1","1","3","1","","0","1","0","3519.5750002749264","","","","","neg","CS","CS","4","category4/CS10.png","targets/10.png","","direct","","66"
"","image-slider-response","308","611980","0.0-12.0-0.24","80v1177e8v","many_one","0","indirect_first","0","Uß04ER02","0","24","1","1","3","1","","0","1","0","3113.3200000040233","","","","","neg","GS","GSold","1","category1/CS9.png","targets/43.png","","direct","","-54"
"","image-slider-response","309","615077","0.0-12.0-0.25","80v1177e8v","many_one","0","indirect_first","0","Uß04ER02","0","24","1","1","3","1","","0","1","0","3092.8249997086823","","","","","neg","GS","GSnew","4","category4/GS2.png","targets/35.png","","direct","","-55"
"","image-slider-response","310","618921","0.0-12.0-0.26","80v1177e8v","many_one","0","indirect_first","0","Uß04ER02","0","24","1","1","3","1","","0","1","0","3840.199999976903","","","","","pos","GS","GSnew","3","category3/GS3.png","targets/36.png","","direct","","66"
"","image-slider-response","311","622419","0.0-12.0-0.27","80v1177e8v","many_one","0","indirect_first","0","Uß04ER02","0","24","1","1","3","1","","0","1","0","3494.084999896586","","","","","neg","GS","GSnew","1","category1/GS1.png","targets/38.png","","direct","","62"
"","image-slider-response","312","625477","0.0-12.0-0.28","80v1177e8v","many_one","0","indirect_first","0","Uß04ER02","0","24","1","1","3","1","","0","1","0","3053.9000001735985","","","","","neg","CS","CS","4","category4/CS4.png","targets/23.png","","direct","","52"
"","image-slider-response","313","629574","0.0-12.0-0.29","80v1177e8v","many_one","0","indirect_first","0","Uß04ER02","0","24","1","1","3","1","","0","1","0","4094.2099997773767","","","","","pos","GS","GSold","2","category2/CS10.png","targets/12.png","","direct","","-60"
"","image-slider-response","314","633178","0.0-12.0-0.30","80v1177e8v","many_one","0","indirect_first","0","Uß04ER02","0","24","1","1","3","1","","0","1","0","3599.6400001458824","","","","","neg","CS","CS","1","category1/CS10.png","targets/46.png","","direct","","69"
"","image-slider-response","315","636557","0.0-12.0-0.31","80v1177e8v","many_one","0","indirect_first","0","Uß04ER02","0","24","1","1","3","1","","0","1","0","3374.8550000600517","","","","","pos","GS","abstract","3","category3/wang.png","targets/44.png","","direct","","64"
"","image-slider-response","316","639753","0.0-12.0-0.32","80v1177e8v","many_one","0","indirect_first","0","Uß04ER02","0","24","1","1","3","1","","0","1","0","3192.360000219196","","","","","neg","GS","GSnew","4","category4/GS3.png","targets/37.png","","direct","","63"
"","image-slider-response","317","643191","0.0-12.0-0.33","80v1177e8v","many_one","0","indirect_first","0","Uß04ER02","0","24","1","1","3","1","","0","1","0","3435.114999767393","","","","","pos","GS","GSold","3","category3/CS3.png","targets/26.png","","direct","","68"
"","image-slider-response","318","646131","0.0-12.0-0.34","80v1177e8v","many_one","0","indirect_first","0","Uß04ER02","0","24","1","1","3","1","","0","1","0","2936.280000023544","","","","","neg","GS","GSnew","4","category4/GS1.png","targets/16.png","","direct","","62"
"","image-slider-response","319","650347","0.0-12.0-0.35","80v1177e8v","many_one","0","indirect_first","0","Uß04ER02","0","24","1","1","3","1","","0","1","0","4211.654999759048","","","","","pos","CS","CS","3","category3/CS8.png","targets/6.png","","direct","","70"
"","image-slider-response","320","653572","0.0-12.0-0.36","80v1177e8v","many_one","0","indirect_first","0","Uß04ER02","0","24","1","1","3","1","","0","1","0","3219.6499998681247","","","","","pos","CS","CS","2","category2/CS1.png","targets/2.png","","direct","","65"
"","image-slider-response","321","656582","0.0-12.0-0.37","80v1177e8v","many_one","0","indirect_first","0","Uß04ER02","0","24","1","1","3","1","","0","1","0","3007.0799998939037","","","","","pos","CS","CS","3","category3/CS2.png","targets/11.png","","direct","","65"
"","image-slider-response","322","659477","0.0-12.0-0.38","80v1177e8v","many_one","0","indirect_first","0","Uß04ER02","0","24","1","1","3","1","","0","1","0","2891.1799998022616","","","","","neg","CS","CS","1","category1/CS3.png","targets/9.png","","direct","","66"
"","image-slider-response","323","664649","0.0-12.0-0.39","80v1177e8v","many_one","0","indirect_first","0","Uß04ER02","0","24","1","1","3","1","","0","1","0","5167.739999946207","","","","","pos","CS","CS","2","category2/CS9.png","targets/42.png","","direct","","78"
"","image-slider-response","324","670160","0.0-12.0-0.40","80v1177e8v","many_one","0","indirect_first","0","Uß04ER02","0","24","1","1","3","1","","0","1","0","5505.580000113696","","","","","pos","CS","CS","3","category3/CS6.png","targets/45.png","","direct","","71"
