"success","trial_type","trial_index","time_elapsed","internal_node_id","subject","condition","condition_code","measure","measure_code","codeword","gender","age","education","chinese","fach","handedness","comment","hinschauen","ablenkung","gewissenhaft","rt","url","responses","stimulus","key_press","val","type","type_specific","category","cs_selected","target","indirect","task","nr_pres","response"
"true","fullscreen","0","19555","0.0-0.0","4omusvdetz","one_one","1","indirect_first","0","er05rt27","0","32","1","1","3","1","","0","1","0","","","","","","","","","","","","","","",""
"","external-html","1","48708","0.0-1.0","4omusvdetz","one_one","1","indirect_first","0","er05rt27","0","32","1","1","3","1","","0","1","0","29095.650000032037","text/information.html","","","","","","","","","","","","",""
"","external-html","2","60904","0.0-2.0","4omusvdetz","one_one","1","indirect_first","0","er05rt27","0","32","1","1","3","1","","0","1","0","12117.22999997437","text/consent.html","","","","","","","","","","","","",""
"","survey-html-form","3","93665","0.0-3.0","4omusvdetz","one_one","1","indirect_first","0","er05rt27","0","32","1","1","3","1","","0","1","0","32757.205000147223","","{""codeword_enter"":""er05rt27""}","","","","","","","","","","","",""
"","survey-html-form","4","119352","0.0-4.0","4omusvdetz","one_one","1","indirect_first","0","er05rt27","0","32","1","1","3","1","","0","1","0","25672.46499983594","","{""age"":""32"",""education"":""1"",""subject"":""3"",""gender"":""0"",""handedness"":""1"",""chinese"":""1""}","","","","","","","","","","","",""
"","survey-html-form","5","13070794","0.0-5.0","4omusvdetz","one_one","1","indirect_first","0","er05rt27","0","32","1","1","3","1","","0","1","0","12951448.710000142","","{}","","","","","","","","","","","",""
"","html-keyboard-response","6","13074802","0.0-6.0-0.0-0.0","4omusvdetz","one_one","1","indirect_first","0","er05rt27","0","32","1","1","3","1","","0","1","0","null","","","<div class = 'row'><div class = 'column'><img src = 'uspos/7580.bmp' width = '100%;'></div><div class = 'column'><img src = 'category2/CS7.png' width = '70%;'></div></div>","null","pos","CS","CS","2","category2/CS7.png","","","","",""
"","html-keyboard-response","7","13077311","0.0-6.0-0.0-0.1","4omusvdetz","one_one","1","indirect_first","0","er05rt27","0","32","1","1","3","1","","0","1","0","null","","","<div class = 'row'><div class = 'column'><img src = 'uspos/7325.bmp' width = '100%;'></div><div class = 'column'><img src = 'category4/CS9.png' width = '70%;'></div></div>","null","pos","CS","CS","4","category4/CS9.png","","","","",""
"","html-keyboard-response","8","13079819","0.0-6.0-0.0-0.2","4omusvdetz","one_one","1","indirect_first","0","er05rt27","0","32","1","1","3","1","","0","1","0","null","","","<div class = 'row'><div class = 'column'><img src = 'usneg/2750.bmp' width = '100%;'></div><div class = 'column'><img src = 'category1/CS6.png' width = '70%;'></div></div>","null","neg","CS","CS","1","category1/CS6.png","","","","",""
"","html-keyboard-response","9","13082322","0.0-6.0-0.0-0.3","4omusvdetz","one_one","1","indirect_first","0","er05rt27","0","32","1","1","3","1","","0","1","0","null","","","<div class = 'row'><div class = 'column'><img src = 'category2/CS7.png' width = '70%;'></div><div class = 'column'><img src = 'uspos/7580.bmp' width = '100%;'></div></div>","null","pos","CS","CS","2","category2/CS7.png","","","","",""
"","html-keyboard-response","10","13084825","0.0-6.0-0.0-0.4","4omusvdetz","one_one","1","indirect_first","0","er05rt27","0","32","1","1","3","1","","0","1","0","null","","","<div class = 'row'><div class = 'column'><img src = 'category1/CS6.png' width = '70%;'></div><div class = 'column'><img src = 'usneg/2750.bmp' width = '100%;'></div></div>","null","neg","CS","CS","1","category1/CS6.png","","","","",""
"","html-keyboard-response","11","13087329","0.0-6.0-0.0-0.5","4omusvdetz","one_one","1","indirect_first","0","er05rt27","0","32","1","1","3","1","","0","1","0","null","","","<div class = 'row'><div class = 'column'><img src = 'uspos/7325.bmp' width = '100%;'></div><div class = 'column'><img src = 'category4/CS9.png' width = '70%;'></div></div>","null","pos","CS","CS","4","category4/CS9.png","","","","",""
"","html-keyboard-response","12","13089832","0.0-6.0-0.0-0.6","4omusvdetz","one_one","1","indirect_first","0","er05rt27","0","32","1","1","3","1","","0","1","0","null","","","<div class = 'row'><div class = 'column'><img src = 'usneg/2750.bmp' width = '100%;'></div><div class = 'column'><img src = 'category1/CS6.png' width = '70%;'></div></div>","null","neg","CS","CS","1","category1/CS6.png","","","","",""
"","html-keyboard-response","13","13092344","0.0-6.0-0.0-0.7","4omusvdetz","one_one","1","indirect_first","0","er05rt27","0","32","1","1","3","1","","0","1","0","null","","","<div class = 'row'><div class = 'column'><img src = 'usneg/9635.2.bmp' width = '100%;'></div><div class = 'column'><img src = 'category3/CS6.png' width = '70%;'></div></div>","null","neg","CS","CS","3","category3/CS6.png","","","","",""
"","html-keyboard-response","14","13094847","0.0-6.0-0.0-0.8","4omusvdetz","one_one","1","indirect_first","0","er05rt27","0","32","1","1","3","1","","0","1","0","null","","","<div class = 'row'><div class = 'column'><img src = 'uspos/7325.bmp' width = '100%;'></div><div class = 'column'><img src = 'category4/CS9.png' width = '70%;'></div></div>","null","pos","CS","CS","4","category4/CS9.png","","","","",""
"","html-keyboard-response","15","13097351","0.0-6.0-0.0-0.9","4omusvdetz","one_one","1","indirect_first","0","er05rt27","0","32","1","1","3","1","","0","1","0","null","","","<div class = 'row'><div class = 'column'><img src = 'usneg/9635.2.bmp' width = '100%;'></div><div class = 'column'><img src = 'category3/CS6.png' width = '70%;'></div></div>","null","neg","CS","CS","3","category3/CS6.png","","","","",""
"","html-keyboard-response","16","13099852","0.0-6.0-0.0-0.10","4omusvdetz","one_one","1","indirect_first","0","er05rt27","0","32","1","1","3","1","","0","1","0","null","","","<div class = 'row'><div class = 'column'><img src = 'category1/CS6.png' width = '70%;'></div><div class = 'column'><img src = 'usneg/2750.bmp' width = '100%;'></div></div>","null","neg","CS","CS","1","category1/CS6.png","","","","",""
"","html-keyboard-response","17","13102356","0.0-6.0-0.0-0.11","4omusvdetz","one_one","1","indirect_first","0","er05rt27","0","32","1","1","3","1","","0","1","0","null","","","<div class = 'row'><div class = 'column'><img src = 'usneg/9635.2.bmp' width = '100%;'></div><div class = 'column'><img src = 'category3/CS6.png' width = '70%;'></div></div>","null","neg","CS","CS","3","category3/CS6.png","","","","",""
"","html-keyboard-response","18","13104859","0.0-6.0-0.0-0.12","4omusvdetz","one_one","1","indirect_first","0","er05rt27","0","32","1","1","3","1","","0","1","0","null","","","<div class = 'row'><div class = 'column'><img src = 'category4/CS9.png' width = '70%;'></div><div class = 'column'><img src = 'uspos/7325.bmp' width = '100%;'></div></div>","null","pos","CS","CS","4","category4/CS9.png","","","","",""
"","html-keyboard-response","19","13107362","0.0-6.0-0.0-0.13","4omusvdetz","one_one","1","indirect_first","0","er05rt27","0","32","1","1","3","1","","0","1","0","null","","","<div class = 'row'><div class = 'column'><img src = 'category2/CS7.png' width = '70%;'></div><div class = 'column'><img src = 'uspos/7580.bmp' width = '100%;'></div></div>","null","pos","CS","CS","2","category2/CS7.png","","","","",""
"","html-keyboard-response","20","13109865","0.0-6.0-0.0-0.14","4omusvdetz","one_one","1","indirect_first","0","er05rt27","0","32","1","1","3","1","","0","1","0","null","","","<div class = 'row'><div class = 'column'><img src = 'category1/CS6.png' width = '70%;'></div><div class = 'column'><img src = 'usneg/2750.bmp' width = '100%;'></div></div>","null","neg","CS","CS","1","category1/CS6.png","","","","",""
"","html-keyboard-response","21","13112369","0.0-6.0-0.0-0.15","4omusvdetz","one_one","1","indirect_first","0","er05rt27","0","32","1","1","3","1","","0","1","0","null","","","<div class = 'row'><div class = 'column'><img src = 'usneg/9635.2.bmp' width = '100%;'></div><div class = 'column'><img src = 'category3/CS6.png' width = '70%;'></div></div>","null","neg","CS","CS","3","category3/CS6.png","","","","",""
"","html-keyboard-response","22","13114873","0.0-6.0-0.0-0.16","4omusvdetz","one_one","1","indirect_first","0","er05rt27","0","32","1","1","3","1","","0","1","0","null","","","<div class = 'row'><div class = 'column'><img src = 'category4/CS9.png' width = '70%;'></div><div class = 'column'><img src = 'uspos/7325.bmp' width = '100%;'></div></div>","null","pos","CS","CS","4","category4/CS9.png","","","","",""
"","html-keyboard-response","23","13117376","0.0-6.0-0.0-0.17","4omusvdetz","one_one","1","indirect_first","0","er05rt27","0","32","1","1","3","1","","0","1","0","null","","","<div class = 'row'><div class = 'column'><img src = 'uspos/7580.bmp' width = '100%;'></div><div class = 'column'><img src = 'category2/CS7.png' width = '70%;'></div></div>","null","pos","CS","CS","2","category2/CS7.png","","","","",""
"","html-keyboard-response","24","13119880","0.0-6.0-0.0-0.18","4omusvdetz","one_one","1","indirect_first","0","er05rt27","0","32","1","1","3","1","","0","1","0","null","","","<div class = 'row'><div class = 'column'><img src = 'usneg/9635.2.bmp' width = '100%;'></div><div class = 'column'><img src = 'category3/CS6.png' width = '70%;'></div></div>","null","neg","CS","CS","3","category3/CS6.png","","","","",""
"","html-keyboard-response","25","13122383","0.0-6.0-0.0-0.19","4omusvdetz","one_one","1","indirect_first","0","er05rt27","0","32","1","1","3","1","","0","1","0","null","","","<div class = 'row'><div class = 'column'><img src = 'uspos/7580.bmp' width = '100%;'></div><div class = 'column'><img src = 'category2/CS7.png' width = '70%;'></div></div>","null","pos","CS","CS","2","category2/CS7.png","","","","",""
"","survey-html-form","26","13128740","0.0-6.0-1.0","4omusvdetz","one_one","1","indirect_first","0","er05rt27","0","32","1","1","3","1","","0","1","0","5853.099999949336","","{}","","","","","","","","","","","",""
"","html-keyboard-response","27","13132743","0.0-6.0-2.0-0.0","4omusvdetz","one_one","1","indirect_first","0","er05rt27","0","32","1","1","3","1","","0","1","0","null","","","<div class = 'row'><div class = 'column'><img src = 'usneg/2750.bmp' width = '100%;'></div><div class = 'column'><img src = 'category1/CS6.png' width = '70%;'></div></div>","null","neg","CS","CS","1","category1/CS6.png","","","","",""
"","html-keyboard-response","28","13135247","0.0-6.0-2.0-0.1","4omusvdetz","one_one","1","indirect_first","0","er05rt27","0","32","1","1","3","1","","0","1","0","null","","","<div class = 'row'><div class = 'column'><img src = 'category4/CS9.png' width = '70%;'></div><div class = 'column'><img src = 'uspos/7325.bmp' width = '100%;'></div></div>","null","pos","CS","CS","4","category4/CS9.png","","","","",""
"","html-keyboard-response","29","13137750","0.0-6.0-2.0-0.2","4omusvdetz","one_one","1","indirect_first","0","er05rt27","0","32","1","1","3","1","","0","1","0","null","","","<div class = 'row'><div class = 'column'><img src = 'category2/CS7.png' width = '70%;'></div><div class = 'column'><img src = 'uspos/7580.bmp' width = '100%;'></div></div>","null","pos","CS","CS","2","category2/CS7.png","","","","",""
"","html-keyboard-response","30","13140254","0.0-6.0-2.0-0.3","4omusvdetz","one_one","1","indirect_first","0","er05rt27","0","32","1","1","3","1","","0","1","0","null","","","<div class = 'row'><div class = 'column'><img src = 'usneg/9635.2.bmp' width = '100%;'></div><div class = 'column'><img src = 'category3/CS6.png' width = '70%;'></div></div>","null","neg","CS","CS","3","category3/CS6.png","","","","",""
"","html-keyboard-response","31","13142759","0.0-6.0-2.0-0.4","4omusvdetz","one_one","1","indirect_first","0","er05rt27","0","32","1","1","3","1","","0","1","0","null","","","<div class = 'row'><div class = 'column'><img src = 'uspos/7325.bmp' width = '100%;'></div><div class = 'column'><img src = 'category4/CS9.png' width = '70%;'></div></div>","null","pos","CS","CS","4","category4/CS9.png","","","","",""
"","html-keyboard-response","32","13145262","0.0-6.0-2.0-0.5","4omusvdetz","one_one","1","indirect_first","0","er05rt27","0","32","1","1","3","1","","0","1","0","null","","","<div class = 'row'><div class = 'column'><img src = 'category3/CS6.png' width = '70%;'></div><div class = 'column'><img src = 'usneg/9635.2.bmp' width = '100%;'></div></div>","null","neg","CS","CS","3","category3/CS6.png","","","","",""
"","html-keyboard-response","33","13147766","0.0-6.0-2.0-0.6","4omusvdetz","one_one","1","indirect_first","0","er05rt27","0","32","1","1","3","1","","0","1","0","null","","","<div class = 'row'><div class = 'column'><img src = 'category4/CS9.png' width = '70%;'></div><div class = 'column'><img src = 'uspos/7325.bmp' width = '100%;'></div></div>","null","pos","CS","CS","4","category4/CS9.png","","","","",""
"","html-keyboard-response","34","13150270","0.0-6.0-2.0-0.7","4omusvdetz","one_one","1","indirect_first","0","er05rt27","0","32","1","1","3","1","","0","1","0","null","","","<div class = 'row'><div class = 'column'><img src = 'usneg/2750.bmp' width = '100%;'></div><div class = 'column'><img src = 'category1/CS6.png' width = '70%;'></div></div>","null","neg","CS","CS","1","category1/CS6.png","","","","",""
"","html-keyboard-response","35","13152775","0.0-6.0-2.0-0.8","4omusvdetz","one_one","1","indirect_first","0","er05rt27","0","32","1","1","3","1","","0","1","0","null","","","<div class = 'row'><div class = 'column'><img src = 'usneg/9635.2.bmp' width = '100%;'></div><div class = 'column'><img src = 'category3/CS6.png' width = '70%;'></div></div>","null","neg","CS","CS","3","category3/CS6.png","","","","",""
"","html-keyboard-response","36","13155279","0.0-6.0-2.0-0.9","4omusvdetz","one_one","1","indirect_first","0","er05rt27","0","32","1","1","3","1","","0","1","0","null","","","<div class = 'row'><div class = 'column'><img src = 'uspos/7580.bmp' width = '100%;'></div><div class = 'column'><img src = 'category2/CS7.png' width = '70%;'></div></div>","null","pos","CS","CS","2","category2/CS7.png","","","","",""
"","html-keyboard-response","37","13157783","0.0-6.0-2.0-0.10","4omusvdetz","one_one","1","indirect_first","0","er05rt27","0","32","1","1","3","1","","0","1","0","null","","","<div class = 'row'><div class = 'column'><img src = 'usneg/9635.2.bmp' width = '100%;'></div><div class = 'column'><img src = 'category3/CS6.png' width = '70%;'></div></div>","null","neg","CS","CS","3","category3/CS6.png","","","","",""
"","html-keyboard-response","38","13160287","0.0-6.0-2.0-0.11","4omusvdetz","one_one","1","indirect_first","0","er05rt27","0","32","1","1","3","1","","0","1","0","null","","","<div class = 'row'><div class = 'column'><img src = 'category1/CS6.png' width = '70%;'></div><div class = 'column'><img src = 'usneg/2750.bmp' width = '100%;'></div></div>","null","neg","CS","CS","1","category1/CS6.png","","","","",""
"","html-keyboard-response","39","13162791","0.0-6.0-2.0-0.12","4omusvdetz","one_one","1","indirect_first","0","er05rt27","0","32","1","1","3","1","","0","1","0","null","","","<div class = 'row'><div class = 'column'><img src = 'category2/CS7.png' width = '70%;'></div><div class = 'column'><img src = 'uspos/7580.bmp' width = '100%;'></div></div>","null","pos","CS","CS","2","category2/CS7.png","","","","",""
"","html-keyboard-response","40","13165295","0.0-6.0-2.0-0.13","4omusvdetz","one_one","1","indirect_first","0","er05rt27","0","32","1","1","3","1","","0","1","0","null","","","<div class = 'row'><div class = 'column'><img src = 'usneg/2750.bmp' width = '100%;'></div><div class = 'column'><img src = 'category1/CS6.png' width = '70%;'></div></div>","null","neg","CS","CS","1","category1/CS6.png","","","","",""
"","html-keyboard-response","41","13167799","0.0-6.0-2.0-0.14","4omusvdetz","one_one","1","indirect_first","0","er05rt27","0","32","1","1","3","1","","0","1","0","null","","","<div class = 'row'><div class = 'column'><img src = 'category4/CS9.png' width = '70%;'></div><div class = 'column'><img src = 'uspos/7325.bmp' width = '100%;'></div></div>","null","pos","CS","CS","4","category4/CS9.png","","","","",""
"","html-keyboard-response","42","13170304","0.0-6.0-2.0-0.15","4omusvdetz","one_one","1","indirect_first","0","er05rt27","0","32","1","1","3","1","","0","1","0","null","","","<div class = 'row'><div class = 'column'><img src = 'category2/CS7.png' width = '70%;'></div><div class = 'column'><img src = 'uspos/7580.bmp' width = '100%;'></div></div>","null","pos","CS","CS","2","category2/CS7.png","","","","",""
"","html-keyboard-response","43","13172809","0.0-6.0-2.0-0.16","4omusvdetz","one_one","1","indirect_first","0","er05rt27","0","32","1","1","3","1","","0","1","0","null","","","<div class = 'row'><div class = 'column'><img src = 'category3/CS6.png' width = '70%;'></div><div class = 'column'><img src = 'usneg/9635.2.bmp' width = '100%;'></div></div>","null","neg","CS","CS","3","category3/CS6.png","","","","",""
"","html-keyboard-response","44","13175312","0.0-6.0-2.0-0.17","4omusvdetz","one_one","1","indirect_first","0","er05rt27","0","32","1","1","3","1","","0","1","0","null","","","<div class = 'row'><div class = 'column'><img src = 'uspos/7325.bmp' width = '100%;'></div><div class = 'column'><img src = 'category4/CS9.png' width = '70%;'></div></div>","null","pos","CS","CS","4","category4/CS9.png","","","","",""
"","html-keyboard-response","45","13177815","0.0-6.0-2.0-0.18","4omusvdetz","one_one","1","indirect_first","0","er05rt27","0","32","1","1","3","1","","0","1","0","null","","","<div class = 'row'><div class = 'column'><img src = 'category2/CS7.png' width = '70%;'></div><div class = 'column'><img src = 'uspos/7580.bmp' width = '100%;'></div></div>","null","pos","CS","CS","2","category2/CS7.png","","","","",""
"","html-keyboard-response","46","13180320","0.0-6.0-2.0-0.19","4omusvdetz","one_one","1","indirect_first","0","er05rt27","0","32","1","1","3","1","","0","1","0","null","","","<div class = 'row'><div class = 'column'><img src = 'category1/CS6.png' width = '70%;'></div><div class = 'column'><img src = 'usneg/2750.bmp' width = '100%;'></div></div>","null","neg","CS","CS","1","category1/CS6.png","","","","",""
"","survey-html-form","47","13182401","0.0-6.0-3.0","4omusvdetz","one_one","1","indirect_first","0","er05rt27","0","32","1","1","3","1","","0","1","0","1579.0450000204146","","{}","","","","","","","","","","","",""
"","html-keyboard-response","48","13186407","0.0-6.0-4.0-0.0","4omusvdetz","one_one","1","indirect_first","0","er05rt27","0","32","1","1","3","1","","0","1","0","null","","","<div class = 'row'><div class = 'column'><img src = 'uspos/7580.bmp' width = '100%;'></div><div class = 'column'><img src = 'category2/CS7.png' width = '70%;'></div></div>","null","pos","CS","CS","2","category2/CS7.png","","","","",""
"","html-keyboard-response","49","13188912","0.0-6.0-4.0-0.1","4omusvdetz","one_one","1","indirect_first","0","er05rt27","0","32","1","1","3","1","","0","1","0","null","","","<div class = 'row'><div class = 'column'><img src = 'category3/CS6.png' width = '70%;'></div><div class = 'column'><img src = 'usneg/9635.2.bmp' width = '100%;'></div></div>","null","neg","CS","CS","3","category3/CS6.png","","","","",""
"","html-keyboard-response","50","13191415","0.0-6.0-4.0-0.2","4omusvdetz","one_one","1","indirect_first","0","er05rt27","0","32","1","1","3","1","","0","1","0","null","","","<div class = 'row'><div class = 'column'><img src = 'usneg/2750.bmp' width = '100%;'></div><div class = 'column'><img src = 'category1/CS6.png' width = '70%;'></div></div>","null","neg","CS","CS","1","category1/CS6.png","","","","",""
"","html-keyboard-response","51","13193919","0.0-6.0-4.0-0.3","4omusvdetz","one_one","1","indirect_first","0","er05rt27","0","32","1","1","3","1","","0","1","0","null","","","<div class = 'row'><div class = 'column'><img src = 'uspos/7580.bmp' width = '100%;'></div><div class = 'column'><img src = 'category2/CS7.png' width = '70%;'></div></div>","null","pos","CS","CS","2","category2/CS7.png","","","","",""
"","html-keyboard-response","52","13196423","0.0-6.0-4.0-0.4","4omusvdetz","one_one","1","indirect_first","0","er05rt27","0","32","1","1","3","1","","0","1","0","null","","","<div class = 'row'><div class = 'column'><img src = 'category3/CS6.png' width = '70%;'></div><div class = 'column'><img src = 'usneg/9635.2.bmp' width = '100%;'></div></div>","null","neg","CS","CS","3","category3/CS6.png","","","","",""
"","html-keyboard-response","53","13198927","0.0-6.0-4.0-0.5","4omusvdetz","one_one","1","indirect_first","0","er05rt27","0","32","1","1","3","1","","0","1","0","null","","","<div class = 'row'><div class = 'column'><img src = 'category4/CS9.png' width = '70%;'></div><div class = 'column'><img src = 'uspos/7325.bmp' width = '100%;'></div></div>","null","pos","CS","CS","4","category4/CS9.png","","","","",""
"","html-keyboard-response","54","13201430","0.0-6.0-4.0-0.6","4omusvdetz","one_one","1","indirect_first","0","er05rt27","0","32","1","1","3","1","","0","1","0","null","","","<div class = 'row'><div class = 'column'><img src = 'category2/CS7.png' width = '70%;'></div><div class = 'column'><img src = 'uspos/7580.bmp' width = '100%;'></div></div>","null","pos","CS","CS","2","category2/CS7.png","","","","",""
"","html-keyboard-response","55","13203934","0.0-6.0-4.0-0.7","4omusvdetz","one_one","1","indirect_first","0","er05rt27","0","32","1","1","3","1","","0","1","0","null","","","<div class = 'row'><div class = 'column'><img src = 'category3/CS6.png' width = '70%;'></div><div class = 'column'><img src = 'usneg/9635.2.bmp' width = '100%;'></div></div>","null","neg","CS","CS","3","category3/CS6.png","","","","",""
"","html-keyboard-response","56","13206437","0.0-6.0-4.0-0.8","4omusvdetz","one_one","1","indirect_first","0","er05rt27","0","32","1","1","3","1","","0","1","0","null","","","<div class = 'row'><div class = 'column'><img src = 'category4/CS9.png' width = '70%;'></div><div class = 'column'><img src = 'uspos/7325.bmp' width = '100%;'></div></div>","null","pos","CS","CS","4","category4/CS9.png","","","","",""
"","html-keyboard-response","57","13208941","0.0-6.0-4.0-0.9","4omusvdetz","one_one","1","indirect_first","0","er05rt27","0","32","1","1","3","1","","0","1","0","null","","","<div class = 'row'><div class = 'column'><img src = 'category3/CS6.png' width = '70%;'></div><div class = 'column'><img src = 'usneg/9635.2.bmp' width = '100%;'></div></div>","null","neg","CS","CS","3","category3/CS6.png","","","","",""
"","html-keyboard-response","58","13211445","0.0-6.0-4.0-0.10","4omusvdetz","one_one","1","indirect_first","0","er05rt27","0","32","1","1","3","1","","0","1","0","null","","","<div class = 'row'><div class = 'column'><img src = 'usneg/2750.bmp' width = '100%;'></div><div class = 'column'><img src = 'category1/CS6.png' width = '70%;'></div></div>","null","neg","CS","CS","1","category1/CS6.png","","","","",""
"","html-keyboard-response","59","13213949","0.0-6.0-4.0-0.11","4omusvdetz","one_one","1","indirect_first","0","er05rt27","0","32","1","1","3","1","","0","1","0","null","","","<div class = 'row'><div class = 'column'><img src = 'uspos/7325.bmp' width = '100%;'></div><div class = 'column'><img src = 'category4/CS9.png' width = '70%;'></div></div>","null","pos","CS","CS","4","category4/CS9.png","","","","",""
"","html-keyboard-response","60","13216453","0.0-6.0-4.0-0.12","4omusvdetz","one_one","1","indirect_first","0","er05rt27","0","32","1","1","3","1","","0","1","0","null","","","<div class = 'row'><div class = 'column'><img src = 'usneg/2750.bmp' width = '100%;'></div><div class = 'column'><img src = 'category1/CS6.png' width = '70%;'></div></div>","null","neg","CS","CS","1","category1/CS6.png","","","","",""
"","html-keyboard-response","61","13218958","0.0-6.0-4.0-0.13","4omusvdetz","one_one","1","indirect_first","0","er05rt27","0","32","1","1","3","1","","0","1","0","null","","","<div class = 'row'><div class = 'column'><img src = 'category4/CS9.png' width = '70%;'></div><div class = 'column'><img src = 'uspos/7325.bmp' width = '100%;'></div></div>","null","pos","CS","CS","4","category4/CS9.png","","","","",""
"","html-keyboard-response","62","13221462","0.0-6.0-4.0-0.14","4omusvdetz","one_one","1","indirect_first","0","er05rt27","0","32","1","1","3","1","","0","1","0","null","","","<div class = 'row'><div class = 'column'><img src = 'category1/CS6.png' width = '70%;'></div><div class = 'column'><img src = 'usneg/2750.bmp' width = '100%;'></div></div>","null","neg","CS","CS","1","category1/CS6.png","","","","",""
"","html-keyboard-response","63","13223966","0.0-6.0-4.0-0.15","4omusvdetz","one_one","1","indirect_first","0","er05rt27","0","32","1","1","3","1","","0","1","0","null","","","<div class = 'row'><div class = 'column'><img src = 'usneg/9635.2.bmp' width = '100%;'></div><div class = 'column'><img src = 'category3/CS6.png' width = '70%;'></div></div>","null","neg","CS","CS","3","category3/CS6.png","","","","",""
"","html-keyboard-response","64","13226469","0.0-6.0-4.0-0.16","4omusvdetz","one_one","1","indirect_first","0","er05rt27","0","32","1","1","3","1","","0","1","0","null","","","<div class = 'row'><div class = 'column'><img src = 'usneg/2750.bmp' width = '100%;'></div><div class = 'column'><img src = 'category1/CS6.png' width = '70%;'></div></div>","null","neg","CS","CS","1","category1/CS6.png","","","","",""
"","html-keyboard-response","65","13228974","0.0-6.0-4.0-0.17","4omusvdetz","one_one","1","indirect_first","0","er05rt27","0","32","1","1","3","1","","0","1","0","null","","","<div class = 'row'><div class = 'column'><img src = 'uspos/7580.bmp' width = '100%;'></div><div class = 'column'><img src = 'category2/CS7.png' width = '70%;'></div></div>","null","pos","CS","CS","2","category2/CS7.png","","","","",""
"","html-keyboard-response","66","13231478","0.0-6.0-4.0-0.18","4omusvdetz","one_one","1","indirect_first","0","er05rt27","0","32","1","1","3","1","","0","1","0","null","","","<div class = 'row'><div class = 'column'><img src = 'category4/CS9.png' width = '70%;'></div><div class = 'column'><img src = 'uspos/7325.bmp' width = '100%;'></div></div>","null","pos","CS","CS","4","category4/CS9.png","","","","",""
"","html-keyboard-response","67","13233991","0.0-6.0-4.0-0.19","4omusvdetz","one_one","1","indirect_first","0","er05rt27","0","32","1","1","3","1","","0","1","0","null","","","<div class = 'row'><div class = 'column'><img src = 'uspos/7580.bmp' width = '100%;'></div><div class = 'column'><img src = 'category2/CS7.png' width = '70%;'></div></div>","null","pos","CS","CS","2","category2/CS7.png","","","","",""
"","survey-html-form","68","13236156","0.0-6.0-5.0","4omusvdetz","one_one","1","indirect_first","0","er05rt27","0","32","1","1","3","1","","0","1","0","1663.0649999715388","","{}","","","","","","","","","","","",""
"","html-keyboard-response","69","13240164","0.0-6.0-6.0-0.0","4omusvdetz","one_one","1","indirect_first","0","er05rt27","0","32","1","1","3","1","","0","1","0","null","","","<div class = 'row'><div class = 'column'><img src = 'uspos/7325.bmp' width = '100%;'></div><div class = 'column'><img src = 'category4/CS9.png' width = '70%;'></div></div>","null","pos","CS","CS","4","category4/CS9.png","","","","",""
"","html-keyboard-response","70","13242669","0.0-6.0-6.0-0.1","4omusvdetz","one_one","1","indirect_first","0","er05rt27","0","32","1","1","3","1","","0","1","0","null","","","<div class = 'row'><div class = 'column'><img src = 'usneg/2750.bmp' width = '100%;'></div><div class = 'column'><img src = 'category1/CS6.png' width = '70%;'></div></div>","null","neg","CS","CS","1","category1/CS6.png","","","","",""
"","html-keyboard-response","71","13245174","0.0-6.0-6.0-0.2","4omusvdetz","one_one","1","indirect_first","0","er05rt27","0","32","1","1","3","1","","0","1","0","null","","","<div class = 'row'><div class = 'column'><img src = 'usneg/9635.2.bmp' width = '100%;'></div><div class = 'column'><img src = 'category3/CS6.png' width = '70%;'></div></div>","null","neg","CS","CS","3","category3/CS6.png","","","","",""
"","html-keyboard-response","72","13247679","0.0-6.0-6.0-0.3","4omusvdetz","one_one","1","indirect_first","0","er05rt27","0","32","1","1","3","1","","0","1","0","null","","","<div class = 'row'><div class = 'column'><img src = 'usneg/2750.bmp' width = '100%;'></div><div class = 'column'><img src = 'category1/CS6.png' width = '70%;'></div></div>","null","neg","CS","CS","1","category1/CS6.png","","","","",""
"","html-keyboard-response","73","13250183","0.0-6.0-6.0-0.4","4omusvdetz","one_one","1","indirect_first","0","er05rt27","0","32","1","1","3","1","","0","1","0","null","","","<div class = 'row'><div class = 'column'><img src = 'uspos/7325.bmp' width = '100%;'></div><div class = 'column'><img src = 'category4/CS9.png' width = '70%;'></div></div>","null","pos","CS","CS","4","category4/CS9.png","","","","",""
"","html-keyboard-response","74","13252687","0.0-6.0-6.0-0.5","4omusvdetz","one_one","1","indirect_first","0","er05rt27","0","32","1","1","3","1","","0","1","0","null","","","<div class = 'row'><div class = 'column'><img src = 'category2/CS7.png' width = '70%;'></div><div class = 'column'><img src = 'uspos/7580.bmp' width = '100%;'></div></div>","null","pos","CS","CS","2","category2/CS7.png","","","","",""
"","html-keyboard-response","75","13255192","0.0-6.0-6.0-0.6","4omusvdetz","one_one","1","indirect_first","0","er05rt27","0","32","1","1","3","1","","0","1","0","null","","","<div class = 'row'><div class = 'column'><img src = 'category4/CS9.png' width = '70%;'></div><div class = 'column'><img src = 'uspos/7325.bmp' width = '100%;'></div></div>","null","pos","CS","CS","4","category4/CS9.png","","","","",""
"","html-keyboard-response","76","13257696","0.0-6.0-6.0-0.7","4omusvdetz","one_one","1","indirect_first","0","er05rt27","0","32","1","1","3","1","","0","1","0","null","","","<div class = 'row'><div class = 'column'><img src = 'category3/CS6.png' width = '70%;'></div><div class = 'column'><img src = 'usneg/9635.2.bmp' width = '100%;'></div></div>","null","neg","CS","CS","3","category3/CS6.png","","","","",""
"","html-keyboard-response","77","13260200","0.0-6.0-6.0-0.8","4omusvdetz","one_one","1","indirect_first","0","er05rt27","0","32","1","1","3","1","","0","1","0","null","","","<div class = 'row'><div class = 'column'><img src = 'usneg/2750.bmp' width = '100%;'></div><div class = 'column'><img src = 'category1/CS6.png' width = '70%;'></div></div>","null","neg","CS","CS","1","category1/CS6.png","","","","",""
"","html-keyboard-response","78","13262703","0.0-6.0-6.0-0.9","4omusvdetz","one_one","1","indirect_first","0","er05rt27","0","32","1","1","3","1","","0","1","0","null","","","<div class = 'row'><div class = 'column'><img src = 'uspos/7580.bmp' width = '100%;'></div><div class = 'column'><img src = 'category2/CS7.png' width = '70%;'></div></div>","null","pos","CS","CS","2","category2/CS7.png","","","","",""
"","html-keyboard-response","79","13265209","0.0-6.0-6.0-0.10","4omusvdetz","one_one","1","indirect_first","0","er05rt27","0","32","1","1","3","1","","0","1","0","null","","","<div class = 'row'><div class = 'column'><img src = 'usneg/9635.2.bmp' width = '100%;'></div><div class = 'column'><img src = 'category3/CS6.png' width = '70%;'></div></div>","null","neg","CS","CS","3","category3/CS6.png","","","","",""
"","html-keyboard-response","80","13267712","0.0-6.0-6.0-0.11","4omusvdetz","one_one","1","indirect_first","0","er05rt27","0","32","1","1","3","1","","0","1","0","null","","","<div class = 'row'><div class = 'column'><img src = 'category1/CS6.png' width = '70%;'></div><div class = 'column'><img src = 'usneg/2750.bmp' width = '100%;'></div></div>","null","neg","CS","CS","1","category1/CS6.png","","","","",""
"","html-keyboard-response","81","13270215","0.0-6.0-6.0-0.12","4omusvdetz","one_one","1","indirect_first","0","er05rt27","0","32","1","1","3","1","","0","1","0","null","","","<div class = 'row'><div class = 'column'><img src = 'uspos/7325.bmp' width = '100%;'></div><div class = 'column'><img src = 'category4/CS9.png' width = '70%;'></div></div>","null","pos","CS","CS","4","category4/CS9.png","","","","",""
"","html-keyboard-response","82","13272720","0.0-6.0-6.0-0.13","4omusvdetz","one_one","1","indirect_first","0","er05rt27","0","32","1","1","3","1","","0","1","0","null","","","<div class = 'row'><div class = 'column'><img src = 'uspos/7580.bmp' width = '100%;'></div><div class = 'column'><img src = 'category2/CS7.png' width = '70%;'></div></div>","null","pos","CS","CS","2","category2/CS7.png","","","","",""
"","html-keyboard-response","83","13275224","0.0-6.0-6.0-0.14","4omusvdetz","one_one","1","indirect_first","0","er05rt27","0","32","1","1","3","1","","0","1","0","null","","","<div class = 'row'><div class = 'column'><img src = 'category3/CS6.png' width = '70%;'></div><div class = 'column'><img src = 'usneg/9635.2.bmp' width = '100%;'></div></div>","null","neg","CS","CS","3","category3/CS6.png","","","","",""
"","html-keyboard-response","84","13277727","0.0-6.0-6.0-0.15","4omusvdetz","one_one","1","indirect_first","0","er05rt27","0","32","1","1","3","1","","0","1","0","null","","","<div class = 'row'><div class = 'column'><img src = 'uspos/7580.bmp' width = '100%;'></div><div class = 'column'><img src = 'category2/CS7.png' width = '70%;'></div></div>","null","pos","CS","CS","2","category2/CS7.png","","","","",""
"","html-keyboard-response","85","13280231","0.0-6.0-6.0-0.16","4omusvdetz","one_one","1","indirect_first","0","er05rt27","0","32","1","1","3","1","","0","1","0","null","","","<div class = 'row'><div class = 'column'><img src = 'category1/CS6.png' width = '70%;'></div><div class = 'column'><img src = 'usneg/2750.bmp' width = '100%;'></div></div>","null","neg","CS","CS","1","category1/CS6.png","","","","",""
"","html-keyboard-response","86","13282736","0.0-6.0-6.0-0.17","4omusvdetz","one_one","1","indirect_first","0","er05rt27","0","32","1","1","3","1","","0","1","0","null","","","<div class = 'row'><div class = 'column'><img src = 'category4/CS9.png' width = '70%;'></div><div class = 'column'><img src = 'uspos/7325.bmp' width = '100%;'></div></div>","null","pos","CS","CS","4","category4/CS9.png","","","","",""
"","html-keyboard-response","87","13285240","0.0-6.0-6.0-0.18","4omusvdetz","one_one","1","indirect_first","0","er05rt27","0","32","1","1","3","1","","0","1","0","null","","","<div class = 'row'><div class = 'column'><img src = 'category3/CS6.png' width = '70%;'></div><div class = 'column'><img src = 'usneg/9635.2.bmp' width = '100%;'></div></div>","null","neg","CS","CS","3","category3/CS6.png","","","","",""
"","html-keyboard-response","88","13287746","0.0-6.0-6.0-0.19","4omusvdetz","one_one","1","indirect_first","0","er05rt27","0","32","1","1","3","1","","0","1","0","null","","","<div class = 'row'><div class = 'column'><img src = 'uspos/7580.bmp' width = '100%;'></div><div class = 'column'><img src = 'category2/CS7.png' width = '70%;'></div></div>","null","pos","CS","CS","2","category2/CS7.png","","","","",""
"","html-keyboard-response","89","13316733","0.0-7.0","4omusvdetz","one_one","1","indirect_first","0","er05rt27","0","32","1","1","3","1","","0","1","0","28482.474999967963","","","<p>Sie sehen nun die chinesischen Zeichen nur ganz kurz. Danach sehen Sie die jeweilige Aussprache der Zeichen als Silbe auf dem Bildschrim. Ihre Aufgabe ist es, für jede Silbe anzugeben, ob diese etwas angenehmes, oder unangenehmes bedeuten könnte. Verlassen Sie sich hier vor allem auf Ihre Intuition.<br><br>Die Zeichen werden nur zur Orientierung dargestellt, beachten Sie sie deshalb nicht. Konzentrieren Sie sich vor allem auf die Silben. <br>Reagieren Sie mit folgenden zwei Tasten: <br><br><b>'D' </b> wenn die Silbe etwas <b>unangenehmes</b> bedeuten könnte. <br><b>'K'</b> wenn die Silbe etwas <b>angenehmes</b> bedeuten könnte. <br><br>Bitte legen Sie nun den Zeigefinger der linken Hand auf die Taste 'D' und den Zeigefinger der rechten Hand auf die Taste 'K'. <br>Reagieren Sie auf jede Silbe so schnell wie möglich. Uns interessiert Ihre spontane Reaktion. <br> <br> <br>Drücken Sie 'D' oder 'K', um die nächste Aufgabe zu starten. </p>","68","","","","","","","","","",""
"","html-keyboard-response","90","13319734","0.0-8.0-0.0","4omusvdetz","one_one","1","indirect_first","0","er05rt27","0","32","1","1","3","1","","0","1","0","null","","","<div style=""font-size:60px;"">+</div>","null","","","","","","","","","",""
"","html-keyboard-response","91","13319827","0.0-8.0-1.0","4omusvdetz","one_one","1","indirect_first","0","er05rt27","0","32","1","1","3","1","","0","1","0","null","","","<img src = 'category3/CS8.png' width = '100%;'>","null","","","","","","","","","",""
"","html-keyboard-response","92","13320081","0.0-8.0-2.0","4omusvdetz","one_one","1","indirect_first","0","er05rt27","0","32","1","1","3","1","","0","1","0","null","","","<img src = 'targets/22.png' width = '100%;'>","null","","","","","","","","","",""
"","html-keyboard-response","93","13339849","0.0-8.0-3.0","4omusvdetz","one_one","1","indirect_first","0","er05rt27","0","32","1","1","3","1","","0","1","0","19766.375000122935","","","<img src = 'targets/mask.png' width = '100%;'>","75","neg","GS","GSold","3","category3/CS8.png","targets/22.png","1","indirect","0",""
"","html-keyboard-response","94","13341352","0.0-8.0-0.1","4omusvdetz","one_one","1","indirect_first","0","er05rt27","0","32","1","1","3","1","","0","1","0","null","","","<div style=""font-size:60px;"">+</div>","null","","","","","","","","","",""
"","html-keyboard-response","95","13341445","0.0-8.0-1.1","4omusvdetz","one_one","1","indirect_first","0","er05rt27","0","32","1","1","3","1","","0","1","0","null","","","<img src = 'category1/CS6.png' width = '100%;'>","null","","","","","","","","","",""
"","html-keyboard-response","96","13341699","0.0-8.0-2.1","4omusvdetz","one_one","1","indirect_first","0","er05rt27","0","32","1","1","3","1","","0","1","0","null","","","<img src = 'targets/41.png' width = '100%;'>","null","","","","","","","","","",""
"","html-keyboard-response","97","13345487","0.0-8.0-3.1","4omusvdetz","one_one","1","indirect_first","0","er05rt27","0","32","1","1","3","1","","0","1","0","3786.904999986291","","","<img src = 'targets/mask.png' width = '100%;'>","75","neg","CS","CS","1","category1/CS6.png","targets/41.png","1","indirect","1",""
"","html-keyboard-response","98","13346989","0.0-8.0-0.2","4omusvdetz","one_one","1","indirect_first","0","er05rt27","0","32","1","1","3","1","","0","1","0","null","","","<div style=""font-size:60px;"">+</div>","null","","","","","","","","","",""
"","html-keyboard-response","99","13347081","0.0-8.0-1.2","4omusvdetz","one_one","1","indirect_first","0","er05rt27","0","32","1","1","3","1","","0","1","0","null","","","<img src = 'category4/CS9.png' width = '100%;'>","null","","","","","","","","","",""
"","html-keyboard-response","100","13347333","0.0-8.0-2.2","4omusvdetz","one_one","1","indirect_first","0","er05rt27","0","32","1","1","3","1","","0","1","0","null","","","<img src = 'targets/5.png' width = '100%;'>","null","","","","","","","","","",""
"","html-keyboard-response","101","13348555","0.0-8.0-3.2","4omusvdetz","one_one","1","indirect_first","0","er05rt27","0","32","1","1","3","1","","0","1","0","1219.0650003030896","","","<img src = 'targets/mask.png' width = '100%;'>","75","pos","CS","CS","4","category4/CS9.png","targets/5.png","1","indirect","2",""
"","html-keyboard-response","102","13350058","0.0-8.0-0.3","4omusvdetz","one_one","1","indirect_first","0","er05rt27","0","32","1","1","3","1","","0","1","0","null","","","<div style=""font-size:60px;"">+</div>","null","","","","","","","","","",""
"","html-keyboard-response","103","13350150","0.0-8.0-1.3","4omusvdetz","one_one","1","indirect_first","0","er05rt27","0","32","1","1","3","1","","0","1","0","null","","","<img src = 'category2/CS8.png' width = '100%;'>","null","","","","","","","","","",""
"","html-keyboard-response","104","13350402","0.0-8.0-2.3","4omusvdetz","one_one","1","indirect_first","0","er05rt27","0","32","1","1","3","1","","0","1","0","null","","","<img src = 'targets/21.png' width = '100%;'>","null","","","","","","","","","",""
"","html-keyboard-response","105","13352884","0.0-8.0-3.3","4omusvdetz","one_one","1","indirect_first","0","er05rt27","0","32","1","1","3","1","","0","1","0","2478.5200003534555","","","<img src = 'targets/mask.png' width = '100%;'>","75","pos","GS","GSold","2","category2/CS8.png","targets/21.png","1","indirect","3",""
"","html-keyboard-response","106","13354385","0.0-8.0-0.4","4omusvdetz","one_one","1","indirect_first","0","er05rt27","0","32","1","1","3","1","","0","1","0","null","","","<div style=""font-size:60px;"">+</div>","null","","","","","","","","","",""
"","html-keyboard-response","107","13354478","0.0-8.0-1.4","4omusvdetz","one_one","1","indirect_first","0","er05rt27","0","32","1","1","3","1","","0","1","0","null","","","<img src = 'category2/CS2.png' width = '100%;'>","null","","","","","","","","","",""
"","html-keyboard-response","108","13354731","0.0-8.0-2.4","4omusvdetz","one_one","1","indirect_first","0","er05rt27","0","32","1","1","3","1","","0","1","0","null","","","<img src = 'targets/8.png' width = '100%;'>","null","","","","","","","","","",""
"","html-keyboard-response","109","13359150","0.0-8.0-3.4","4omusvdetz","one_one","1","indirect_first","0","er05rt27","0","32","1","1","3","1","","0","1","0","4416.830000001937","","","<img src = 'targets/mask.png' width = '100%;'>","75","pos","GS","GSold","2","category2/CS2.png","targets/8.png","1","indirect","4",""
"","html-keyboard-response","110","13360652","0.0-8.0-0.5","4omusvdetz","one_one","1","indirect_first","0","er05rt27","0","32","1","1","3","1","","0","1","0","null","","","<div style=""font-size:60px;"">+</div>","null","","","","","","","","","",""
"","html-keyboard-response","111","13360744","0.0-8.0-1.5","4omusvdetz","one_one","1","indirect_first","0","er05rt27","0","32","1","1","3","1","","0","1","0","null","","","<img src = 'category3/CS2.png' width = '100%;'>","null","","","","","","","","","",""
"","html-keyboard-response","112","13360997","0.0-8.0-2.5","4omusvdetz","one_one","1","indirect_first","0","er05rt27","0","32","1","1","3","1","","0","1","0","null","","","<img src = 'targets/29.png' width = '100%;'>","null","","","","","","","","","",""
"","html-keyboard-response","113","13362049","0.0-8.0-3.5","4omusvdetz","one_one","1","indirect_first","0","er05rt27","0","32","1","1","3","1","","0","1","0","1050.060000270605","","","<img src = 'targets/mask.png' width = '100%;'>","75","neg","GS","GSold","3","category3/CS2.png","targets/29.png","1","indirect","5",""
"","html-keyboard-response","114","13363551","0.0-8.0-0.6","4omusvdetz","one_one","1","indirect_first","0","er05rt27","0","32","1","1","3","1","","0","1","0","null","","","<div style=""font-size:60px;"">+</div>","null","","","","","","","","","",""
"","html-keyboard-response","115","13363643","0.0-8.0-1.6","4omusvdetz","one_one","1","indirect_first","0","er05rt27","0","32","1","1","3","1","","0","1","0","null","","","<img src = 'category4/CS7.png' width = '100%;'>","null","","","","","","","","","",""
"","html-keyboard-response","116","13363897","0.0-8.0-2.6","4omusvdetz","one_one","1","indirect_first","0","er05rt27","0","32","1","1","3","1","","0","1","0","null","","","<img src = 'targets/48.png' width = '100%;'>","null","","","","","","","","","",""
"","html-keyboard-response","117","13370004","0.0-8.0-3.6","4omusvdetz","one_one","1","indirect_first","0","er05rt27","0","32","1","1","3","1","","0","1","0","6106.329999864101","","","<img src = 'targets/mask.png' width = '100%;'>","75","pos","GS","GSold","4","category4/CS7.png","targets/48.png","1","indirect","6",""
"","html-keyboard-response","118","13371506","0.0-8.0-0.7","4omusvdetz","one_one","1","indirect_first","0","er05rt27","0","32","1","1","3","1","","0","1","0","null","","","<div style=""font-size:60px;"">+</div>","null","","","","","","","","","",""
"","html-keyboard-response","119","13371603","0.0-8.0-1.7","4omusvdetz","one_one","1","indirect_first","0","er05rt27","0","32","1","1","3","1","","0","1","0","null","","","<img src = 'category1/CS4.png' width = '100%;'>","null","","","","","","","","","",""
"","html-keyboard-response","120","13371857","0.0-8.0-2.7","4omusvdetz","one_one","1","indirect_first","0","er05rt27","0","32","1","1","3","1","","0","1","0","null","","","<img src = 'targets/42.png' width = '100%;'>","null","","","","","","","","","",""
"","html-keyboard-response","121","13373547","0.0-8.0-3.7","4omusvdetz","one_one","1","indirect_first","0","er05rt27","0","32","1","1","3","1","","0","1","0","1688.1699999794364","","","<img src = 'targets/mask.png' width = '100%;'>","68","neg","GS","GSold","1","category1/CS4.png","targets/42.png","0","indirect","7",""
"","html-keyboard-response","122","13375049","0.0-8.0-0.8","4omusvdetz","one_one","1","indirect_first","0","er05rt27","0","32","1","1","3","1","","0","1","0","null","","","<div style=""font-size:60px;"">+</div>","null","","","","","","","","","",""
"","html-keyboard-response","123","13375141","0.0-8.0-1.8","4omusvdetz","one_one","1","indirect_first","0","er05rt27","0","32","1","1","3","1","","0","1","0","null","","","<img src = 'category3/CS3.png' width = '100%;'>","null","","","","","","","","","",""
"","html-keyboard-response","124","13375395","0.0-8.0-2.8","4omusvdetz","one_one","1","indirect_first","0","er05rt27","0","32","1","1","3","1","","0","1","0","null","","","<img src = 'targets/20.png' width = '100%;'>","null","","","","","","","","","",""
"","html-keyboard-response","125","13376763","0.0-8.0-3.8","4omusvdetz","one_one","1","indirect_first","0","er05rt27","0","32","1","1","3","1","","0","1","0","1366.55000038445","","","<img src = 'targets/mask.png' width = '100%;'>","75","neg","GS","GSold","3","category3/CS3.png","targets/20.png","1","indirect","8",""
"","html-keyboard-response","126","13378265","0.0-8.0-0.9","4omusvdetz","one_one","1","indirect_first","0","er05rt27","0","32","1","1","3","1","","0","1","0","null","","","<div style=""font-size:60px;"">+</div>","null","","","","","","","","","",""
"","html-keyboard-response","127","13378358","0.0-8.0-1.9","4omusvdetz","one_one","1","indirect_first","0","er05rt27","0","32","1","1","3","1","","0","1","0","null","","","<img src = 'category4/CS1.png' width = '100%;'>","null","","","","","","","","","",""
"","html-keyboard-response","128","13378612","0.0-8.0-2.9","4omusvdetz","one_one","1","indirect_first","0","er05rt27","0","32","1","1","3","1","","0","1","0","null","","","<img src = 'targets/4.png' width = '100%;'>","null","","","","","","","","","",""
"","html-keyboard-response","129","13379602","0.0-8.0-3.9","4omusvdetz","one_one","1","indirect_first","0","er05rt27","0","32","1","1","3","1","","0","1","0","988.429999910295","","","<img src = 'targets/mask.png' width = '100%;'>","75","pos","GS","GSold","4","category4/CS1.png","targets/4.png","1","indirect","9",""
"","html-keyboard-response","130","13381105","0.0-8.0-0.10","4omusvdetz","one_one","1","indirect_first","0","er05rt27","0","32","1","1","3","1","","0","1","0","null","","","<div style=""font-size:60px;"">+</div>","null","","","","","","","","","",""
"","html-keyboard-response","131","13381197","0.0-8.0-1.10","4omusvdetz","one_one","1","indirect_first","0","er05rt27","0","32","1","1","3","1","","0","1","0","null","","","<img src = 'category2/CS10.png' width = '100%;'>","null","","","","","","","","","",""
"","html-keyboard-response","132","13381450","0.0-8.0-2.10","4omusvdetz","one_one","1","indirect_first","0","er05rt27","0","32","1","1","3","1","","0","1","0","null","","","<img src = 'targets/17.png' width = '100%;'>","null","","","","","","","","","",""
"","html-keyboard-response","133","13382954","0.0-8.0-3.10","4omusvdetz","one_one","1","indirect_first","0","er05rt27","0","32","1","1","3","1","","0","1","0","1502.7250000275671","","","<img src = 'targets/mask.png' width = '100%;'>","68","pos","GS","GSold","2","category2/CS10.png","targets/17.png","0","indirect","10",""
"","html-keyboard-response","134","13384457","0.0-8.0-0.11","4omusvdetz","one_one","1","indirect_first","0","er05rt27","0","32","1","1","3","1","","0","1","0","null","","","<div style=""font-size:60px;"">+</div>","null","","","","","","","","","",""
"","html-keyboard-response","135","13384548","0.0-8.0-1.11","4omusvdetz","one_one","1","indirect_first","0","er05rt27","0","32","1","1","3","1","","0","1","0","null","","","<img src = 'category2/CS7.png' width = '100%;'>","null","","","","","","","","","",""
"","html-keyboard-response","136","13384802","0.0-8.0-2.11","4omusvdetz","one_one","1","indirect_first","0","er05rt27","0","32","1","1","3","1","","0","1","0","null","","","<img src = 'targets/36.png' width = '100%;'>","null","","","","","","","","","",""
"","html-keyboard-response","137","13386978","0.0-8.0-3.11","4omusvdetz","one_one","1","indirect_first","0","er05rt27","0","32","1","1","3","1","","0","1","0","2175.059999804944","","","<img src = 'targets/mask.png' width = '100%;'>","75","pos","CS","CS","2","category2/CS7.png","targets/36.png","1","indirect","11",""
"","html-keyboard-response","138","13388482","0.0-8.0-0.12","4omusvdetz","one_one","1","indirect_first","0","er05rt27","0","32","1","1","3","1","","0","1","0","null","","","<div style=""font-size:60px;"">+</div>","null","","","","","","","","","",""
"","html-keyboard-response","139","13388574","0.0-8.0-1.12","4omusvdetz","one_one","1","indirect_first","0","er05rt27","0","32","1","1","3","1","","0","1","0","null","","","<img src = 'category1/CS2.png' width = '100%;'>","null","","","","","","","","","",""
"","html-keyboard-response","140","13388828","0.0-8.0-2.12","4omusvdetz","one_one","1","indirect_first","0","er05rt27","0","32","1","1","3","1","","0","1","0","null","","","<img src = 'targets/12.png' width = '100%;'>","null","","","","","","","","","",""
"","html-keyboard-response","141","13390501","0.0-8.0-3.12","4omusvdetz","one_one","1","indirect_first","0","er05rt27","0","32","1","1","3","1","","0","1","0","1672.0849997363985","","","<img src = 'targets/mask.png' width = '100%;'>","75","neg","GS","GSold","1","category1/CS2.png","targets/12.png","1","indirect","12",""
"","html-keyboard-response","142","13392004","0.0-8.0-0.13","4omusvdetz","one_one","1","indirect_first","0","er05rt27","0","32","1","1","3","1","","0","1","0","null","","","<div style=""font-size:60px;"">+</div>","null","","","","","","","","","",""
"","html-keyboard-response","143","13392096","0.0-8.0-1.13","4omusvdetz","one_one","1","indirect_first","0","er05rt27","0","32","1","1","3","1","","0","1","0","null","","","<img src = 'category4/CS3.png' width = '100%;'>","null","","","","","","","","","",""
"","html-keyboard-response","144","13392348","0.0-8.0-2.13","4omusvdetz","one_one","1","indirect_first","0","er05rt27","0","32","1","1","3","1","","0","1","0","null","","","<img src = 'targets/35.png' width = '100%;'>","null","","","","","","","","","",""
"","html-keyboard-response","145","13393110","0.0-8.0-3.13","4omusvdetz","one_one","1","indirect_first","0","er05rt27","0","32","1","1","3","1","","0","1","0","759.1550000943244","","","<img src = 'targets/mask.png' width = '100%;'>","75","pos","GS","GSold","4","category4/CS3.png","targets/35.png","1","indirect","13",""
"","html-keyboard-response","146","13394612","0.0-8.0-0.14","4omusvdetz","one_one","1","indirect_first","0","er05rt27","0","32","1","1","3","1","","0","1","0","null","","","<div style=""font-size:60px;"">+</div>","null","","","","","","","","","",""
"","html-keyboard-response","147","13394704","0.0-8.0-1.14","4omusvdetz","one_one","1","indirect_first","0","er05rt27","0","32","1","1","3","1","","0","1","0","null","","","<img src = 'category3/CS6.png' width = '100%;'>","null","","","","","","","","","",""
"","html-keyboard-response","148","13394958","0.0-8.0-2.14","4omusvdetz","one_one","1","indirect_first","0","er05rt27","0","32","1","1","3","1","","0","1","0","null","","","<img src = 'targets/13.png' width = '100%;'>","null","","","","","","","","","",""
"","html-keyboard-response","149","13396537","0.0-8.0-3.14","4omusvdetz","one_one","1","indirect_first","0","er05rt27","0","32","1","1","3","1","","0","1","0","1577.78500020504","","","<img src = 'targets/mask.png' width = '100%;'>","75","neg","CS","CS","3","category3/CS6.png","targets/13.png","1","indirect","14",""
"","html-keyboard-response","150","13398041","0.0-8.0-0.15","4omusvdetz","one_one","1","indirect_first","0","er05rt27","0","32","1","1","3","1","","0","1","0","null","","","<div style=""font-size:60px;"">+</div>","null","","","","","","","","","",""
"","html-keyboard-response","151","13398139","0.0-8.0-1.15","4omusvdetz","one_one","1","indirect_first","0","er05rt27","0","32","1","1","3","1","","0","1","0","null","","","<img src = 'category1/CS10.png' width = '100%;'>","null","","","","","","","","","",""
"","html-keyboard-response","152","13398392","0.0-8.0-2.15","4omusvdetz","one_one","1","indirect_first","0","er05rt27","0","32","1","1","3","1","","0","1","0","null","","","<img src = 'targets/45.png' width = '100%;'>","null","","","","","","","","","",""
"","html-keyboard-response","153","13399844","0.0-8.0-3.15","4omusvdetz","one_one","1","indirect_first","0","er05rt27","0","32","1","1","3","1","","0","1","0","1450.4200001247227","","","<img src = 'targets/mask.png' width = '100%;'>","75","neg","GS","GSold","1","category1/CS10.png","targets/45.png","1","indirect","15",""
"","survey-html-form","154","13404743","0.0-9.0","4omusvdetz","one_one","1","indirect_first","0","er05rt27","0","32","1","1","3","1","","0","1","0","4395.7050000317395","","{}","","","","","","","","","","","",""
"","html-keyboard-response","155","13407746","0.0-10.0-0.0","4omusvdetz","one_one","1","indirect_first","0","er05rt27","0","32","1","1","3","1","","0","1","0","null","","","<div style=""font-size:60px;"">+</div>","null","","","","","","","","","",""
"","html-keyboard-response","156","13407839","0.0-10.0-1.0","4omusvdetz","one_one","1","indirect_first","0","er05rt27","0","32","1","1","3","1","","0","1","0","null","","","<img src = 'category2/GS3.png' width = '100%;'>","null","","","","","","","","","",""
"","html-keyboard-response","157","13408093","0.0-10.0-2.0","4omusvdetz","one_one","1","indirect_first","0","er05rt27","0","32","1","1","3","1","","0","1","0","null","","","<img src = 'targets/16.png' width = '100%;'>","null","","","","","","","","","",""
"","html-keyboard-response","158","13409278","0.0-10.0-3.0","4omusvdetz","one_one","1","indirect_first","0","er05rt27","0","32","1","1","3","1","","0","1","0","1184.3349998816848","","","<img src = 'targets/mask.png' width = '100%;'>","68","pos","GS","GSnew","2","category2/GS3.png","targets/16.png","0","indirect","16",""
"","html-keyboard-response","159","13410781","0.0-10.0-0.1","4omusvdetz","one_one","1","indirect_first","0","er05rt27","0","32","1","1","3","1","","0","1","0","null","","","<div style=""font-size:60px;"">+</div>","null","","","","","","","","","",""
"","html-keyboard-response","160","13410883","0.0-10.0-1.1","4omusvdetz","one_one","1","indirect_first","0","er05rt27","0","32","1","1","3","1","","0","1","0","null","","","<img src = 'category1/GS3.png' width = '100%;'>","null","","","","","","","","","",""
"","html-keyboard-response","161","13411134","0.0-10.0-2.1","4omusvdetz","one_one","1","indirect_first","0","er05rt27","0","32","1","1","3","1","","0","1","0","null","","","<img src = 'targets/1.png' width = '100%;'>","null","","","","","","","","","",""
"","html-keyboard-response","162","13411916","0.0-10.0-3.1","4omusvdetz","one_one","1","indirect_first","0","er05rt27","0","32","1","1","3","1","","0","1","0","781.3249998725951","","","<img src = 'targets/mask.png' width = '100%;'>","75","neg","GS","GSnew","1","category1/GS3.png","targets/1.png","1","indirect","17",""
"","html-keyboard-response","163","13413419","0.0-10.0-0.2","4omusvdetz","one_one","1","indirect_first","0","er05rt27","0","32","1","1","3","1","","0","1","0","null","","","<div style=""font-size:60px;"">+</div>","null","","","","","","","","","",""
"","html-keyboard-response","164","13413512","0.0-10.0-1.2","4omusvdetz","one_one","1","indirect_first","0","er05rt27","0","32","1","1","3","1","","0","1","0","null","","","<img src = 'category3/GS3.png' width = '100%;'>","null","","","","","","","","","",""
"","html-keyboard-response","165","13413766","0.0-10.0-2.2","4omusvdetz","one_one","1","indirect_first","0","er05rt27","0","32","1","1","3","1","","0","1","0","null","","","<img src = 'targets/14.png' width = '100%;'>","null","","","","","","","","","",""
"","html-keyboard-response","166","13415102","0.0-10.0-3.2","4omusvdetz","one_one","1","indirect_first","0","er05rt27","0","32","1","1","3","1","","0","1","0","1335.8149998821318","","","<img src = 'targets/mask.png' width = '100%;'>","75","neg","GS","GSnew","3","category3/GS3.png","targets/14.png","1","indirect","18",""
"","html-keyboard-response","167","13416606","0.0-10.0-0.3","4omusvdetz","one_one","1","indirect_first","0","er05rt27","0","32","1","1","3","1","","0","1","0","null","","","<div style=""font-size:60px;"">+</div>","null","","","","","","","","","",""
"","html-keyboard-response","168","13416698","0.0-10.0-1.3","4omusvdetz","one_one","1","indirect_first","0","er05rt27","0","32","1","1","3","1","","0","1","0","null","","","<img src = 'category2/GS1.png' width = '100%;'>","null","","","","","","","","","",""
"","html-keyboard-response","169","13416950","0.0-10.0-2.3","4omusvdetz","one_one","1","indirect_first","0","er05rt27","0","32","1","1","3","1","","0","1","0","null","","","<img src = 'targets/46.png' width = '100%;'>","null","","","","","","","","","",""
"","html-keyboard-response","170","13417569","0.0-10.0-3.3","4omusvdetz","one_one","1","indirect_first","0","er05rt27","0","32","1","1","3","1","","0","1","0","617.7349998615682","","","<img src = 'targets/mask.png' width = '100%;'>","75","pos","GS","GSnew","2","category2/GS1.png","targets/46.png","1","indirect","19",""
"","html-keyboard-response","171","13419071","0.0-10.0-0.4","4omusvdetz","one_one","1","indirect_first","0","er05rt27","0","32","1","1","3","1","","0","1","0","null","","","<div style=""font-size:60px;"">+</div>","null","","","","","","","","","",""
"","html-keyboard-response","172","13419163","0.0-10.0-1.4","4omusvdetz","one_one","1","indirect_first","0","er05rt27","0","32","1","1","3","1","","0","1","0","null","","","<img src = 'category4/GS2.png' width = '100%;'>","null","","","","","","","","","",""
"","html-keyboard-response","173","13419417","0.0-10.0-2.4","4omusvdetz","one_one","1","indirect_first","0","er05rt27","0","32","1","1","3","1","","0","1","0","null","","","<img src = 'targets/38.png' width = '100%;'>","null","","","","","","","","","",""
"","html-keyboard-response","174","13420047","0.0-10.0-3.4","4omusvdetz","one_one","1","indirect_first","0","er05rt27","0","32","1","1","3","1","","0","1","0","626.5099998563528","","","<img src = 'targets/mask.png' width = '100%;'>","75","pos","GS","GSnew","4","category4/GS2.png","targets/38.png","1","indirect","20",""
"","html-keyboard-response","175","13421550","0.0-10.0-0.5","4omusvdetz","one_one","1","indirect_first","0","er05rt27","0","32","1","1","3","1","","0","1","0","null","","","<div style=""font-size:60px;"">+</div>","null","","","","","","","","","",""
"","html-keyboard-response","176","13421643","0.0-10.0-1.5","4omusvdetz","one_one","1","indirect_first","0","er05rt27","0","32","1","1","3","1","","0","1","0","null","","","<img src = 'category3/GS2.png' width = '100%;'>","null","","","","","","","","","",""
"","html-keyboard-response","177","13421896","0.0-10.0-2.5","4omusvdetz","one_one","1","indirect_first","0","er05rt27","0","32","1","1","3","1","","0","1","0","null","","","<img src = 'targets/47.png' width = '100%;'>","null","","","","","","","","","",""
"","html-keyboard-response","178","13422449","0.0-10.0-3.5","4omusvdetz","one_one","1","indirect_first","0","er05rt27","0","32","1","1","3","1","","0","1","0","551.8499999307096","","","<img src = 'targets/mask.png' width = '100%;'>","75","neg","GS","GSnew","3","category3/GS2.png","targets/47.png","1","indirect","21",""
"","html-keyboard-response","179","13423952","0.0-10.0-0.6","4omusvdetz","one_one","1","indirect_first","0","er05rt27","0","32","1","1","3","1","","0","1","0","null","","","<div style=""font-size:60px;"">+</div>","null","","","","","","","","","",""
"","html-keyboard-response","180","13424043","0.0-10.0-1.6","4omusvdetz","one_one","1","indirect_first","0","er05rt27","0","32","1","1","3","1","","0","1","0","null","","","<img src = 'category2/men.png' width = '100%;'>","null","","","","","","","","","",""
"","html-keyboard-response","181","13424295","0.0-10.0-2.6","4omusvdetz","one_one","1","indirect_first","0","er05rt27","0","32","1","1","3","1","","0","1","0","null","","","<img src = 'targets/3.png' width = '100%;'>","null","","","","","","","","","",""
"","html-keyboard-response","182","13426012","0.0-10.0-3.6","4omusvdetz","one_one","1","indirect_first","0","er05rt27","0","32","1","1","3","1","","0","1","0","1714.7250003181398","","","<img src = 'targets/mask.png' width = '100%;'>","75","pos","GS","abstract","2","category2/men.png","targets/3.png","1","indirect","22",""
"","html-keyboard-response","183","13427515","0.0-10.0-0.7","4omusvdetz","one_one","1","indirect_first","0","er05rt27","0","32","1","1","3","1","","0","1","0","null","","","<div style=""font-size:60px;"">+</div>","null","","","","","","","","","",""
"","html-keyboard-response","184","13427607","0.0-10.0-1.7","4omusvdetz","one_one","1","indirect_first","0","er05rt27","0","32","1","1","3","1","","0","1","0","null","","","<img src = 'category3/wang.png' width = '100%;'>","null","","","","","","","","","",""
"","html-keyboard-response","185","13427859","0.0-10.0-2.7","4omusvdetz","one_one","1","indirect_first","0","er05rt27","0","32","1","1","3","1","","0","1","0","null","","","<img src = 'targets/2.png' width = '100%;'>","null","","","","","","","","","",""
"","html-keyboard-response","186","13428589","0.0-10.0-3.7","4omusvdetz","one_one","1","indirect_first","0","er05rt27","0","32","1","1","3","1","","0","1","0","728.3149999566376","","","<img src = 'targets/mask.png' width = '100%;'>","75","neg","GS","abstract","3","category3/wang.png","targets/2.png","1","indirect","23",""
"","html-keyboard-response","187","13430092","0.0-10.0-0.8","4omusvdetz","one_one","1","indirect_first","0","er05rt27","0","32","1","1","3","1","","0","1","0","null","","","<div style=""font-size:60px;"">+</div>","null","","","","","","","","","",""
"","html-keyboard-response","188","13430185","0.0-10.0-1.8","4omusvdetz","one_one","1","indirect_first","0","er05rt27","0","32","1","1","3","1","","0","1","0","null","","","<img src = 'category4/GS1.png' width = '100%;'>","null","","","","","","","","","",""
"","html-keyboard-response","189","13430436","0.0-10.0-2.8","4omusvdetz","one_one","1","indirect_first","0","er05rt27","0","32","1","1","3","1","","0","1","0","null","","","<img src = 'targets/19.png' width = '100%;'>","null","","","","","","","","","",""
"","html-keyboard-response","190","13431403","0.0-10.0-3.8","4omusvdetz","one_one","1","indirect_first","0","er05rt27","0","32","1","1","3","1","","0","1","0","964.329999871552","","","<img src = 'targets/mask.png' width = '100%;'>","75","pos","GS","GSnew","4","category4/GS1.png","targets/19.png","1","indirect","24",""
"","html-keyboard-response","191","13432905","0.0-10.0-0.9","4omusvdetz","one_one","1","indirect_first","0","er05rt27","0","32","1","1","3","1","","0","1","0","null","","","<div style=""font-size:60px;"">+</div>","null","","","","","","","","","",""
"","html-keyboard-response","192","13432997","0.0-10.0-1.9","4omusvdetz","one_one","1","indirect_first","0","er05rt27","0","32","1","1","3","1","","0","1","0","null","","","<img src = 'category4/lin.png' width = '100%;'>","null","","","","","","","","","",""
"","html-keyboard-response","193","13433249","0.0-10.0-2.9","4omusvdetz","one_one","1","indirect_first","0","er05rt27","0","32","1","1","3","1","","0","1","0","null","","","<img src = 'targets/43.png' width = '100%;'>","null","","","","","","","","","",""
"","html-keyboard-response","194","13434383","0.0-10.0-3.9","4omusvdetz","one_one","1","indirect_first","0","er05rt27","0","32","1","1","3","1","","0","1","0","1132.075000088662","","","<img src = 'targets/mask.png' width = '100%;'>","68","pos","GS","abstract","4","category4/lin.png","targets/43.png","0","indirect","25",""
"","html-keyboard-response","195","13435885","0.0-10.0-0.10","4omusvdetz","one_one","1","indirect_first","0","er05rt27","0","32","1","1","3","1","","0","1","0","null","","","<div style=""font-size:60px;"">+</div>","null","","","","","","","","","",""
"","html-keyboard-response","196","13435977","0.0-10.0-1.10","4omusvdetz","one_one","1","indirect_first","0","er05rt27","0","32","1","1","3","1","","0","1","0","null","","","<img src = 'category3/GS1.png' width = '100%;'>","null","","","","","","","","","",""
"","html-keyboard-response","197","13436230","0.0-10.0-2.10","4omusvdetz","one_one","1","indirect_first","0","er05rt27","0","32","1","1","3","1","","0","1","0","null","","","<img src = 'targets/11.png' width = '100%;'>","null","","","","","","","","","",""
"","html-keyboard-response","198","13436946","0.0-10.0-3.10","4omusvdetz","one_one","1","indirect_first","0","er05rt27","0","32","1","1","3","1","","0","1","0","714.3399999476969","","","<img src = 'targets/mask.png' width = '100%;'>","75","neg","GS","GSnew","3","category3/GS1.png","targets/11.png","1","indirect","26",""
"","html-keyboard-response","199","13438448","0.0-10.0-0.11","4omusvdetz","one_one","1","indirect_first","0","er05rt27","0","32","1","1","3","1","","0","1","0","null","","","<div style=""font-size:60px;"">+</div>","null","","","","","","","","","",""
"","html-keyboard-response","200","13438540","0.0-10.0-1.11","4omusvdetz","one_one","1","indirect_first","0","er05rt27","0","32","1","1","3","1","","0","1","0","null","","","<img src = 'category1/ma.png' width = '100%;'>","null","","","","","","","","","",""
"","html-keyboard-response","201","13438793","0.0-10.0-2.11","4omusvdetz","one_one","1","indirect_first","0","er05rt27","0","32","1","1","3","1","","0","1","0","null","","","<img src = 'targets/34.png' width = '100%;'>","null","","","","","","","","","",""
"","html-keyboard-response","202","13439358","0.0-10.0-3.11","4omusvdetz","one_one","1","indirect_first","0","er05rt27","0","32","1","1","3","1","","0","1","0","563.7699998915195","","","<img src = 'targets/mask.png' width = '100%;'>","75","neg","GS","abstract","1","category1/ma.png","targets/34.png","1","indirect","27",""
"","html-keyboard-response","203","13440859","0.0-10.0-0.12","4omusvdetz","one_one","1","indirect_first","0","er05rt27","0","32","1","1","3","1","","0","1","0","null","","","<div style=""font-size:60px;"">+</div>","null","","","","","","","","","",""
"","html-keyboard-response","204","13440957","0.0-10.0-1.12","4omusvdetz","one_one","1","indirect_first","0","er05rt27","0","32","1","1","3","1","","0","1","0","null","","","<img src = 'category2/GS2.png' width = '100%;'>","null","","","","","","","","","",""
"","html-keyboard-response","205","13441210","0.0-10.0-2.12","4omusvdetz","one_one","1","indirect_first","0","er05rt27","0","32","1","1","3","1","","0","1","0","null","","","<img src = 'targets/24.png' width = '100%;'>","null","","","","","","","","","",""
"","html-keyboard-response","206","13446357","0.0-10.0-3.12","4omusvdetz","one_one","1","indirect_first","0","er05rt27","0","32","1","1","3","1","","0","1","0","5145.315000321716","","","<img src = 'targets/mask.png' width = '100%;'>","68","pos","GS","GSnew","2","category2/GS2.png","targets/24.png","0","indirect","28",""
"","html-keyboard-response","207","13447859","0.0-10.0-0.13","4omusvdetz","one_one","1","indirect_first","0","er05rt27","0","32","1","1","3","1","","0","1","0","null","","","<div style=""font-size:60px;"">+</div>","null","","","","","","","","","",""
"","html-keyboard-response","208","13447956","0.0-10.0-1.13","4omusvdetz","one_one","1","indirect_first","0","er05rt27","0","32","1","1","3","1","","0","1","0","null","","","<img src = 'category4/GS3.png' width = '100%;'>","null","","","","","","","","","",""
"","html-keyboard-response","209","13448209","0.0-10.0-2.13","4omusvdetz","one_one","1","indirect_first","0","er05rt27","0","32","1","1","3","1","","0","1","0","null","","","<img src = 'targets/10.png' width = '100%;'>","null","","","","","","","","","",""
"","html-keyboard-response","210","13448860","0.0-10.0-3.13","4omusvdetz","one_one","1","indirect_first","0","er05rt27","0","32","1","1","3","1","","0","1","0","648.6399997957051","","","<img src = 'targets/mask.png' width = '100%;'>","75","pos","GS","GSnew","4","category4/GS3.png","targets/10.png","1","indirect","29",""
"","html-keyboard-response","211","13450362","0.0-10.0-0.14","4omusvdetz","one_one","1","indirect_first","0","er05rt27","0","32","1","1","3","1","","0","1","0","null","","","<div style=""font-size:60px;"">+</div>","null","","","","","","","","","",""
"","html-keyboard-response","212","13450459","0.0-10.0-1.14","4omusvdetz","one_one","1","indirect_first","0","er05rt27","0","32","1","1","3","1","","0","1","0","null","","","<img src = 'category1/GS1.png' width = '100%;'>","null","","","","","","","","","",""
"","html-keyboard-response","213","13450711","0.0-10.0-2.14","4omusvdetz","one_one","1","indirect_first","0","er05rt27","0","32","1","1","3","1","","0","1","0","null","","","<img src = 'targets/33.png' width = '100%;'>","null","","","","","","","","","",""
"","html-keyboard-response","214","13451206","0.0-10.0-3.14","4omusvdetz","one_one","1","indirect_first","0","er05rt27","0","32","1","1","3","1","","0","1","0","493.17000014707446","","","<img src = 'targets/mask.png' width = '100%;'>","75","neg","GS","GSnew","1","category1/GS1.png","targets/33.png","1","indirect","30",""
"","html-keyboard-response","215","13452708","0.0-10.0-0.15","4omusvdetz","one_one","1","indirect_first","0","er05rt27","0","32","1","1","3","1","","0","1","0","null","","","<div style=""font-size:60px;"">+</div>","null","","","","","","","","","",""
"","html-keyboard-response","216","13452806","0.0-10.0-1.15","4omusvdetz","one_one","1","indirect_first","0","er05rt27","0","32","1","1","3","1","","0","1","0","null","","","<img src = 'category1/GS2.png' width = '100%;'>","null","","","","","","","","","",""
"","html-keyboard-response","217","13453058","0.0-10.0-2.15","4omusvdetz","one_one","1","indirect_first","0","er05rt27","0","32","1","1","3","1","","0","1","0","null","","","<img src = 'targets/27.png' width = '100%;'>","null","","","","","","","","","",""
"","html-keyboard-response","218","13453572","0.0-10.0-3.15","4omusvdetz","one_one","1","indirect_first","0","er05rt27","0","32","1","1","3","1","","0","1","0","513.0950002931058","","","<img src = 'targets/mask.png' width = '100%;'>","75","neg","GS","GSnew","1","category1/GS2.png","targets/27.png","1","indirect","31",""
"","survey-html-form","219","13464890","0.0-11.0","4omusvdetz","one_one","1","indirect_first","0","er05rt27","0","32","1","1","3","1","","0","1","0","10816.429999656975","","{}","","","","","","","","","","","",""
"","image-slider-response","220","13481528","0.0-12.0-0.0","4omusvdetz","one_one","1","indirect_first","0","er05rt27","0","32","1","1","3","1","","0","1","0","14627.28999974206","","","","","pos","GS","GSold","4","category4/CS1.png","targets/4.png","","direct","","78"
"","image-slider-response","221","13490244","0.0-12.0-0.1","4omusvdetz","one_one","1","indirect_first","0","er05rt27","0","32","1","1","3","1","","0","1","0","8714.154999703169","","","","","pos","CS","CS","2","category2/CS7.png","targets/36.png","","direct","","87"
"","image-slider-response","222","13496404","0.0-12.0-0.2","4omusvdetz","one_one","1","indirect_first","0","er05rt27","0","32","1","1","3","1","","0","1","0","6158.87500019744","","","","","pos","GS","GSnew","2","category2/GS3.png","targets/16.png","","direct","","56"
"","image-slider-response","223","13507235","0.0-12.0-0.3","4omusvdetz","one_one","1","indirect_first","0","er05rt27","0","32","1","1","3","1","","0","1","0","10828.585000243038","","","","","neg","GS","abstract","1","category1/ma.png","targets/34.png","","direct","","-22"
"","image-slider-response","224","13511953","0.0-12.0-0.4","4omusvdetz","one_one","1","indirect_first","0","er05rt27","0","32","1","1","3","1","","0","1","0","4716.9349999167025","","","","","neg","GS","GSold","3","category3/CS8.png","targets/22.png","","direct","","-13"
"","image-slider-response","225","13516726","0.0-12.0-0.5","4omusvdetz","one_one","1","indirect_first","0","er05rt27","0","32","1","1","3","1","","0","1","0","4771.315000019968","","","","","pos","GS","GSold","2","category2/CS8.png","targets/21.png","","direct","","54"
"","image-slider-response","226","13522048","0.0-12.0-0.6","4omusvdetz","one_one","1","indirect_first","0","er05rt27","0","32","1","1","3","1","","0","1","0","5319.979999680072","","","","","pos","GS","GSnew","2","category2/GS2.png","targets/24.png","","direct","","-24"
"","image-slider-response","227","13527696","0.0-12.0-0.7","4omusvdetz","one_one","1","indirect_first","0","er05rt27","0","32","1","1","3","1","","0","1","0","5646.474999841303","","","","","neg","GS","GSnew","1","category1/GS2.png","targets/27.png","","direct","","36"
"","image-slider-response","228","13534005","0.0-12.0-0.8","4omusvdetz","one_one","1","indirect_first","0","er05rt27","0","32","1","1","3","1","","0","1","0","6306.770000141114","","","","","neg","GS","GSold","1","category1/CS10.png","targets/45.png","","direct","","-62"
"","image-slider-response","229","13539600","0.0-12.0-0.9","4omusvdetz","one_one","1","indirect_first","0","er05rt27","0","32","1","1","3","1","","0","1","0","5593.319999985397","","","","","neg","GS","GSold","1","category1/CS4.png","targets/42.png","","direct","","33"
"","image-slider-response","230","13544834","0.0-12.0-0.10","4omusvdetz","one_one","1","indirect_first","0","er05rt27","0","32","1","1","3","1","","0","1","0","5231.4100000076","","","","","neg","GS","GSnew","1","category1/GS1.png","targets/33.png","","direct","","19"
"","image-slider-response","231","13553301","0.0-12.0-0.11","4omusvdetz","one_one","1","indirect_first","0","er05rt27","0","32","1","1","3","1","","0","1","0","8465.230000205338","","","","","pos","GS","abstract","4","category4/lin.png","targets/43.png","","direct","","89"
"","image-slider-response","232","13557628","0.0-12.0-0.12","4omusvdetz","one_one","1","indirect_first","0","er05rt27","0","32","1","1","3","1","","0","1","0","4325.6049999035895","","","","","pos","GS","GSold","4","category4/CS7.png","targets/48.png","","direct","","88"
"","image-slider-response","233","13562772","0.0-12.0-0.13","4omusvdetz","one_one","1","indirect_first","0","er05rt27","0","32","1","1","3","1","","0","1","0","5141.749999951571","","","","","neg","GS","GSold","1","category1/CS2.png","targets/12.png","","direct","","-30"
"","image-slider-response","234","13567751","0.0-12.0-0.14","4omusvdetz","one_one","1","indirect_first","0","er05rt27","0","32","1","1","3","1","","0","1","0","4978.029999881983","","","","","pos","GS","GSnew","4","category4/GS3.png","targets/10.png","","direct","","100"
"","image-slider-response","235","13572864","0.0-12.0-0.15","4omusvdetz","one_one","1","indirect_first","0","er05rt27","0","32","1","1","3","1","","0","1","0","5110.740000382066","","","","","neg","GS","GSnew","1","category1/GS3.png","targets/1.png","","direct","","-20"
"","image-slider-response","236","13576843","0.0-12.0-0.16","4omusvdetz","one_one","1","indirect_first","0","er05rt27","0","32","1","1","3","1","","0","1","0","3977.135000284761","","","","","pos","GS","GSnew","2","category2/GS1.png","targets/46.png","","direct","","7"
"","image-slider-response","237","13583108","0.0-12.0-0.17","4omusvdetz","one_one","1","indirect_first","0","er05rt27","0","32","1","1","3","1","","0","1","0","6262.864999938756","","","","","neg","GS","GSnew","3","category3/GS3.png","targets/14.png","","direct","","-69"
"","image-slider-response","238","13587368","0.0-12.0-0.18","4omusvdetz","one_one","1","indirect_first","0","er05rt27","0","32","1","1","3","1","","0","1","0","4258.284999988973","","","","","neg","GS","GSold","3","category3/CS2.png","targets/29.png","","direct","","-59"
"","image-slider-response","239","13592276","0.0-12.0-0.19","4omusvdetz","one_one","1","indirect_first","0","er05rt27","0","32","1","1","3","1","","0","1","0","4906.485000159591","","","","","pos","GS","GSnew","4","category4/GS1.png","targets/19.png","","direct","","100"
"","image-slider-response","240","13597947","0.0-12.0-0.20","4omusvdetz","one_one","1","indirect_first","0","er05rt27","0","32","1","1","3","1","","0","1","0","5668.560000136495","","","","","pos","GS","GSold","2","category2/CS10.png","targets/17.png","","direct","","90"
"","image-slider-response","241","13602913","0.0-12.0-0.21","4omusvdetz","one_one","1","indirect_first","0","er05rt27","0","32","1","1","3","1","","0","1","0","4964.364999905229","","","","","neg","CS","CS","1","category1/CS6.png","targets/41.png","","direct","","32"
"","image-slider-response","242","13608377","0.0-12.0-0.22","4omusvdetz","one_one","1","indirect_first","0","er05rt27","0","32","1","1","3","1","","0","1","0","5461.610000114888","","","","","neg","GS","GSold","3","category3/CS3.png","targets/20.png","","direct","","-40"
"","image-slider-response","243","13614255","0.0-12.0-0.23","4omusvdetz","one_one","1","indirect_first","0","er05rt27","0","32","1","1","3","1","","0","1","0","5876.405000220984","","","","","neg","CS","CS","3","category3/CS6.png","targets/13.png","","direct","","10"
"","image-slider-response","244","13619690","0.0-12.0-0.24","4omusvdetz","one_one","1","indirect_first","0","er05rt27","0","32","1","1","3","1","","0","1","0","5433.43500001356","","","","","neg","GS","GSnew","3","category3/GS2.png","targets/47.png","","direct","","84"
"","image-slider-response","245","13625859","0.0-12.0-0.25","4omusvdetz","one_one","1","indirect_first","0","er05rt27","0","32","1","1","3","1","","0","1","0","6167.289999779314","","","","","pos","CS","CS","4","category4/CS9.png","targets/5.png","","direct","","53"
"","image-slider-response","246","13632316","0.0-12.0-0.26","4omusvdetz","one_one","1","indirect_first","0","er05rt27","0","32","1","1","3","1","","0","1","0","6455.210000276566","","","","","neg","GS","abstract","3","category3/wang.png","targets/2.png","","direct","","-90"
"","image-slider-response","247","13636090","0.0-12.0-0.27","4omusvdetz","one_one","1","indirect_first","0","er05rt27","0","32","1","1","3","1","","0","1","0","3772.3849997855723","","","","","pos","GS","GSold","4","category4/CS3.png","targets/35.png","","direct","","11"
"","image-slider-response","248","13640439","0.0-12.0-0.28","4omusvdetz","one_one","1","indirect_first","0","er05rt27","0","32","1","1","3","1","","0","1","0","4347.045000176877","","","","","neg","GS","GSnew","3","category3/GS1.png","targets/11.png","","direct","","20"
"","image-slider-response","249","13644905","0.0-12.0-0.29","4omusvdetz","one_one","1","indirect_first","0","er05rt27","0","32","1","1","3","1","","0","1","0","4464.370000176132","","","","","pos","GS","GSnew","4","category4/GS2.png","targets/38.png","","direct","","84"
"","image-slider-response","250","13649658","0.0-12.0-0.30","4omusvdetz","one_one","1","indirect_first","0","er05rt27","0","32","1","1","3","1","","0","1","0","4751.175000332296","","","","","pos","GS","abstract","2","category2/men.png","targets/3.png","","direct","","32"
"","image-slider-response","251","13653982","0.0-12.0-0.31","4omusvdetz","one_one","1","indirect_first","0","er05rt27","0","32","1","1","3","1","","0","1","0","4321.535000111908","","","","","pos","GS","GSold","2","category2/CS2.png","targets/8.png","","direct","","58"
"","survey-html-form","252","13659175","0.0-13.0","4omusvdetz","one_one","1","indirect_first","0","er05rt27","0","32","1","1","3","1","","0","1","0","5192.280000075698","","{}","","","","","","","","","","","",""
"","image-slider-response","253","13665717","0.0-14.0-0.0","4omusvdetz","one_one","1","indirect_first","0","er05rt27","0","32","1","1","3","1","","0","1","0","5537.465000059456","","","","","pos","All","all","2","category2/men_all.png","","","all","","51"
"","image-slider-response","254","13674438","0.0-14.0-0.1","4omusvdetz","one_one","1","indirect_first","0","er05rt27","0","32","1","1","3","1","","0","1","0","8719.044999685138","","","","","neg","All","all","1","category1/ma_all.png","","","all","","-12"
"","image-slider-response","255","13678876","0.0-14.0-0.2","4omusvdetz","one_one","1","indirect_first","0","er05rt27","0","32","1","1","3","1","","0","1","0","4436.005000025034","","","","","neg","All","all","3","category3/wang_all.png","","","all","","-29"
"","image-slider-response","256","13682722","0.0-14.0-0.3","4omusvdetz","one_one","1","indirect_first","0","er05rt27","0","32","1","1","3","1","","0","1","0","3845.2200000174344","","","","","pos","All","all","4","category4/lin_all.png","","","all","","83"
"","survey-text","257","13690647","0.0-15.0","4omusvdetz","one_one","1","indirect_first","0","er05rt27","0","32","1","1","3","1","","0","1","0","7889.250000007451","","{""comment"":""""}","","","","","","","","","","","",""
"","survey-html-form","258","13704779","0.0-16.0","4omusvdetz","one_one","1","indirect_first","0","er05rt27","0","32","1","1","3","1","","0","1","0","14122.930000070482","","{""hinschauen"":""0"",""ablenkung"":""1"",""gewissenhaft"":""0""}","","","","","","","","","","","",""
