"success","trial_type","trial_index","time_elapsed","internal_node_id","subject","condition","condition_code","measure","measure_code","codeword","gender","age","education","chinese","fach","handedness","comment","hinschauen","ablenkung","gewissenhaft","rt","url","responses","stimulus","key_press","val","type","type_specific","category","cs_selected","response","target","task","indirect","nr_pres"
"true","fullscreen","0","6941","0.0-0.0","5zuvk4gozr","many_one","0","direct_first","1","ee07ar12","0","24","1","1","3","1","","0","1","0","","","","","","","","","","","","","","",""
"","external-html","1","154211","0.0-1.0","5zuvk4gozr","many_one","0","direct_first","1","ee07ar12","0","24","1","1","3","1","","0","1","0","147110.46499999793","text/information.html","","","","","","","","","","","","",""
"","external-html","2","185404","0.0-2.0","5zuvk4gozr","many_one","0","direct_first","1","ee07ar12","0","24","1","1","3","1","","0","1","0","31141.774999996414","text/consent.html","","","","","","","","","","","","",""
"","survey-html-form","3","255954","0.0-3.0","5zuvk4gozr","many_one","0","direct_first","1","ee07ar12","0","24","1","1","3","1","","0","1","0","70546.540000003","","{""codeword_enter"":""ee07ar12""}","","","","","","","","","","","",""
"","survey-html-form","4","280649","0.0-4.0","5zuvk4gozr","many_one","0","direct_first","1","ee07ar12","0","24","1","1","3","1","","0","1","0","24687.514999997802","","{""age"":""24"",""education"":""1"",""subject"":""3"",""gender"":""0"",""handedness"":""1"",""chinese"":""1""}","","","","","","","","","","","",""
"","survey-html-form","5","305757","0.0-5.0","5zuvk4gozr","many_one","0","direct_first","1","ee07ar12","0","24","1","1","3","1","","0","1","0","25105.08999999729","","{}","","","","","","","","","","","",""
"","html-keyboard-response","6","309768","0.0-6.0-0.0-0.0","5zuvk4gozr","many_one","0","direct_first","1","ee07ar12","0","24","1","1","3","1","","0","1","0","null","","","<div class = 'row'><div class = 'column'><img src = 'category4/CS9.png' width = '70%;'></div><div class = 'column'><img src = 'usneg/3181.bmp' width = '100%;'></div></div>","null","neg","CS","CS","4","category4/CS9.png","","","","",""
"","html-keyboard-response","7","312275","0.0-6.0-0.0-0.1","5zuvk4gozr","many_one","0","direct_first","1","ee07ar12","0","24","1","1","3","1","","0","1","0","null","","","<div class = 'row'><div class = 'column'><img src = 'category2/CS10.png' width = '70%;'></div><div class = 'column'><img src = 'uspos/5470.bmp' width = '100%;'></div></div>","null","pos","CS","CS","2","category2/CS10.png","","","","",""
"","html-keyboard-response","8","314783","0.0-6.0-0.0-0.2","5zuvk4gozr","many_one","0","direct_first","1","ee07ar12","0","24","1","1","3","1","","0","1","0","null","","","<div class = 'row'><div class = 'column'><img src = 'category4/CS3.png' width = '70%;'></div><div class = 'column'><img src = 'usneg/1280.bmp' width = '100%;'></div></div>","null","neg","CS","CS","4","category4/CS3.png","","","","",""
"","html-keyboard-response","9","317291","0.0-6.0-0.0-0.3","5zuvk4gozr","many_one","0","direct_first","1","ee07ar12","0","24","1","1","3","1","","0","1","0","null","","","<div class = 'row'><div class = 'column'><img src = 'usneg/9340.bmp' width = '100%;'></div><div class = 'column'><img src = 'category1/CS8.png' width = '70%;'></div></div>","null","neg","CS","CS","1","category1/CS8.png","","","","",""
"","html-keyboard-response","10","319796","0.0-6.0-0.0-0.4","5zuvk4gozr","many_one","0","direct_first","1","ee07ar12","0","24","1","1","3","1","","0","1","0","null","","","<div class = 'row'><div class = 'column'><img src = 'category1/CS10.png' width = '70%;'></div><div class = 'column'><img src = 'usneg/9561.bmp' width = '100%;'></div></div>","null","neg","CS","CS","1","category1/CS10.png","","","","",""
"","html-keyboard-response","11","322303","0.0-6.0-0.0-0.5","5zuvk4gozr","many_one","0","direct_first","1","ee07ar12","0","24","1","1","3","1","","0","1","0","null","","","<div class = 'row'><div class = 'column'><img src = 'uspos/5760.bmp' width = '100%;'></div><div class = 'column'><img src = 'category3/CS8.png' width = '70%;'></div></div>","null","pos","CS","CS","3","category3/CS8.png","","","","",""
"","html-keyboard-response","12","324808","0.0-6.0-0.0-0.6","5zuvk4gozr","many_one","0","direct_first","1","ee07ar12","0","24","1","1","3","1","","0","1","0","null","","","<div class = 'row'><div class = 'column'><img src = 'category1/CS6.png' width = '70%;'></div><div class = 'column'><img src = 'usneg/9830.bmp' width = '100%;'></div></div>","null","neg","CS","CS","1","category1/CS6.png","","","","",""
"","html-keyboard-response","13","327316","0.0-6.0-0.0-0.7","5zuvk4gozr","many_one","0","direct_first","1","ee07ar12","0","24","1","1","3","1","","0","1","0","null","","","<div class = 'row'><div class = 'column'><img src = 'uspos/5629.bmp' width = '100%;'></div><div class = 'column'><img src = 'category2/CS1.png' width = '70%;'></div></div>","null","pos","CS","CS","2","category2/CS1.png","","","","",""
"","html-keyboard-response","14","329824","0.0-6.0-0.0-0.8","5zuvk4gozr","many_one","0","direct_first","1","ee07ar12","0","24","1","1","3","1","","0","1","0","null","","","<div class = 'row'><div class = 'column'><img src = 'category2/CS5.png' width = '70%;'></div><div class = 'column'><img src = 'uspos/7580.bmp' width = '100%;'></div></div>","null","pos","CS","CS","2","category2/CS5.png","","","","",""
"","html-keyboard-response","15","332334","0.0-6.0-0.0-0.9","5zuvk4gozr","many_one","0","direct_first","1","ee07ar12","0","24","1","1","3","1","","0","1","0","null","","","<div class = 'row'><div class = 'column'><img src = 'uspos/2165.bmp' width = '100%;'></div><div class = 'column'><img src = 'category2/CS8.png' width = '70%;'></div></div>","null","pos","CS","CS","2","category2/CS8.png","","","","",""
"","html-keyboard-response","16","334839","0.0-6.0-0.0-0.10","5zuvk4gozr","many_one","0","direct_first","1","ee07ar12","0","24","1","1","3","1","","0","1","0","null","","","<div class = 'row'><div class = 'column'><img src = 'category1/CS5.png' width = '70%;'></div><div class = 'column'><img src = 'usneg/9584.bmp' width = '100%;'></div></div>","null","neg","CS","CS","1","category1/CS5.png","","","","",""
"","html-keyboard-response","17","337348","0.0-6.0-0.0-0.11","5zuvk4gozr","many_one","0","direct_first","1","ee07ar12","0","24","1","1","3","1","","0","1","0","null","","","<div class = 'row'><div class = 'column'><img src = 'uspos/8461.bmp' width = '100%;'></div><div class = 'column'><img src = 'category2/CS6.png' width = '70%;'></div></div>","null","pos","CS","CS","2","category2/CS6.png","","","","",""
"","html-keyboard-response","18","339855","0.0-6.0-0.0-0.12","5zuvk4gozr","many_one","0","direct_first","1","ee07ar12","0","24","1","1","3","1","","0","1","0","null","","","<div class = 'row'><div class = 'column'><img src = 'uspos/7325.bmp' width = '100%;'></div><div class = 'column'><img src = 'category3/CS5.png' width = '70%;'></div></div>","null","pos","CS","CS","3","category3/CS5.png","","","","",""
"","html-keyboard-response","19","342359","0.0-6.0-0.0-0.13","5zuvk4gozr","many_one","0","direct_first","1","ee07ar12","0","24","1","1","3","1","","0","1","0","null","","","<div class = 'row'><div class = 'column'><img src = 'category4/CS1.png' width = '70%;'></div><div class = 'column'><img src = 'usneg/6838.bmp' width = '100%;'></div></div>","null","neg","CS","CS","4","category4/CS1.png","","","","",""
"","html-keyboard-response","20","344867","0.0-6.0-0.0-0.14","5zuvk4gozr","many_one","0","direct_first","1","ee07ar12","0","24","1","1","3","1","","0","1","0","null","","","<div class = 'row'><div class = 'column'><img src = 'category1/CS4.png' width = '70%;'></div><div class = 'column'><img src = 'usneg/9920.bmp' width = '100%;'></div></div>","null","neg","CS","CS","1","category1/CS4.png","","","","",""
"","html-keyboard-response","21","347374","0.0-6.0-0.0-0.15","5zuvk4gozr","many_one","0","direct_first","1","ee07ar12","0","24","1","1","3","1","","0","1","0","null","","","<div class = 'row'><div class = 'column'><img src = 'uspos/2341.bmp' width = '100%;'></div><div class = 'column'><img src = 'category3/CS2.png' width = '70%;'></div></div>","null","pos","CS","CS","3","category3/CS2.png","","","","",""
"","html-keyboard-response","22","349886","0.0-6.0-0.0-0.16","5zuvk4gozr","many_one","0","direct_first","1","ee07ar12","0","24","1","1","3","1","","0","1","0","null","","","<div class = 'row'><div class = 'column'><img src = 'category3/CS7.png' width = '70%;'></div><div class = 'column'><img src = 'uspos/5621.bmp' width = '100%;'></div></div>","null","pos","CS","CS","3","category3/CS7.png","","","","",""
"","html-keyboard-response","23","352392","0.0-6.0-0.0-0.17","5zuvk4gozr","many_one","0","direct_first","1","ee07ar12","0","24","1","1","3","1","","0","1","0","null","","","<div class = 'row'><div class = 'column'><img src = 'category4/CS2.png' width = '70%;'></div><div class = 'column'><img src = 'usneg/7380.bmp' width = '100%;'></div></div>","null","neg","CS","CS","4","category4/CS2.png","","","","",""
"","html-keyboard-response","24","354898","0.0-6.0-0.0-0.18","5zuvk4gozr","many_one","0","direct_first","1","ee07ar12","0","24","1","1","3","1","","0","1","0","null","","","<div class = 'row'><div class = 'column'><img src = 'usneg/3300.bmp' width = '100%;'></div><div class = 'column'><img src = 'category4/CS10.png' width = '70%;'></div></div>","null","neg","CS","CS","4","category4/CS10.png","","","","",""
"","html-keyboard-response","25","357405","0.0-6.0-0.0-0.19","5zuvk4gozr","many_one","0","direct_first","1","ee07ar12","0","24","1","1","3","1","","0","1","0","null","","","<div class = 'row'><div class = 'column'><img src = 'category3/CS4.png' width = '70%;'></div><div class = 'column'><img src = 'uspos/1440.bmp' width = '100%;'></div></div>","null","pos","CS","CS","3","category3/CS4.png","","","","",""
"","survey-html-form","26","361119","0.0-6.0-1.0","5zuvk4gozr","many_one","0","direct_first","1","ee07ar12","0","24","1","1","3","1","","0","1","0","3210.350000001199","","{}","","","","","","","","","","","",""
"","html-keyboard-response","27","365122","0.0-6.0-2.0-0.0","5zuvk4gozr","many_one","0","direct_first","1","ee07ar12","0","24","1","1","3","1","","0","1","0","null","","","<div class = 'row'><div class = 'column'><img src = 'category4/CS3.png' width = '70%;'></div><div class = 'column'><img src = 'usneg/1280.bmp' width = '100%;'></div></div>","null","neg","CS","CS","4","category4/CS3.png","","","","",""
"","html-keyboard-response","28","367633","0.0-6.0-2.0-0.1","5zuvk4gozr","many_one","0","direct_first","1","ee07ar12","0","24","1","1","3","1","","0","1","0","null","","","<div class = 'row'><div class = 'column'><img src = 'category2/CS5.png' width = '70%;'></div><div class = 'column'><img src = 'uspos/7580.bmp' width = '100%;'></div></div>","null","pos","CS","CS","2","category2/CS5.png","","","","",""
"","html-keyboard-response","29","370144","0.0-6.0-2.0-0.2","5zuvk4gozr","many_one","0","direct_first","1","ee07ar12","0","24","1","1","3","1","","0","1","0","null","","","<div class = 'row'><div class = 'column'><img src = 'uspos/5629.bmp' width = '100%;'></div><div class = 'column'><img src = 'category2/CS1.png' width = '70%;'></div></div>","null","pos","CS","CS","2","category2/CS1.png","","","","",""
"","html-keyboard-response","30","372652","0.0-6.0-2.0-0.3","5zuvk4gozr","many_one","0","direct_first","1","ee07ar12","0","24","1","1","3","1","","0","1","0","null","","","<div class = 'row'><div class = 'column'><img src = 'usneg/3181.bmp' width = '100%;'></div><div class = 'column'><img src = 'category4/CS9.png' width = '70%;'></div></div>","null","neg","CS","CS","4","category4/CS9.png","","","","",""
"","html-keyboard-response","31","375160","0.0-6.0-2.0-0.4","5zuvk4gozr","many_one","0","direct_first","1","ee07ar12","0","24","1","1","3","1","","0","1","0","null","","","<div class = 'row'><div class = 'column'><img src = 'usneg/9584.bmp' width = '100%;'></div><div class = 'column'><img src = 'category1/CS5.png' width = '70%;'></div></div>","null","neg","CS","CS","1","category1/CS5.png","","","","",""
"","html-keyboard-response","32","377670","0.0-6.0-2.0-0.5","5zuvk4gozr","many_one","0","direct_first","1","ee07ar12","0","24","1","1","3","1","","0","1","0","null","","","<div class = 'row'><div class = 'column'><img src = 'uspos/2341.bmp' width = '100%;'></div><div class = 'column'><img src = 'category3/CS2.png' width = '70%;'></div></div>","null","pos","CS","CS","3","category3/CS2.png","","","","",""
"","html-keyboard-response","33","380174","0.0-6.0-2.0-0.6","5zuvk4gozr","many_one","0","direct_first","1","ee07ar12","0","24","1","1","3","1","","0","1","0","null","","","<div class = 'row'><div class = 'column'><img src = 'category4/CS10.png' width = '70%;'></div><div class = 'column'><img src = 'usneg/3300.bmp' width = '100%;'></div></div>","null","neg","CS","CS","4","category4/CS10.png","","","","",""
"","html-keyboard-response","34","382683","0.0-6.0-2.0-0.7","5zuvk4gozr","many_one","0","direct_first","1","ee07ar12","0","24","1","1","3","1","","0","1","0","null","","","<div class = 'row'><div class = 'column'><img src = 'uspos/8461.bmp' width = '100%;'></div><div class = 'column'><img src = 'category2/CS6.png' width = '70%;'></div></div>","null","pos","CS","CS","2","category2/CS6.png","","","","",""
"","html-keyboard-response","35","385190","0.0-6.0-2.0-0.8","5zuvk4gozr","many_one","0","direct_first","1","ee07ar12","0","24","1","1","3","1","","0","1","0","null","","","<div class = 'row'><div class = 'column'><img src = 'category4/CS1.png' width = '70%;'></div><div class = 'column'><img src = 'usneg/6838.bmp' width = '100%;'></div></div>","null","neg","CS","CS","4","category4/CS1.png","","","","",""
"","html-keyboard-response","36","387698","0.0-6.0-2.0-0.9","5zuvk4gozr","many_one","0","direct_first","1","ee07ar12","0","24","1","1","3","1","","0","1","0","null","","","<div class = 'row'><div class = 'column'><img src = 'category3/CS4.png' width = '70%;'></div><div class = 'column'><img src = 'uspos/1440.bmp' width = '100%;'></div></div>","null","pos","CS","CS","3","category3/CS4.png","","","","",""
"","html-keyboard-response","37","390206","0.0-6.0-2.0-0.10","5zuvk4gozr","many_one","0","direct_first","1","ee07ar12","0","24","1","1","3","1","","0","1","0","null","","","<div class = 'row'><div class = 'column'><img src = 'category3/CS7.png' width = '70%;'></div><div class = 'column'><img src = 'uspos/5621.bmp' width = '100%;'></div></div>","null","pos","CS","CS","3","category3/CS7.png","","","","",""
"","html-keyboard-response","38","392713","0.0-6.0-2.0-0.11","5zuvk4gozr","many_one","0","direct_first","1","ee07ar12","0","24","1","1","3","1","","0","1","0","null","","","<div class = 'row'><div class = 'column'><img src = 'uspos/2165.bmp' width = '100%;'></div><div class = 'column'><img src = 'category2/CS8.png' width = '70%;'></div></div>","null","pos","CS","CS","2","category2/CS8.png","","","","",""
"","html-keyboard-response","39","395221","0.0-6.0-2.0-0.12","5zuvk4gozr","many_one","0","direct_first","1","ee07ar12","0","24","1","1","3","1","","0","1","0","null","","","<div class = 'row'><div class = 'column'><img src = 'category2/CS10.png' width = '70%;'></div><div class = 'column'><img src = 'uspos/5470.bmp' width = '100%;'></div></div>","null","pos","CS","CS","2","category2/CS10.png","","","","",""
"","html-keyboard-response","40","397728","0.0-6.0-2.0-0.13","5zuvk4gozr","many_one","0","direct_first","1","ee07ar12","0","24","1","1","3","1","","0","1","0","null","","","<div class = 'row'><div class = 'column'><img src = 'category4/CS2.png' width = '70%;'></div><div class = 'column'><img src = 'usneg/7380.bmp' width = '100%;'></div></div>","null","neg","CS","CS","4","category4/CS2.png","","","","",""
"","html-keyboard-response","41","400236","0.0-6.0-2.0-0.14","5zuvk4gozr","many_one","0","direct_first","1","ee07ar12","0","24","1","1","3","1","","0","1","0","null","","","<div class = 'row'><div class = 'column'><img src = 'category1/CS6.png' width = '70%;'></div><div class = 'column'><img src = 'usneg/9830.bmp' width = '100%;'></div></div>","null","neg","CS","CS","1","category1/CS6.png","","","","",""
"","html-keyboard-response","42","402745","0.0-6.0-2.0-0.15","5zuvk4gozr","many_one","0","direct_first","1","ee07ar12","0","24","1","1","3","1","","0","1","0","null","","","<div class = 'row'><div class = 'column'><img src = 'uspos/7325.bmp' width = '100%;'></div><div class = 'column'><img src = 'category3/CS5.png' width = '70%;'></div></div>","null","pos","CS","CS","3","category3/CS5.png","","","","",""
"","html-keyboard-response","43","405252","0.0-6.0-2.0-0.16","5zuvk4gozr","many_one","0","direct_first","1","ee07ar12","0","24","1","1","3","1","","0","1","0","null","","","<div class = 'row'><div class = 'column'><img src = 'usneg/9561.bmp' width = '100%;'></div><div class = 'column'><img src = 'category1/CS10.png' width = '70%;'></div></div>","null","neg","CS","CS","1","category1/CS10.png","","","","",""
"","html-keyboard-response","44","407759","0.0-6.0-2.0-0.17","5zuvk4gozr","many_one","0","direct_first","1","ee07ar12","0","24","1","1","3","1","","0","1","0","null","","","<div class = 'row'><div class = 'column'><img src = 'category3/CS8.png' width = '70%;'></div><div class = 'column'><img src = 'uspos/5760.bmp' width = '100%;'></div></div>","null","pos","CS","CS","3","category3/CS8.png","","","","",""
"","html-keyboard-response","45","410268","0.0-6.0-2.0-0.18","5zuvk4gozr","many_one","0","direct_first","1","ee07ar12","0","24","1","1","3","1","","0","1","0","null","","","<div class = 'row'><div class = 'column'><img src = 'category1/CS4.png' width = '70%;'></div><div class = 'column'><img src = 'usneg/9920.bmp' width = '100%;'></div></div>","null","neg","CS","CS","1","category1/CS4.png","","","","",""
"","html-keyboard-response","46","412775","0.0-6.0-2.0-0.19","5zuvk4gozr","many_one","0","direct_first","1","ee07ar12","0","24","1","1","3","1","","0","1","0","null","","","<div class = 'row'><div class = 'column'><img src = 'usneg/9340.bmp' width = '100%;'></div><div class = 'column'><img src = 'category1/CS8.png' width = '70%;'></div></div>","null","neg","CS","CS","1","category1/CS8.png","","","","",""
"","survey-html-form","47","422164","0.0-6.0-3.0","5zuvk4gozr","many_one","0","direct_first","1","ee07ar12","0","24","1","1","3","1","","0","1","0","8885.295000000042","","{}","","","","","","","","","","","",""
"","html-keyboard-response","48","426172","0.0-6.0-4.0-0.0","5zuvk4gozr","many_one","0","direct_first","1","ee07ar12","0","24","1","1","3","1","","0","1","0","null","","","<div class = 'row'><div class = 'column'><img src = 'usneg/1280.bmp' width = '100%;'></div><div class = 'column'><img src = 'category4/CS3.png' width = '70%;'></div></div>","null","neg","CS","CS","4","category4/CS3.png","","","","",""
"","html-keyboard-response","49","428680","0.0-6.0-4.0-0.1","5zuvk4gozr","many_one","0","direct_first","1","ee07ar12","0","24","1","1","3","1","","0","1","0","null","","","<div class = 'row'><div class = 'column'><img src = 'category2/CS6.png' width = '70%;'></div><div class = 'column'><img src = 'uspos/8461.bmp' width = '100%;'></div></div>","null","pos","CS","CS","2","category2/CS6.png","","","","",""
"","html-keyboard-response","50","431188","0.0-6.0-4.0-0.2","5zuvk4gozr","many_one","0","direct_first","1","ee07ar12","0","24","1","1","3","1","","0","1","0","null","","","<div class = 'row'><div class = 'column'><img src = 'usneg/9920.bmp' width = '100%;'></div><div class = 'column'><img src = 'category1/CS4.png' width = '70%;'></div></div>","null","neg","CS","CS","1","category1/CS4.png","","","","",""
"","html-keyboard-response","51","433696","0.0-6.0-4.0-0.3","5zuvk4gozr","many_one","0","direct_first","1","ee07ar12","0","24","1","1","3","1","","0","1","0","null","","","<div class = 'row'><div class = 'column'><img src = 'usneg/9584.bmp' width = '100%;'></div><div class = 'column'><img src = 'category1/CS5.png' width = '70%;'></div></div>","null","neg","CS","CS","1","category1/CS5.png","","","","",""
"","html-keyboard-response","52","436200","0.0-6.0-4.0-0.4","5zuvk4gozr","many_one","0","direct_first","1","ee07ar12","0","24","1","1","3","1","","0","1","0","null","","","<div class = 'row'><div class = 'column'><img src = 'category4/CS9.png' width = '70%;'></div><div class = 'column'><img src = 'usneg/3181.bmp' width = '100%;'></div></div>","null","neg","CS","CS","4","category4/CS9.png","","","","",""
"","html-keyboard-response","53","438707","0.0-6.0-4.0-0.5","5zuvk4gozr","many_one","0","direct_first","1","ee07ar12","0","24","1","1","3","1","","0","1","0","null","","","<div class = 'row'><div class = 'column'><img src = 'category3/CS7.png' width = '70%;'></div><div class = 'column'><img src = 'uspos/5621.bmp' width = '100%;'></div></div>","null","pos","CS","CS","3","category3/CS7.png","","","","",""
"","html-keyboard-response","54","441218","0.0-6.0-4.0-0.6","5zuvk4gozr","many_one","0","direct_first","1","ee07ar12","0","24","1","1","3","1","","0","1","0","null","","","<div class = 'row'><div class = 'column'><img src = 'category3/CS2.png' width = '70%;'></div><div class = 'column'><img src = 'uspos/2341.bmp' width = '100%;'></div></div>","null","pos","CS","CS","3","category3/CS2.png","","","","",""
"","html-keyboard-response","55","443726","0.0-6.0-4.0-0.7","5zuvk4gozr","many_one","0","direct_first","1","ee07ar12","0","24","1","1","3","1","","0","1","0","null","","","<div class = 'row'><div class = 'column'><img src = 'category4/CS10.png' width = '70%;'></div><div class = 'column'><img src = 'usneg/3300.bmp' width = '100%;'></div></div>","null","neg","CS","CS","4","category4/CS10.png","","","","",""
"","html-keyboard-response","56","446233","0.0-6.0-4.0-0.8","5zuvk4gozr","many_one","0","direct_first","1","ee07ar12","0","24","1","1","3","1","","0","1","0","null","","","<div class = 'row'><div class = 'column'><img src = 'category4/CS2.png' width = '70%;'></div><div class = 'column'><img src = 'usneg/7380.bmp' width = '100%;'></div></div>","null","neg","CS","CS","4","category4/CS2.png","","","","",""
"","html-keyboard-response","57","448738","0.0-6.0-4.0-0.9","5zuvk4gozr","many_one","0","direct_first","1","ee07ar12","0","24","1","1","3","1","","0","1","0","null","","","<div class = 'row'><div class = 'column'><img src = 'uspos/5470.bmp' width = '100%;'></div><div class = 'column'><img src = 'category2/CS10.png' width = '70%;'></div></div>","null","pos","CS","CS","2","category2/CS10.png","","","","",""
"","html-keyboard-response","58","451249","0.0-6.0-4.0-0.10","5zuvk4gozr","many_one","0","direct_first","1","ee07ar12","0","24","1","1","3","1","","0","1","0","null","","","<div class = 'row'><div class = 'column'><img src = 'usneg/9830.bmp' width = '100%;'></div><div class = 'column'><img src = 'category1/CS6.png' width = '70%;'></div></div>","null","neg","CS","CS","1","category1/CS6.png","","","","",""
"","html-keyboard-response","59","453754","0.0-6.0-4.0-0.11","5zuvk4gozr","many_one","0","direct_first","1","ee07ar12","0","24","1","1","3","1","","0","1","0","null","","","<div class = 'row'><div class = 'column'><img src = 'uspos/5629.bmp' width = '100%;'></div><div class = 'column'><img src = 'category2/CS1.png' width = '70%;'></div></div>","null","pos","CS","CS","2","category2/CS1.png","","","","",""
"","html-keyboard-response","60","456263","0.0-6.0-4.0-0.12","5zuvk4gozr","many_one","0","direct_first","1","ee07ar12","0","24","1","1","3","1","","0","1","0","null","","","<div class = 'row'><div class = 'column'><img src = 'uspos/5760.bmp' width = '100%;'></div><div class = 'column'><img src = 'category3/CS8.png' width = '70%;'></div></div>","null","pos","CS","CS","3","category3/CS8.png","","","","",""
"","html-keyboard-response","61","458773","0.0-6.0-4.0-0.13","5zuvk4gozr","many_one","0","direct_first","1","ee07ar12","0","24","1","1","3","1","","0","1","0","null","","","<div class = 'row'><div class = 'column'><img src = 'category3/CS4.png' width = '70%;'></div><div class = 'column'><img src = 'uspos/1440.bmp' width = '100%;'></div></div>","null","pos","CS","CS","3","category3/CS4.png","","","","",""
"","html-keyboard-response","62","461282","0.0-6.0-4.0-0.14","5zuvk4gozr","many_one","0","direct_first","1","ee07ar12","0","24","1","1","3","1","","0","1","0","null","","","<div class = 'row'><div class = 'column'><img src = 'category3/CS5.png' width = '70%;'></div><div class = 'column'><img src = 'uspos/7325.bmp' width = '100%;'></div></div>","null","pos","CS","CS","3","category3/CS5.png","","","","",""
"","html-keyboard-response","63","463787","0.0-6.0-4.0-0.15","5zuvk4gozr","many_one","0","direct_first","1","ee07ar12","0","24","1","1","3","1","","0","1","0","null","","","<div class = 'row'><div class = 'column'><img src = 'uspos/2165.bmp' width = '100%;'></div><div class = 'column'><img src = 'category2/CS8.png' width = '70%;'></div></div>","null","pos","CS","CS","2","category2/CS8.png","","","","",""
"","html-keyboard-response","64","466299","0.0-6.0-4.0-0.16","5zuvk4gozr","many_one","0","direct_first","1","ee07ar12","0","24","1","1","3","1","","0","1","0","null","","","<div class = 'row'><div class = 'column'><img src = 'usneg/9561.bmp' width = '100%;'></div><div class = 'column'><img src = 'category1/CS10.png' width = '70%;'></div></div>","null","neg","CS","CS","1","category1/CS10.png","","","","",""
"","html-keyboard-response","65","468808","0.0-6.0-4.0-0.17","5zuvk4gozr","many_one","0","direct_first","1","ee07ar12","0","24","1","1","3","1","","0","1","0","null","","","<div class = 'row'><div class = 'column'><img src = 'uspos/7580.bmp' width = '100%;'></div><div class = 'column'><img src = 'category2/CS5.png' width = '70%;'></div></div>","null","pos","CS","CS","2","category2/CS5.png","","","","",""
"","html-keyboard-response","66","471315","0.0-6.0-4.0-0.18","5zuvk4gozr","many_one","0","direct_first","1","ee07ar12","0","24","1","1","3","1","","0","1","0","null","","","<div class = 'row'><div class = 'column'><img src = 'usneg/9340.bmp' width = '100%;'></div><div class = 'column'><img src = 'category1/CS8.png' width = '70%;'></div></div>","null","neg","CS","CS","1","category1/CS8.png","","","","",""
"","html-keyboard-response","67","473823","0.0-6.0-4.0-0.19","5zuvk4gozr","many_one","0","direct_first","1","ee07ar12","0","24","1","1","3","1","","0","1","0","null","","","<div class = 'row'><div class = 'column'><img src = 'usneg/6838.bmp' width = '100%;'></div><div class = 'column'><img src = 'category4/CS1.png' width = '70%;'></div></div>","null","neg","CS","CS","4","category4/CS1.png","","","","",""
"","survey-html-form","68","477697","0.0-6.0-5.0","5zuvk4gozr","many_one","0","direct_first","1","ee07ar12","0","24","1","1","3","1","","0","1","0","3370.794999995269","","{}","","","","","","","","","","","",""
"","html-keyboard-response","69","481705","0.0-6.0-6.0-0.0","5zuvk4gozr","many_one","0","direct_first","1","ee07ar12","0","24","1","1","3","1","","0","1","0","null","","","<div class = 'row'><div class = 'column'><img src = 'category1/CS6.png' width = '70%;'></div><div class = 'column'><img src = 'usneg/9830.bmp' width = '100%;'></div></div>","null","neg","CS","CS","1","category1/CS6.png","","","","",""
"","html-keyboard-response","70","484213","0.0-6.0-6.0-0.1","5zuvk4gozr","many_one","0","direct_first","1","ee07ar12","0","24","1","1","3","1","","0","1","0","null","","","<div class = 'row'><div class = 'column'><img src = 'category2/CS1.png' width = '70%;'></div><div class = 'column'><img src = 'uspos/5629.bmp' width = '100%;'></div></div>","null","pos","CS","CS","2","category2/CS1.png","","","","",""
"","html-keyboard-response","71","486722","0.0-6.0-6.0-0.2","5zuvk4gozr","many_one","0","direct_first","1","ee07ar12","0","24","1","1","3","1","","0","1","0","null","","","<div class = 'row'><div class = 'column'><img src = 'category1/CS4.png' width = '70%;'></div><div class = 'column'><img src = 'usneg/9920.bmp' width = '100%;'></div></div>","null","neg","CS","CS","1","category1/CS4.png","","","","",""
"","html-keyboard-response","72","489232","0.0-6.0-6.0-0.3","5zuvk4gozr","many_one","0","direct_first","1","ee07ar12","0","24","1","1","3","1","","0","1","0","null","","","<div class = 'row'><div class = 'column'><img src = 'usneg/3181.bmp' width = '100%;'></div><div class = 'column'><img src = 'category4/CS9.png' width = '70%;'></div></div>","null","neg","CS","CS","4","category4/CS9.png","","","","",""
"","html-keyboard-response","73","491740","0.0-6.0-6.0-0.4","5zuvk4gozr","many_one","0","direct_first","1","ee07ar12","0","24","1","1","3","1","","0","1","0","null","","","<div class = 'row'><div class = 'column'><img src = 'uspos/7325.bmp' width = '100%;'></div><div class = 'column'><img src = 'category3/CS5.png' width = '70%;'></div></div>","null","pos","CS","CS","3","category3/CS5.png","","","","",""
"","html-keyboard-response","74","494248","0.0-6.0-6.0-0.5","5zuvk4gozr","many_one","0","direct_first","1","ee07ar12","0","24","1","1","3","1","","0","1","0","null","","","<div class = 'row'><div class = 'column'><img src = 'usneg/9340.bmp' width = '100%;'></div><div class = 'column'><img src = 'category1/CS8.png' width = '70%;'></div></div>","null","neg","CS","CS","1","category1/CS8.png","","","","",""
"","html-keyboard-response","75","496759","0.0-6.0-6.0-0.6","5zuvk4gozr","many_one","0","direct_first","1","ee07ar12","0","24","1","1","3","1","","0","1","0","null","","","<div class = 'row'><div class = 'column'><img src = 'uspos/2341.bmp' width = '100%;'></div><div class = 'column'><img src = 'category3/CS2.png' width = '70%;'></div></div>","null","pos","CS","CS","3","category3/CS2.png","","","","",""
"","html-keyboard-response","76","499269","0.0-6.0-6.0-0.7","5zuvk4gozr","many_one","0","direct_first","1","ee07ar12","0","24","1","1","3","1","","0","1","0","null","","","<div class = 'row'><div class = 'column'><img src = 'category2/CS5.png' width = '70%;'></div><div class = 'column'><img src = 'uspos/7580.bmp' width = '100%;'></div></div>","null","pos","CS","CS","2","category2/CS5.png","","","","",""
"","html-keyboard-response","77","501774","0.0-6.0-6.0-0.8","5zuvk4gozr","many_one","0","direct_first","1","ee07ar12","0","24","1","1","3","1","","0","1","0","null","","","<div class = 'row'><div class = 'column'><img src = 'category2/CS6.png' width = '70%;'></div><div class = 'column'><img src = 'uspos/8461.bmp' width = '100%;'></div></div>","null","pos","CS","CS","2","category2/CS6.png","","","","",""
"","html-keyboard-response","78","504282","0.0-6.0-6.0-0.9","5zuvk4gozr","many_one","0","direct_first","1","ee07ar12","0","24","1","1","3","1","","0","1","0","null","","","<div class = 'row'><div class = 'column'><img src = 'category4/CS1.png' width = '70%;'></div><div class = 'column'><img src = 'usneg/6838.bmp' width = '100%;'></div></div>","null","neg","CS","CS","4","category4/CS1.png","","","","",""
"","html-keyboard-response","79","506789","0.0-6.0-6.0-0.10","5zuvk4gozr","many_one","0","direct_first","1","ee07ar12","0","24","1","1","3","1","","0","1","0","null","","","<div class = 'row'><div class = 'column'><img src = 'category3/CS7.png' width = '70%;'></div><div class = 'column'><img src = 'uspos/5621.bmp' width = '100%;'></div></div>","null","pos","CS","CS","3","category3/CS7.png","","","","",""
"","html-keyboard-response","80","509298","0.0-6.0-6.0-0.11","5zuvk4gozr","many_one","0","direct_first","1","ee07ar12","0","24","1","1","3","1","","0","1","0","null","","","<div class = 'row'><div class = 'column'><img src = 'usneg/3300.bmp' width = '100%;'></div><div class = 'column'><img src = 'category4/CS10.png' width = '70%;'></div></div>","null","neg","CS","CS","4","category4/CS10.png","","","","",""
"","html-keyboard-response","81","511804","0.0-6.0-6.0-0.12","5zuvk4gozr","many_one","0","direct_first","1","ee07ar12","0","24","1","1","3","1","","0","1","0","null","","","<div class = 'row'><div class = 'column'><img src = 'category4/CS2.png' width = '70%;'></div><div class = 'column'><img src = 'usneg/7380.bmp' width = '100%;'></div></div>","null","neg","CS","CS","4","category4/CS2.png","","","","",""
"","html-keyboard-response","82","514309","0.0-6.0-6.0-0.13","5zuvk4gozr","many_one","0","direct_first","1","ee07ar12","0","24","1","1","3","1","","0","1","0","null","","","<div class = 'row'><div class = 'column'><img src = 'category4/CS3.png' width = '70%;'></div><div class = 'column'><img src = 'usneg/1280.bmp' width = '100%;'></div></div>","null","neg","CS","CS","4","category4/CS3.png","","","","",""
"","html-keyboard-response","83","516820","0.0-6.0-6.0-0.14","5zuvk4gozr","many_one","0","direct_first","1","ee07ar12","0","24","1","1","3","1","","0","1","0","null","","","<div class = 'row'><div class = 'column'><img src = 'category2/CS10.png' width = '70%;'></div><div class = 'column'><img src = 'uspos/5470.bmp' width = '100%;'></div></div>","null","pos","CS","CS","2","category2/CS10.png","","","","",""
"","html-keyboard-response","84","519328","0.0-6.0-6.0-0.15","5zuvk4gozr","many_one","0","direct_first","1","ee07ar12","0","24","1","1","3","1","","0","1","0","null","","","<div class = 'row'><div class = 'column'><img src = 'category1/CS10.png' width = '70%;'></div><div class = 'column'><img src = 'usneg/9561.bmp' width = '100%;'></div></div>","null","neg","CS","CS","1","category1/CS10.png","","","","",""
"","html-keyboard-response","85","521836","0.0-6.0-6.0-0.16","5zuvk4gozr","many_one","0","direct_first","1","ee07ar12","0","24","1","1","3","1","","0","1","0","null","","","<div class = 'row'><div class = 'column'><img src = 'uspos/1440.bmp' width = '100%;'></div><div class = 'column'><img src = 'category3/CS4.png' width = '70%;'></div></div>","null","pos","CS","CS","3","category3/CS4.png","","","","",""
"","html-keyboard-response","86","524344","0.0-6.0-6.0-0.17","5zuvk4gozr","many_one","0","direct_first","1","ee07ar12","0","24","1","1","3","1","","0","1","0","null","","","<div class = 'row'><div class = 'column'><img src = 'category2/CS8.png' width = '70%;'></div><div class = 'column'><img src = 'uspos/2165.bmp' width = '100%;'></div></div>","null","pos","CS","CS","2","category2/CS8.png","","","","",""
"","html-keyboard-response","87","526850","0.0-6.0-6.0-0.18","5zuvk4gozr","many_one","0","direct_first","1","ee07ar12","0","24","1","1","3","1","","0","1","0","null","","","<div class = 'row'><div class = 'column'><img src = 'usneg/9584.bmp' width = '100%;'></div><div class = 'column'><img src = 'category1/CS5.png' width = '70%;'></div></div>","null","neg","CS","CS","1","category1/CS5.png","","","","",""
"","html-keyboard-response","88","529359","0.0-6.0-6.0-0.19","5zuvk4gozr","many_one","0","direct_first","1","ee07ar12","0","24","1","1","3","1","","0","1","0","null","","","<div class = 'row'><div class = 'column'><img src = 'category3/CS8.png' width = '70%;'></div><div class = 'column'><img src = 'uspos/5760.bmp' width = '100%;'></div></div>","null","pos","CS","CS","3","category3/CS8.png","","","","",""
"","survey-html-form","89","545912","0.0-7.0","5zuvk4gozr","many_one","0","direct_first","1","ee07ar12","0","24","1","1","3","1","","0","1","0","16050.705000001471","","{}","","","","","","","","","","","",""
"","image-slider-response","90","558579","0.0-8.0-0.0","5zuvk4gozr","many_one","0","direct_first","1","ee07ar12","0","24","1","1","3","1","","0","1","0","10661.500000001979","","","","","neg","GS","GSnew","4","category4/GS1.png","-24","targets/41.png","direct","",""
"","image-slider-response","91","564792","0.0-8.0-0.1","5zuvk4gozr","many_one","0","direct_first","1","ee07ar12","0","24","1","1","3","1","","0","1","0","6211.7849999994505","","","","","pos","GS","GSnew","3","category3/GS3.png","30","targets/7.png","direct","",""
"","image-slider-response","92","569676","0.0-8.0-0.2","5zuvk4gozr","many_one","0","direct_first","1","ee07ar12","0","24","1","1","3","1","","0","1","0","4882.505000001402","","","","","pos","GS","GSnew","2","category2/GS2.png","-36","targets/6.png","direct","",""
"","image-slider-response","93","573508","0.0-8.0-0.3","5zuvk4gozr","many_one","0","direct_first","1","ee07ar12","0","24","1","1","3","1","","0","1","0","3830.569999998319","","","","","pos","GS","GSold","2","category2/CS2.png","62","targets/23.png","direct","",""
"","image-slider-response","94","576702","0.0-8.0-0.4","5zuvk4gozr","many_one","0","direct_first","1","ee07ar12","0","24","1","1","3","1","","0","1","0","3192.559999995865","","","","","pos","GS","abstract","3","category3/wang.png","100","targets/17.png","direct","",""
"","image-slider-response","95","579634","0.0-8.0-0.5","5zuvk4gozr","many_one","0","direct_first","1","ee07ar12","0","24","1","1","3","1","","0","1","0","2930.6199999991804","","","","","neg","CS","CS","4","category4/CS1.png","-100","targets/13.png","direct","",""
"","image-slider-response","96","582386","0.0-8.0-0.6","5zuvk4gozr","many_one","0","direct_first","1","ee07ar12","0","24","1","1","3","1","","0","1","0","2750.8899999957066","","","","","neg","CS","CS","1","category1/CS10.png","-100","targets/37.png","direct","",""
"","image-slider-response","97","588437","0.0-8.0-0.7","5zuvk4gozr","many_one","0","direct_first","1","ee07ar12","0","24","1","1","3","1","","0","1","0","6050.654999999097","","","","","pos","GS","GSold","3","category3/CS10.png","29","targets/27.png","direct","",""
"","image-slider-response","98","591149","0.0-8.0-0.8","5zuvk4gozr","many_one","0","direct_first","1","ee07ar12","0","24","1","1","3","1","","0","1","0","2710.5749999973923","","","","","neg","CS","CS","4","category4/CS9.png","-100","targets/32.png","direct","",""
"","image-slider-response","99","594483","0.0-8.0-0.9","5zuvk4gozr","many_one","0","direct_first","1","ee07ar12","0","24","1","1","3","1","","0","1","0","3332.6500000039814","","","","","neg","CS","CS","4","category4/CS10.png","-89","targets/11.png","direct","",""
"","image-slider-response","100","598403","0.0-8.0-0.10","5zuvk4gozr","many_one","0","direct_first","1","ee07ar12","0","24","1","1","3","1","","0","1","0","3918.700000002049","","","","","neg","GS","GSnew","1","category1/GS3.png","-47","targets/14.png","direct","",""
"","image-slider-response","101","602895","0.0-8.0-0.11","5zuvk4gozr","many_one","0","direct_first","1","ee07ar12","0","24","1","1","3","1","","0","1","0","4490.579999997979","","","","","neg","GS","GSold","1","category1/CS3.png","-24","targets/10.png","direct","",""
"","image-slider-response","102","606569","0.0-8.0-0.12","5zuvk4gozr","many_one","0","direct_first","1","ee07ar12","0","24","1","1","3","1","","0","1","0","3672.6100000014994","","","","","neg","GS","GSold","1","category1/CS1.png","-22","targets/45.png","direct","",""
"","image-slider-response","103","610547","0.0-8.0-0.13","5zuvk4gozr","many_one","0","direct_first","1","ee07ar12","0","24","1","1","3","1","","0","1","0","3976.699999999255","","","","","neg","CS","CS","1","category1/CS5.png","-37","targets/28.png","direct","",""
"","image-slider-response","104","614571","0.0-8.0-0.14","5zuvk4gozr","many_one","0","direct_first","1","ee07ar12","0","24","1","1","3","1","","0","1","0","4022.735000005923","","","","","neg","GS","abstract","4","category4/lin.png","-100","targets/21.png","direct","",""
"","image-slider-response","105","618701","0.0-8.0-0.15","5zuvk4gozr","many_one","0","direct_first","1","ee07ar12","0","24","1","1","3","1","","0","1","0","4128.899999996065","","","","","pos","CS","CS","2","category2/CS8.png","96","targets/46.png","direct","",""
"","image-slider-response","106","622402","0.0-8.0-0.16","5zuvk4gozr","many_one","0","direct_first","1","ee07ar12","0","24","1","1","3","1","","0","1","0","3700.1450000024633","","","","","pos","CS","CS","3","category3/CS4.png","96","targets/31.png","direct","",""
"","image-slider-response","107","626018","0.0-8.0-0.17","5zuvk4gozr","many_one","0","direct_first","1","ee07ar12","0","24","1","1","3","1","","0","1","0","3614.695000003907","","","","","pos","GS","GSold","3","category3/CS9.png","35","targets/1.png","direct","",""
"","image-slider-response","108","630190","0.0-8.0-0.18","5zuvk4gozr","many_one","0","direct_first","1","ee07ar12","0","24","1","1","3","1","","0","1","0","4170.665000005043","","","","","neg","GS","GSnew","1","category1/GS1.png","-43","targets/20.png","direct","",""
"","image-slider-response","109","633726","0.0-8.0-0.19","5zuvk4gozr","many_one","0","direct_first","1","ee07ar12","0","24","1","1","3","1","","0","1","0","3534.6150000041816","","","","","neg","GS","abstract","1","category1/ma.png","-31","targets/5.png","direct","",""
"","image-slider-response","110","637854","0.0-8.0-0.20","5zuvk4gozr","many_one","0","direct_first","1","ee07ar12","0","24","1","1","3","1","","0","1","0","4126.744999994175","","","","","pos","GS","abstract","2","category2/men.png","27","targets/3.png","direct","",""
"","image-slider-response","111","641650","0.0-8.0-0.21","5zuvk4gozr","many_one","0","direct_first","1","ee07ar12","0","24","1","1","3","1","","0","1","0","3794.524999997462","","","","","neg","CS","CS","4","category4/CS2.png","-89","targets/43.png","direct","",""
"","image-slider-response","112","645026","0.0-8.0-0.22","5zuvk4gozr","many_one","0","direct_first","1","ee07ar12","0","24","1","1","3","1","","0","1","0","3374.6599999940954","","","","","neg","GS","GSold","4","category4/CS7.png","-84","targets/40.png","direct","",""
"","image-slider-response","113","652399","0.0-8.0-0.23","5zuvk4gozr","many_one","0","direct_first","1","ee07ar12","0","24","1","1","3","1","","0","1","0","7372.434999997495","","","","","pos","GS","GSnew","3","category3/GS2.png","-1","targets/48.png","direct","",""
"","image-slider-response","114","655279","0.0-8.0-0.24","5zuvk4gozr","many_one","0","direct_first","1","ee07ar12","0","24","1","1","3","1","","0","1","0","2878.774999997462","","","","","pos","CS","CS","3","category3/CS5.png","67","targets/42.png","direct","",""
"","image-slider-response","115","658591","0.0-8.0-0.25","5zuvk4gozr","many_one","0","direct_first","1","ee07ar12","0","24","1","1","3","1","","0","1","0","3310.604999998701","","","","","pos","GS","GSold","3","category3/CS6.png","74","targets/30.png","direct","",""
"","image-slider-response","116","662827","0.0-8.0-0.26","5zuvk4gozr","many_one","0","direct_first","1","ee07ar12","0","24","1","1","3","1","","0","1","0","4234.604999997886","","","","","pos","CS","CS","2","category2/CS1.png","73","targets/36.png","direct","",""
"","image-slider-response","117","666281","0.0-8.0-0.27","5zuvk4gozr","many_one","0","direct_first","1","ee07ar12","0","24","1","1","3","1","","0","1","0","3453.1200000055833","","","","","neg","GS","GSold","4","category4/CS8.png","-86","targets/16.png","direct","",""
"","image-slider-response","118","670371","0.0-8.0-0.28","5zuvk4gozr","many_one","0","direct_first","1","ee07ar12","0","24","1","1","3","1","","0","1","0","4088.1599999994505","","","","","neg","CS","CS","1","category1/CS6.png","-95","targets/2.png","direct","",""
"","image-slider-response","119","676545","0.0-8.0-0.29","5zuvk4gozr","many_one","0","direct_first","1","ee07ar12","0","24","1","1","3","1","","0","1","0","6172.534999997937","","","","","pos","GS","GSnew","2","category2/GS3.png","-55","targets/33.png","direct","",""
"","image-slider-response","120","681852","0.0-8.0-0.30","5zuvk4gozr","many_one","0","direct_first","1","ee07ar12","0","24","1","1","3","1","","0","1","0","5306.375000000116","","","","","neg","CS","CS","1","category1/CS4.png","-99","targets/19.png","direct","",""
"","image-slider-response","121","686744","0.0-8.0-0.31","5zuvk4gozr","many_one","0","direct_first","1","ee07ar12","0","24","1","1","3","1","","0","1","0","4890.745000004303","","","","","neg","GS","GSold","1","category1/CS7.png","-41","targets/12.png","direct","",""
"","image-slider-response","122","693568","0.0-8.0-0.32","5zuvk4gozr","many_one","0","direct_first","1","ee07ar12","0","24","1","1","3","1","","0","1","0","6822.514999999781","","","","","pos","GS","GSold","2","category2/CS7.png","14","targets/26.png","direct","",""
"","image-slider-response","123","695800","0.0-8.0-0.33","5zuvk4gozr","many_one","0","direct_first","1","ee07ar12","0","24","1","1","3","1","","0","1","0","2230.685000002384","","","","","pos","CS","CS","2","category2/CS6.png","12","targets/8.png","direct","",""
"","image-slider-response","124","700057","0.0-8.0-0.34","5zuvk4gozr","many_one","0","direct_first","1","ee07ar12","0","24","1","1","3","1","","0","1","0","4256.154999995604","","","","","pos","GS","GSnew","2","category2/GS1.png","-24","targets/24.png","direct","",""
"","image-slider-response","125","702765","0.0-8.0-0.35","5zuvk4gozr","many_one","0","direct_first","1","ee07ar12","0","24","1","1","3","1","","0","1","0","2706.369999999879","","","","","pos","CS","CS","3","category3/CS7.png","63","targets/4.png","direct","",""
"","image-slider-response","126","705908","0.0-8.0-0.36","5zuvk4gozr","many_one","0","direct_first","1","ee07ar12","0","24","1","1","3","1","","0","1","0","3141.040000002249","","","","","neg","CS","CS","1","category1/CS8.png","-36","targets/44.png","direct","",""
"","image-slider-response","127","714113","0.0-8.0-0.37","5zuvk4gozr","many_one","0","direct_first","1","ee07ar12","0","24","1","1","3","1","","0","1","0","8204.8150000046","","","","","neg","GS","GSnew","4","category4/GS2.png","-7","targets/15.png","direct","",""
"","image-slider-response","128","718423","0.0-8.0-0.38","5zuvk4gozr","many_one","0","direct_first","1","ee07ar12","0","24","1","1","3","1","","0","1","0","4308.680000001914","","","","","pos","CS","CS","3","category3/CS2.png","62","targets/47.png","direct","",""
"","image-slider-response","129","723411","0.0-8.0-0.39","5zuvk4gozr","many_one","0","direct_first","1","ee07ar12","0","24","1","1","3","1","","0","1","0","4986.290000000736","","","","","pos","GS","GSold","2","category2/CS9.png","13","targets/39.png","direct","",""
"","image-slider-response","130","727925","0.0-8.0-0.40","5zuvk4gozr","many_one","0","direct_first","1","ee07ar12","0","24","1","1","3","1","","0","1","0","4512.495000002673","","","","","pos","CS","CS","2","category2/CS10.png","10","targets/35.png","direct","",""
"","image-slider-response","131","732479","0.0-8.0-0.41","5zuvk4gozr","many_one","0","direct_first","1","ee07ar12","0","24","1","1","3","1","","0","1","0","4552.794999995967","","","","","pos","GS","GSnew","3","category3/GS1.png","21","targets/9.png","direct","",""
"","image-slider-response","132","736327","0.0-8.0-0.42","5zuvk4gozr","many_one","0","direct_first","1","ee07ar12","0","24","1","1","3","1","","0","1","0","3846.4449999956414","","","","","pos","CS","CS","2","category2/CS5.png","7","targets/25.png","direct","",""
"","image-slider-response","133","739061","0.0-8.0-0.43","5zuvk4gozr","many_one","0","direct_first","1","ee07ar12","0","24","1","1","3","1","","0","1","0","2732.5400000045775","","","","","neg","GS","GSnew","4","category4/GS3.png","-94","targets/38.png","direct","",""
"","image-slider-response","134","741745","0.0-8.0-0.44","5zuvk4gozr","many_one","0","direct_first","1","ee07ar12","0","24","1","1","3","1","","0","1","0","2682.534999999916","","","","","pos","CS","CS","3","category3/CS8.png","99","targets/34.png","direct","",""
"","image-slider-response","135","744248","0.0-8.0-0.45","5zuvk4gozr","many_one","0","direct_first","1","ee07ar12","0","24","1","1","3","1","","0","1","0","2502.810000005411","","","","","neg","CS","CS","4","category4/CS3.png","-100","targets/29.png","direct","",""
"","image-slider-response","136","747606","0.0-8.0-0.46","5zuvk4gozr","many_one","0","direct_first","1","ee07ar12","0","24","1","1","3","1","","0","1","0","3356.8349999987986","","","","","neg","GS","GSnew","1","category1/GS2.png","-88","targets/22.png","direct","",""
"","image-slider-response","137","750162","0.0-8.0-0.47","5zuvk4gozr","many_one","0","direct_first","1","ee07ar12","0","24","1","1","3","1","","0","1","0","2554.6899999972666","","","","","neg","GS","GSold","4","category4/CS5.png","-76","targets/18.png","direct","",""
"","html-keyboard-response","138","802118","0.0-9.0","5zuvk4gozr","many_one","0","direct_first","1","ee07ar12","0","24","1","1","3","1","","0","1","0","51955.56999999832","","","<p>Sie sehen nun die chinesischen Zeichen nur ganz kurz. Danach sehen Sie die jeweilige Aussprache der Zeichen als Silbe auf dem Bildschrim. Ihre Aufgabe ist es, für jede Silbe anzugeben, ob diese etwas angenehmes, oder unangenehmes bedeuten könnte. Verlassen Sie sich hier vor allem auf Ihre Intuition.<br><br>Die Zeichen werden nur zur Orientierung dargestellt, beachten Sie sie deshalb nicht. Konzentrieren Sie sich vor allem auf die Silben. <br>Reagieren Sie mit folgenden zwei Tasten: <br><br><b>'D' </b> wenn die Silbe etwas <b>unangenehmes</b> bedeuten könnte. <br><b>'K'</b> wenn die Silbe etwas <b>angenehmes</b> bedeuten könnte. <br><br>Bitte legen Sie nun den Zeigefinger der linken Hand auf die Taste 'D' und den Zeigefinger der rechten Hand auf die Taste 'K'. <br>Reagieren Sie auf jede Silbe so schnell wie möglich. Uns interessiert Ihre spontane Reaktion. <br> <br> <br>Drücken Sie 'D' oder 'K', um die nächste Aufgabe zu starten. </p>","75","","","","","","","","","",""
"","html-keyboard-response","139","805125","0.0-10.0-0.0","5zuvk4gozr","many_one","0","direct_first","1","ee07ar12","0","24","1","1","3","1","","0","1","0","null","","","<div style=""font-size:60px;"">+</div>","null","","","","","","","","","",""
"","html-keyboard-response","140","805217","0.0-10.0-1.0","5zuvk4gozr","many_one","0","direct_first","1","ee07ar12","0","24","1","1","3","1","","0","1","0","null","","","<img src = 'category3/CS2.png' width = '100%;'>","null","","","","","","","","","",""
"","html-keyboard-response","141","805473","0.0-10.0-2.0","5zuvk4gozr","many_one","0","direct_first","1","ee07ar12","0","24","1","1","3","1","","0","1","0","null","","","<img src = 'targets/47.png' width = '100%;'>","null","","","","","","","","","",""
"","html-keyboard-response","142","812879","0.0-10.0-3.0","5zuvk4gozr","many_one","0","direct_first","1","ee07ar12","0","24","1","1","3","1","","0","1","0","7405.785000002594","","","<img src = 'targets/mask.png' width = '100%;'>","68","pos","CS","CS","3","category3/CS2.png","","targets/47.png","indirect","0","0"
"","html-keyboard-response","143","814386","0.0-10.0-0.1","5zuvk4gozr","many_one","0","direct_first","1","ee07ar12","0","24","1","1","3","1","","0","1","0","null","","","<div style=""font-size:60px;"">+</div>","null","","","","","","","","","",""
"","html-keyboard-response","144","814480","0.0-10.0-1.1","5zuvk4gozr","many_one","0","direct_first","1","ee07ar12","0","24","1","1","3","1","","0","1","0","null","","","<img src = 'category1/CS7.png' width = '100%;'>","null","","","","","","","","","",""
"","html-keyboard-response","145","814737","0.0-10.0-2.1","5zuvk4gozr","many_one","0","direct_first","1","ee07ar12","0","24","1","1","3","1","","0","1","0","null","","","<img src = 'targets/12.png' width = '100%;'>","null","","","","","","","","","",""
"","html-keyboard-response","146","816846","0.0-10.0-3.1","5zuvk4gozr","many_one","0","direct_first","1","ee07ar12","0","24","1","1","3","1","","0","1","0","2108.245000003022","","","<img src = 'targets/mask.png' width = '100%;'>","68","neg","GS","GSold","1","category1/CS7.png","","targets/12.png","indirect","0","1"
"","html-keyboard-response","147","818354","0.0-10.0-0.2","5zuvk4gozr","many_one","0","direct_first","1","ee07ar12","0","24","1","1","3","1","","0","1","0","null","","","<div style=""font-size:60px;"">+</div>","null","","","","","","","","","",""
"","html-keyboard-response","148","818447","0.0-10.0-1.2","5zuvk4gozr","many_one","0","direct_first","1","ee07ar12","0","24","1","1","3","1","","0","1","0","null","","","<img src = 'category2/CS6.png' width = '100%;'>","null","","","","","","","","","",""
"","html-keyboard-response","149","818702","0.0-10.0-2.2","5zuvk4gozr","many_one","0","direct_first","1","ee07ar12","0","24","1","1","3","1","","0","1","0","null","","","<img src = 'targets/8.png' width = '100%;'>","null","","","","","","","","","",""
"","html-keyboard-response","150","820394","0.0-10.0-3.2","5zuvk4gozr","many_one","0","direct_first","1","ee07ar12","0","24","1","1","3","1","","0","1","0","1690.6700000036508","","","<img src = 'targets/mask.png' width = '100%;'>","75","pos","CS","CS","2","category2/CS6.png","","targets/8.png","indirect","1","2"
"","html-keyboard-response","151","821900","0.0-10.0-0.3","5zuvk4gozr","many_one","0","direct_first","1","ee07ar12","0","24","1","1","3","1","","0","1","0","null","","","<div style=""font-size:60px;"">+</div>","null","","","","","","","","","",""
"","html-keyboard-response","152","821993","0.0-10.0-1.3","5zuvk4gozr","many_one","0","direct_first","1","ee07ar12","0","24","1","1","3","1","","0","1","0","null","","","<img src = 'category4/CS2.png' width = '100%;'>","null","","","","","","","","","",""
"","html-keyboard-response","153","822247","0.0-10.0-2.3","5zuvk4gozr","many_one","0","direct_first","1","ee07ar12","0","24","1","1","3","1","","0","1","0","null","","","<img src = 'targets/43.png' width = '100%;'>","null","","","","","","","","","",""
"","html-keyboard-response","154","825186","0.0-10.0-3.3","5zuvk4gozr","many_one","0","direct_first","1","ee07ar12","0","24","1","1","3","1","","0","1","0","2938.970000002766","","","<img src = 'targets/mask.png' width = '100%;'>","68","neg","CS","CS","4","category4/CS2.png","","targets/43.png","indirect","0","3"
"","html-keyboard-response","155","826695","0.0-10.0-0.4","5zuvk4gozr","many_one","0","direct_first","1","ee07ar12","0","24","1","1","3","1","","0","1","0","null","","","<div style=""font-size:60px;"">+</div>","null","","","","","","","","","",""
"","html-keyboard-response","156","826787","0.0-10.0-1.4","5zuvk4gozr","many_one","0","direct_first","1","ee07ar12","0","24","1","1","3","1","","0","1","0","null","","","<img src = 'category2/CS1.png' width = '100%;'>","null","","","","","","","","","",""
"","html-keyboard-response","157","827044","0.0-10.0-2.4","5zuvk4gozr","many_one","0","direct_first","1","ee07ar12","0","24","1","1","3","1","","0","1","0","null","","","<img src = 'targets/36.png' width = '100%;'>","null","","","","","","","","","",""
"","html-keyboard-response","158","832839","0.0-10.0-3.4","5zuvk4gozr","many_one","0","direct_first","1","ee07ar12","0","24","1","1","3","1","","0","1","0","5794.314999999246","","","<img src = 'targets/mask.png' width = '100%;'>","75","pos","CS","CS","2","category2/CS1.png","","targets/36.png","indirect","1","4"
"","html-keyboard-response","159","834346","0.0-10.0-0.5","5zuvk4gozr","many_one","0","direct_first","1","ee07ar12","0","24","1","1","3","1","","0","1","0","null","","","<div style=""font-size:60px;"">+</div>","null","","","","","","","","","",""
"","html-keyboard-response","160","834440","0.0-10.0-1.5","5zuvk4gozr","many_one","0","direct_first","1","ee07ar12","0","24","1","1","3","1","","0","1","0","null","","","<img src = 'category3/CS8.png' width = '100%;'>","null","","","","","","","","","",""
"","html-keyboard-response","161","834700","0.0-10.0-2.5","5zuvk4gozr","many_one","0","direct_first","1","ee07ar12","0","24","1","1","3","1","","0","1","0","null","","","<img src = 'targets/34.png' width = '100%;'>","null","","","","","","","","","",""
"","html-keyboard-response","162","835615","0.0-10.0-3.5","5zuvk4gozr","many_one","0","direct_first","1","ee07ar12","0","24","1","1","3","1","","0","1","0","914.3499999990454","","","<img src = 'targets/mask.png' width = '100%;'>","75","pos","CS","CS","3","category3/CS8.png","","targets/34.png","indirect","1","5"
"","html-keyboard-response","163","837124","0.0-10.0-0.6","5zuvk4gozr","many_one","0","direct_first","1","ee07ar12","0","24","1","1","3","1","","0","1","0","null","","","<div style=""font-size:60px;"">+</div>","null","","","","","","","","","",""
"","html-keyboard-response","164","837219","0.0-10.0-1.6","5zuvk4gozr","many_one","0","direct_first","1","ee07ar12","0","24","1","1","3","1","","0","1","0","null","","","<img src = 'category4/CS1.png' width = '100%;'>","null","","","","","","","","","",""
"","html-keyboard-response","165","837475","0.0-10.0-2.6","5zuvk4gozr","many_one","0","direct_first","1","ee07ar12","0","24","1","1","3","1","","0","1","0","null","","","<img src = 'targets/13.png' width = '100%;'>","null","","","","","","","","","",""
"","html-keyboard-response","166","838383","0.0-10.0-3.6","5zuvk4gozr","many_one","0","direct_first","1","ee07ar12","0","24","1","1","3","1","","0","1","0","907.1200000033714","","","<img src = 'targets/mask.png' width = '100%;'>","68","neg","CS","CS","4","category4/CS1.png","","targets/13.png","indirect","0","6"
"","html-keyboard-response","167","839886","0.0-10.0-0.7","5zuvk4gozr","many_one","0","direct_first","1","ee07ar12","0","24","1","1","3","1","","0","1","0","null","","","<div style=""font-size:60px;"">+</div>","null","","","","","","","","","",""
"","html-keyboard-response","168","839980","0.0-10.0-1.7","5zuvk4gozr","many_one","0","direct_first","1","ee07ar12","0","24","1","1","3","1","","0","1","0","null","","","<img src = 'category1/CS8.png' width = '100%;'>","null","","","","","","","","","",""
"","html-keyboard-response","169","840238","0.0-10.0-2.7","5zuvk4gozr","many_one","0","direct_first","1","ee07ar12","0","24","1","1","3","1","","0","1","0","null","","","<img src = 'targets/44.png' width = '100%;'>","null","","","","","","","","","",""
"","html-keyboard-response","170","841374","0.0-10.0-3.7","5zuvk4gozr","many_one","0","direct_first","1","ee07ar12","0","24","1","1","3","1","","0","1","0","1135.645000002114","","","<img src = 'targets/mask.png' width = '100%;'>","68","neg","CS","CS","1","category1/CS8.png","","targets/44.png","indirect","0","7"
"","html-keyboard-response","171","842882","0.0-10.0-0.8","5zuvk4gozr","many_one","0","direct_first","1","ee07ar12","0","24","1","1","3","1","","0","1","0","null","","","<div style=""font-size:60px;"">+</div>","null","","","","","","","","","",""
"","html-keyboard-response","172","842978","0.0-10.0-1.8","5zuvk4gozr","many_one","0","direct_first","1","ee07ar12","0","24","1","1","3","1","","0","1","0","null","","","<img src = 'category1/CS3.png' width = '100%;'>","null","","","","","","","","","",""
"","html-keyboard-response","173","843237","0.0-10.0-2.8","5zuvk4gozr","many_one","0","direct_first","1","ee07ar12","0","24","1","1","3","1","","0","1","0","null","","","<img src = 'targets/10.png' width = '100%;'>","null","","","","","","","","","",""
"","html-keyboard-response","174","844774","0.0-10.0-3.8","5zuvk4gozr","many_one","0","direct_first","1","ee07ar12","0","24","1","1","3","1","","0","1","0","1536.8899999957066","","","<img src = 'targets/mask.png' width = '100%;'>","75","neg","GS","GSold","1","category1/CS3.png","","targets/10.png","indirect","1","8"
"","html-keyboard-response","175","846279","0.0-10.0-0.9","5zuvk4gozr","many_one","0","direct_first","1","ee07ar12","0","24","1","1","3","1","","0","1","0","null","","","<div style=""font-size:60px;"">+</div>","null","","","","","","","","","",""
"","html-keyboard-response","176","846374","0.0-10.0-1.9","5zuvk4gozr","many_one","0","direct_first","1","ee07ar12","0","24","1","1","3","1","","0","1","0","null","","","<img src = 'category2/CS10.png' width = '100%;'>","null","","","","","","","","","",""
"","html-keyboard-response","177","846629","0.0-10.0-2.9","5zuvk4gozr","many_one","0","direct_first","1","ee07ar12","0","24","1","1","3","1","","0","1","0","null","","","<img src = 'targets/35.png' width = '100%;'>","null","","","","","","","","","",""
"","html-keyboard-response","178","853571","0.0-10.0-3.9","5zuvk4gozr","many_one","0","direct_first","1","ee07ar12","0","24","1","1","3","1","","0","1","0","6940.920000000973","","","<img src = 'targets/mask.png' width = '100%;'>","68","pos","CS","CS","2","category2/CS10.png","","targets/35.png","indirect","0","9"
"","html-keyboard-response","179","855078","0.0-10.0-0.10","5zuvk4gozr","many_one","0","direct_first","1","ee07ar12","0","24","1","1","3","1","","0","1","0","null","","","<div style=""font-size:60px;"">+</div>","null","","","","","","","","","",""
"","html-keyboard-response","180","855174","0.0-10.0-1.10","5zuvk4gozr","many_one","0","direct_first","1","ee07ar12","0","24","1","1","3","1","","0","1","0","null","","","<img src = 'category3/CS4.png' width = '100%;'>","null","","","","","","","","","",""
"","html-keyboard-response","181","855429","0.0-10.0-2.10","5zuvk4gozr","many_one","0","direct_first","1","ee07ar12","0","24","1","1","3","1","","0","1","0","null","","","<img src = 'targets/31.png' width = '100%;'>","null","","","","","","","","","",""
"","html-keyboard-response","182","863088","0.0-10.0-3.10","5zuvk4gozr","many_one","0","direct_first","1","ee07ar12","0","24","1","1","3","1","","0","1","0","7658.054999999818","","","<img src = 'targets/mask.png' width = '100%;'>","68","pos","CS","CS","3","category3/CS4.png","","targets/31.png","indirect","0","10"
"","html-keyboard-response","183","864595","0.0-10.0-0.11","5zuvk4gozr","many_one","0","direct_first","1","ee07ar12","0","24","1","1","3","1","","0","1","0","null","","","<div style=""font-size:60px;"">+</div>","null","","","","","","","","","",""
"","html-keyboard-response","184","864688","0.0-10.0-1.11","5zuvk4gozr","many_one","0","direct_first","1","ee07ar12","0","24","1","1","3","1","","0","1","0","null","","","<img src = 'category4/CS10.png' width = '100%;'>","null","","","","","","","","","",""
"","html-keyboard-response","185","864943","0.0-10.0-2.11","5zuvk4gozr","many_one","0","direct_first","1","ee07ar12","0","24","1","1","3","1","","0","1","0","null","","","<img src = 'targets/11.png' width = '100%;'>","null","","","","","","","","","",""
"","html-keyboard-response","186","866176","0.0-10.0-3.11","5zuvk4gozr","many_one","0","direct_first","1","ee07ar12","0","24","1","1","3","1","","0","1","0","1232.1000000011409","","","<img src = 'targets/mask.png' width = '100%;'>","68","neg","CS","CS","4","category4/CS10.png","","targets/11.png","indirect","0","11"
"","html-keyboard-response","187","867683","0.0-10.0-0.12","5zuvk4gozr","many_one","0","direct_first","1","ee07ar12","0","24","1","1","3","1","","0","1","0","null","","","<div style=""font-size:60px;"">+</div>","null","","","","","","","","","",""
"","html-keyboard-response","188","867776","0.0-10.0-1.12","5zuvk4gozr","many_one","0","direct_first","1","ee07ar12","0","24","1","1","3","1","","0","1","0","null","","","<img src = 'category1/CS6.png' width = '100%;'>","null","","","","","","","","","",""
"","html-keyboard-response","189","868031","0.0-10.0-2.12","5zuvk4gozr","many_one","0","direct_first","1","ee07ar12","0","24","1","1","3","1","","0","1","0","null","","","<img src = 'targets/2.png' width = '100%;'>","null","","","","","","","","","",""
"","html-keyboard-response","190","872767","0.0-10.0-3.12","5zuvk4gozr","many_one","0","direct_first","1","ee07ar12","0","24","1","1","3","1","","0","1","0","4734.824999999488","","","<img src = 'targets/mask.png' width = '100%;'>","75","neg","CS","CS","1","category1/CS6.png","","targets/2.png","indirect","1","12"
"","html-keyboard-response","191","874275","0.0-10.0-0.13","5zuvk4gozr","many_one","0","direct_first","1","ee07ar12","0","24","1","1","3","1","","0","1","0","null","","","<div style=""font-size:60px;"">+</div>","null","","","","","","","","","",""
"","html-keyboard-response","192","874370","0.0-10.0-1.13","5zuvk4gozr","many_one","0","direct_first","1","ee07ar12","0","24","1","1","3","1","","0","1","0","null","","","<img src = 'category1/CS10.png' width = '100%;'>","null","","","","","","","","","",""
"","html-keyboard-response","193","874626","0.0-10.0-2.13","5zuvk4gozr","many_one","0","direct_first","1","ee07ar12","0","24","1","1","3","1","","0","1","0","null","","","<img src = 'targets/37.png' width = '100%;'>","null","","","","","","","","","",""
"","html-keyboard-response","194","876319","0.0-10.0-3.13","5zuvk4gozr","many_one","0","direct_first","1","ee07ar12","0","24","1","1","3","1","","0","1","0","1692.9950000048848","","","<img src = 'targets/mask.png' width = '100%;'>","75","neg","CS","CS","1","category1/CS10.png","","targets/37.png","indirect","1","13"
"","html-keyboard-response","195","877827","0.0-10.0-0.14","5zuvk4gozr","many_one","0","direct_first","1","ee07ar12","0","24","1","1","3","1","","0","1","0","null","","","<div style=""font-size:60px;"">+</div>","null","","","","","","","","","",""
"","html-keyboard-response","196","877923","0.0-10.0-1.14","5zuvk4gozr","many_one","0","direct_first","1","ee07ar12","0","24","1","1","3","1","","0","1","0","null","","","<img src = 'category1/CS1.png' width = '100%;'>","null","","","","","","","","","",""
"","html-keyboard-response","197","878182","0.0-10.0-2.14","5zuvk4gozr","many_one","0","direct_first","1","ee07ar12","0","24","1","1","3","1","","0","1","0","null","","","<img src = 'targets/45.png' width = '100%;'>","null","","","","","","","","","",""
"","html-keyboard-response","198","880206","0.0-10.0-3.14","5zuvk4gozr","many_one","0","direct_first","1","ee07ar12","0","24","1","1","3","1","","0","1","0","2023.110000001965","","","<img src = 'targets/mask.png' width = '100%;'>","75","neg","GS","GSold","1","category1/CS1.png","","targets/45.png","indirect","1","14"
"","html-keyboard-response","199","881710","0.0-10.0-0.15","5zuvk4gozr","many_one","0","direct_first","1","ee07ar12","0","24","1","1","3","1","","0","1","0","null","","","<div style=""font-size:60px;"">+</div>","null","","","","","","","","","",""
"","html-keyboard-response","200","881804","0.0-10.0-1.15","5zuvk4gozr","many_one","0","direct_first","1","ee07ar12","0","24","1","1","3","1","","0","1","0","null","","","<img src = 'category3/CS5.png' width = '100%;'>","null","","","","","","","","","",""
"","html-keyboard-response","201","882061","0.0-10.0-2.15","5zuvk4gozr","many_one","0","direct_first","1","ee07ar12","0","24","1","1","3","1","","0","1","0","null","","","<img src = 'targets/42.png' width = '100%;'>","null","","","","","","","","","",""
"","html-keyboard-response","202","883086","0.0-10.0-3.15","5zuvk4gozr","many_one","0","direct_first","1","ee07ar12","0","24","1","1","3","1","","0","1","0","1023.1300000014016","","","<img src = 'targets/mask.png' width = '100%;'>","68","pos","CS","CS","3","category3/CS5.png","","targets/42.png","indirect","0","15"
"","html-keyboard-response","203","884592","0.0-10.0-0.16","5zuvk4gozr","many_one","0","direct_first","1","ee07ar12","0","24","1","1","3","1","","0","1","0","null","","","<div style=""font-size:60px;"">+</div>","null","","","","","","","","","",""
"","html-keyboard-response","204","884685","0.0-10.0-1.16","5zuvk4gozr","many_one","0","direct_first","1","ee07ar12","0","24","1","1","3","1","","0","1","0","null","","","<img src = 'category3/CS7.png' width = '100%;'>","null","","","","","","","","","",""
"","html-keyboard-response","205","884941","0.0-10.0-2.16","5zuvk4gozr","many_one","0","direct_first","1","ee07ar12","0","24","1","1","3","1","","0","1","0","null","","","<img src = 'targets/4.png' width = '100%;'>","null","","","","","","","","","",""
"","html-keyboard-response","206","886743","0.0-10.0-3.16","5zuvk4gozr","many_one","0","direct_first","1","ee07ar12","0","24","1","1","3","1","","0","1","0","1801.7749999999069","","","<img src = 'targets/mask.png' width = '100%;'>","68","pos","CS","CS","3","category3/CS7.png","","targets/4.png","indirect","0","16"
"","html-keyboard-response","207","888249","0.0-10.0-0.17","5zuvk4gozr","many_one","0","direct_first","1","ee07ar12","0","24","1","1","3","1","","0","1","0","null","","","<div style=""font-size:60px;"">+</div>","null","","","","","","","","","",""
"","html-keyboard-response","208","888342","0.0-10.0-1.17","5zuvk4gozr","many_one","0","direct_first","1","ee07ar12","0","24","1","1","3","1","","0","1","0","null","","","<img src = 'category4/CS3.png' width = '100%;'>","null","","","","","","","","","",""
"","html-keyboard-response","209","888598","0.0-10.0-2.17","5zuvk4gozr","many_one","0","direct_first","1","ee07ar12","0","24","1","1","3","1","","0","1","0","null","","","<img src = 'targets/29.png' width = '100%;'>","null","","","","","","","","","",""
"","html-keyboard-response","210","889453","0.0-10.0-3.17","5zuvk4gozr","many_one","0","direct_first","1","ee07ar12","0","24","1","1","3","1","","0","1","0","854.6399999976857","","","<img src = 'targets/mask.png' width = '100%;'>","75","neg","CS","CS","4","category4/CS3.png","","targets/29.png","indirect","1","17"
"","html-keyboard-response","211","890960","0.0-10.0-0.18","5zuvk4gozr","many_one","0","direct_first","1","ee07ar12","0","24","1","1","3","1","","0","1","0","null","","","<div style=""font-size:60px;"">+</div>","null","","","","","","","","","",""
"","html-keyboard-response","212","891053","0.0-10.0-1.18","5zuvk4gozr","many_one","0","direct_first","1","ee07ar12","0","24","1","1","3","1","","0","1","0","null","","","<img src = 'category4/CS9.png' width = '100%;'>","null","","","","","","","","","",""
"","html-keyboard-response","213","891309","0.0-10.0-2.18","5zuvk4gozr","many_one","0","direct_first","1","ee07ar12","0","24","1","1","3","1","","0","1","0","null","","","<img src = 'targets/32.png' width = '100%;'>","null","","","","","","","","","",""
"","html-keyboard-response","214","894298","0.0-10.0-3.18","5zuvk4gozr","many_one","0","direct_first","1","ee07ar12","0","24","1","1","3","1","","0","1","0","2988.6199999963865","","","<img src = 'targets/mask.png' width = '100%;'>","68","neg","CS","CS","4","category4/CS9.png","","targets/32.png","indirect","0","18"
"","html-keyboard-response","215","895805","0.0-10.0-0.19","5zuvk4gozr","many_one","0","direct_first","1","ee07ar12","0","24","1","1","3","1","","0","1","0","null","","","<div style=""font-size:60px;"">+</div>","null","","","","","","","","","",""
"","html-keyboard-response","216","895900","0.0-10.0-1.19","5zuvk4gozr","many_one","0","direct_first","1","ee07ar12","0","24","1","1","3","1","","0","1","0","null","","","<img src = 'category2/CS2.png' width = '100%;'>","null","","","","","","","","","",""
"","html-keyboard-response","217","896158","0.0-10.0-2.19","5zuvk4gozr","many_one","0","direct_first","1","ee07ar12","0","24","1","1","3","1","","0","1","0","null","","","<img src = 'targets/23.png' width = '100%;'>","null","","","","","","","","","",""
"","html-keyboard-response","218","898640","0.0-10.0-3.19","5zuvk4gozr","many_one","0","direct_first","1","ee07ar12","0","24","1","1","3","1","","0","1","0","2480.4750000040513","","","<img src = 'targets/mask.png' width = '100%;'>","75","pos","GS","GSold","2","category2/CS2.png","","targets/23.png","indirect","1","19"
"","html-keyboard-response","219","900147","0.0-10.0-0.20","5zuvk4gozr","many_one","0","direct_first","1","ee07ar12","0","24","1","1","3","1","","0","1","0","null","","","<div style=""font-size:60px;"">+</div>","null","","","","","","","","","",""
"","html-keyboard-response","220","900242","0.0-10.0-1.20","5zuvk4gozr","many_one","0","direct_first","1","ee07ar12","0","24","1","1","3","1","","0","1","0","null","","","<img src = 'category1/CS4.png' width = '100%;'>","null","","","","","","","","","",""
"","html-keyboard-response","221","900500","0.0-10.0-2.20","5zuvk4gozr","many_one","0","direct_first","1","ee07ar12","0","24","1","1","3","1","","0","1","0","null","","","<img src = 'targets/19.png' width = '100%;'>","null","","","","","","","","","",""
"","html-keyboard-response","222","904721","0.0-10.0-3.20","5zuvk4gozr","many_one","0","direct_first","1","ee07ar12","0","24","1","1","3","1","","0","1","0","4220.7550000021","","","<img src = 'targets/mask.png' width = '100%;'>","68","neg","CS","CS","1","category1/CS4.png","","targets/19.png","indirect","0","20"
"","html-keyboard-response","223","906227","0.0-10.0-0.21","5zuvk4gozr","many_one","0","direct_first","1","ee07ar12","0","24","1","1","3","1","","0","1","0","null","","","<div style=""font-size:60px;"">+</div>","null","","","","","","","","","",""
"","html-keyboard-response","224","906323","0.0-10.0-1.21","5zuvk4gozr","many_one","0","direct_first","1","ee07ar12","0","24","1","1","3","1","","0","1","0","null","","","<img src = 'category2/CS5.png' width = '100%;'>","null","","","","","","","","","",""
"","html-keyboard-response","225","906581","0.0-10.0-2.21","5zuvk4gozr","many_one","0","direct_first","1","ee07ar12","0","24","1","1","3","1","","0","1","0","null","","","<img src = 'targets/25.png' width = '100%;'>","null","","","","","","","","","",""
"","html-keyboard-response","226","907761","0.0-10.0-3.21","5zuvk4gozr","many_one","0","direct_first","1","ee07ar12","0","24","1","1","3","1","","0","1","0","1179.2449999994133","","","<img src = 'targets/mask.png' width = '100%;'>","75","pos","CS","CS","2","category2/CS5.png","","targets/25.png","indirect","1","21"
"","html-keyboard-response","227","909269","0.0-10.0-0.22","5zuvk4gozr","many_one","0","direct_first","1","ee07ar12","0","24","1","1","3","1","","0","1","0","null","","","<div style=""font-size:60px;"">+</div>","null","","","","","","","","","",""
"","html-keyboard-response","228","909361","0.0-10.0-1.22","5zuvk4gozr","many_one","0","direct_first","1","ee07ar12","0","24","1","1","3","1","","0","1","0","null","","","<img src = 'category2/CS8.png' width = '100%;'>","null","","","","","","","","","",""
"","html-keyboard-response","229","909617","0.0-10.0-2.22","5zuvk4gozr","many_one","0","direct_first","1","ee07ar12","0","24","1","1","3","1","","0","1","0","null","","","<img src = 'targets/46.png' width = '100%;'>","null","","","","","","","","","",""
"","html-keyboard-response","230","910466","0.0-10.0-3.22","5zuvk4gozr","many_one","0","direct_first","1","ee07ar12","0","24","1","1","3","1","","0","1","0","847.9299999963259","","","<img src = 'targets/mask.png' width = '100%;'>","75","pos","CS","CS","2","category2/CS8.png","","targets/46.png","indirect","1","22"
"","html-keyboard-response","231","911974","0.0-10.0-0.23","5zuvk4gozr","many_one","0","direct_first","1","ee07ar12","0","24","1","1","3","1","","0","1","0","null","","","<div style=""font-size:60px;"">+</div>","null","","","","","","","","","",""
"","html-keyboard-response","232","912067","0.0-10.0-1.23","5zuvk4gozr","many_one","0","direct_first","1","ee07ar12","0","24","1","1","3","1","","0","1","0","null","","","<img src = 'category1/CS5.png' width = '100%;'>","null","","","","","","","","","",""
"","html-keyboard-response","233","912322","0.0-10.0-2.23","5zuvk4gozr","many_one","0","direct_first","1","ee07ar12","0","24","1","1","3","1","","0","1","0","null","","","<img src = 'targets/28.png' width = '100%;'>","null","","","","","","","","","",""
"","html-keyboard-response","234","913505","0.0-10.0-3.23","5zuvk4gozr","many_one","0","direct_first","1","ee07ar12","0","24","1","1","3","1","","0","1","0","1182.4849999975413","","","<img src = 'targets/mask.png' width = '100%;'>","68","neg","CS","CS","1","category1/CS5.png","","targets/28.png","indirect","0","23"
"","survey-html-form","235","922122","0.0-11.0","5zuvk4gozr","many_one","0","direct_first","1","ee07ar12","0","24","1","1","3","1","","0","1","0","8116.439999997965","","{}","","","","","","","","","","","",""
"","html-keyboard-response","236","925130","0.0-12.0-0.0","5zuvk4gozr","many_one","0","direct_first","1","ee07ar12","0","24","1","1","3","1","","0","1","0","null","","","<div style=""font-size:60px;"">+</div>","null","","","","","","","","","",""
"","html-keyboard-response","237","925226","0.0-12.0-1.0","5zuvk4gozr","many_one","0","direct_first","1","ee07ar12","0","24","1","1","3","1","","0","1","0","null","","","<img src = 'category1/GS2.png' width = '100%;'>","null","","","","","","","","","",""
"","html-keyboard-response","238","925481","0.0-12.0-2.0","5zuvk4gozr","many_one","0","direct_first","1","ee07ar12","0","24","1","1","3","1","","0","1","0","null","","","<img src = 'targets/22.png' width = '100%;'>","null","","","","","","","","","",""
"","html-keyboard-response","239","927068","0.0-12.0-3.0","5zuvk4gozr","many_one","0","direct_first","1","ee07ar12","0","24","1","1","3","1","","0","1","0","1585.6750000020256","","","<img src = 'targets/mask.png' width = '100%;'>","68","neg","GS","GSnew","1","category1/GS2.png","","targets/22.png","indirect","0","24"
"","html-keyboard-response","240","928575","0.0-12.0-0.1","5zuvk4gozr","many_one","0","direct_first","1","ee07ar12","0","24","1","1","3","1","","0","1","0","null","","","<div style=""font-size:60px;"">+</div>","null","","","","","","","","","",""
"","html-keyboard-response","241","928668","0.0-12.0-1.1","5zuvk4gozr","many_one","0","direct_first","1","ee07ar12","0","24","1","1","3","1","","0","1","0","null","","","<img src = 'category3/wang.png' width = '100%;'>","null","","","","","","","","","",""
"","html-keyboard-response","242","928924","0.0-12.0-2.1","5zuvk4gozr","many_one","0","direct_first","1","ee07ar12","0","24","1","1","3","1","","0","1","0","null","","","<img src = 'targets/17.png' width = '100%;'>","null","","","","","","","","","",""
"","html-keyboard-response","243","934148","0.0-12.0-3.1","5zuvk4gozr","many_one","0","direct_first","1","ee07ar12","0","24","1","1","3","1","","0","1","0","5223.470000004512","","","<img src = 'targets/mask.png' width = '100%;'>","75","pos","GS","abstract","3","category3/wang.png","","targets/17.png","indirect","1","25"
"","html-keyboard-response","244","935657","0.0-12.0-0.2","5zuvk4gozr","many_one","0","direct_first","1","ee07ar12","0","24","1","1","3","1","","0","1","0","null","","","<div style=""font-size:60px;"">+</div>","null","","","","","","","","","",""
"","html-keyboard-response","245","935750","0.0-12.0-1.2","5zuvk4gozr","many_one","0","direct_first","1","ee07ar12","0","24","1","1","3","1","","0","1","0","null","","","<img src = 'category4/lin.png' width = '100%;'>","null","","","","","","","","","",""
"","html-keyboard-response","246","936006","0.0-12.0-2.2","5zuvk4gozr","many_one","0","direct_first","1","ee07ar12","0","24","1","1","3","1","","0","1","0","null","","","<img src = 'targets/21.png' width = '100%;'>","null","","","","","","","","","",""
"","html-keyboard-response","247","937387","0.0-12.0-3.2","5zuvk4gozr","many_one","0","direct_first","1","ee07ar12","0","24","1","1","3","1","","0","1","0","1380.1049999966053","","","<img src = 'targets/mask.png' width = '100%;'>","68","neg","GS","abstract","4","category4/lin.png","","targets/21.png","indirect","0","26"
"","html-keyboard-response","248","938894","0.0-12.0-0.3","5zuvk4gozr","many_one","0","direct_first","1","ee07ar12","0","24","1","1","3","1","","0","1","0","null","","","<div style=""font-size:60px;"">+</div>","null","","","","","","","","","",""
"","html-keyboard-response","249","938989","0.0-12.0-1.3","5zuvk4gozr","many_one","0","direct_first","1","ee07ar12","0","24","1","1","3","1","","0","1","0","null","","","<img src = 'category4/CS7.png' width = '100%;'>","null","","","","","","","","","",""
"","html-keyboard-response","250","939245","0.0-12.0-2.3","5zuvk4gozr","many_one","0","direct_first","1","ee07ar12","0","24","1","1","3","1","","0","1","0","null","","","<img src = 'targets/40.png' width = '100%;'>","null","","","","","","","","","",""
"","html-keyboard-response","251","941027","0.0-12.0-3.3","5zuvk4gozr","many_one","0","direct_first","1","ee07ar12","0","24","1","1","3","1","","0","1","0","1781.4199999994598","","","<img src = 'targets/mask.png' width = '100%;'>","68","neg","GS","GSold","4","category4/CS7.png","","targets/40.png","indirect","0","27"
"","html-keyboard-response","252","942537","0.0-12.0-0.4","5zuvk4gozr","many_one","0","direct_first","1","ee07ar12","0","24","1","1","3","1","","0","1","0","null","","","<div style=""font-size:60px;"">+</div>","null","","","","","","","","","",""
"","html-keyboard-response","253","942632","0.0-12.0-1.4","5zuvk4gozr","many_one","0","direct_first","1","ee07ar12","0","24","1","1","3","1","","0","1","0","null","","","<img src = 'category4/CS8.png' width = '100%;'>","null","","","","","","","","","",""
"","html-keyboard-response","254","942890","0.0-12.0-2.4","5zuvk4gozr","many_one","0","direct_first","1","ee07ar12","0","24","1","1","3","1","","0","1","0","null","","","<img src = 'targets/16.png' width = '100%;'>","null","","","","","","","","","",""
"","html-keyboard-response","255","945131","0.0-12.0-3.4","5zuvk4gozr","many_one","0","direct_first","1","ee07ar12","0","24","1","1","3","1","","0","1","0","2240.0349999952596","","","<img src = 'targets/mask.png' width = '100%;'>","75","neg","GS","GSold","4","category4/CS8.png","","targets/16.png","indirect","1","28"
"","html-keyboard-response","256","946638","0.0-12.0-0.5","5zuvk4gozr","many_one","0","direct_first","1","ee07ar12","0","24","1","1","3","1","","0","1","0","null","","","<div style=""font-size:60px;"">+</div>","null","","","","","","","","","",""
"","html-keyboard-response","257","946733","0.0-12.0-1.5","5zuvk4gozr","many_one","0","direct_first","1","ee07ar12","0","24","1","1","3","1","","0","1","0","null","","","<img src = 'category3/CS10.png' width = '100%;'>","null","","","","","","","","","",""
"","html-keyboard-response","258","946990","0.0-12.0-2.5","5zuvk4gozr","many_one","0","direct_first","1","ee07ar12","0","24","1","1","3","1","","0","1","0","null","","","<img src = 'targets/27.png' width = '100%;'>","null","","","","","","","","","",""
"","html-keyboard-response","259","949674","0.0-12.0-3.5","5zuvk4gozr","many_one","0","direct_first","1","ee07ar12","0","24","1","1","3","1","","0","1","0","2682.5949999983422","","","<img src = 'targets/mask.png' width = '100%;'>","68","pos","GS","GSold","3","category3/CS10.png","","targets/27.png","indirect","0","29"
"","html-keyboard-response","260","951183","0.0-12.0-0.6","5zuvk4gozr","many_one","0","direct_first","1","ee07ar12","0","24","1","1","3","1","","0","1","0","null","","","<div style=""font-size:60px;"">+</div>","null","","","","","","","","","",""
"","html-keyboard-response","261","951278","0.0-12.0-1.6","5zuvk4gozr","many_one","0","direct_first","1","ee07ar12","0","24","1","1","3","1","","0","1","0","null","","","<img src = 'category4/GS2.png' width = '100%;'>","null","","","","","","","","","",""
"","html-keyboard-response","262","951531","0.0-12.0-2.6","5zuvk4gozr","many_one","0","direct_first","1","ee07ar12","0","24","1","1","3","1","","0","1","0","null","","","<img src = 'targets/15.png' width = '100%;'>","null","","","","","","","","","",""
"","html-keyboard-response","263","953266","0.0-12.0-3.6","5zuvk4gozr","many_one","0","direct_first","1","ee07ar12","0","24","1","1","3","1","","0","1","0","1733.874999998021","","","<img src = 'targets/mask.png' width = '100%;'>","75","neg","GS","GSnew","4","category4/GS2.png","","targets/15.png","indirect","1","30"
"","html-keyboard-response","264","954770","0.0-12.0-0.7","5zuvk4gozr","many_one","0","direct_first","1","ee07ar12","0","24","1","1","3","1","","0","1","0","null","","","<div style=""font-size:60px;"">+</div>","null","","","","","","","","","",""
"","html-keyboard-response","265","954865","0.0-12.0-1.7","5zuvk4gozr","many_one","0","direct_first","1","ee07ar12","0","24","1","1","3","1","","0","1","0","null","","","<img src = 'category1/ma.png' width = '100%;'>","null","","","","","","","","","",""
"","html-keyboard-response","266","955121","0.0-12.0-2.7","5zuvk4gozr","many_one","0","direct_first","1","ee07ar12","0","24","1","1","3","1","","0","1","0","null","","","<img src = 'targets/5.png' width = '100%;'>","null","","","","","","","","","",""
"","html-keyboard-response","267","955979","0.0-12.0-3.7","5zuvk4gozr","many_one","0","direct_first","1","ee07ar12","0","24","1","1","3","1","","0","1","0","857.2649999987334","","","<img src = 'targets/mask.png' width = '100%;'>","75","neg","GS","abstract","1","category1/ma.png","","targets/5.png","indirect","1","31"
"","html-keyboard-response","268","957487","0.0-12.0-0.8","5zuvk4gozr","many_one","0","direct_first","1","ee07ar12","0","24","1","1","3","1","","0","1","0","null","","","<div style=""font-size:60px;"">+</div>","null","","","","","","","","","",""
"","html-keyboard-response","269","957582","0.0-12.0-1.8","5zuvk4gozr","many_one","0","direct_first","1","ee07ar12","0","24","1","1","3","1","","0","1","0","null","","","<img src = 'category2/GS1.png' width = '100%;'>","null","","","","","","","","","",""
"","html-keyboard-response","270","957837","0.0-12.0-2.8","5zuvk4gozr","many_one","0","direct_first","1","ee07ar12","0","24","1","1","3","1","","0","1","0","null","","","<img src = 'targets/24.png' width = '100%;'>","null","","","","","","","","","",""
"","html-keyboard-response","271","959002","0.0-12.0-3.8","5zuvk4gozr","many_one","0","direct_first","1","ee07ar12","0","24","1","1","3","1","","0","1","0","1163.5500000048196","","","<img src = 'targets/mask.png' width = '100%;'>","68","pos","GS","GSnew","2","category2/GS1.png","","targets/24.png","indirect","0","32"
"","html-keyboard-response","272","960508","0.0-12.0-0.9","5zuvk4gozr","many_one","0","direct_first","1","ee07ar12","0","24","1","1","3","1","","0","1","0","null","","","<div style=""font-size:60px;"">+</div>","null","","","","","","","","","",""
"","html-keyboard-response","273","960601","0.0-12.0-1.9","5zuvk4gozr","many_one","0","direct_first","1","ee07ar12","0","24","1","1","3","1","","0","1","0","null","","","<img src = 'category3/GS2.png' width = '100%;'>","null","","","","","","","","","",""
"","html-keyboard-response","274","960856","0.0-12.0-2.9","5zuvk4gozr","many_one","0","direct_first","1","ee07ar12","0","24","1","1","3","1","","0","1","0","null","","","<img src = 'targets/48.png' width = '100%;'>","null","","","","","","","","","",""
"","html-keyboard-response","275","962194","0.0-12.0-3.9","5zuvk4gozr","many_one","0","direct_first","1","ee07ar12","0","24","1","1","3","1","","0","1","0","1336.9499999971595","","","<img src = 'targets/mask.png' width = '100%;'>","75","pos","GS","GSnew","3","category3/GS2.png","","targets/48.png","indirect","1","33"
"","html-keyboard-response","276","963700","0.0-12.0-0.10","5zuvk4gozr","many_one","0","direct_first","1","ee07ar12","0","24","1","1","3","1","","0","1","0","null","","","<div style=""font-size:60px;"">+</div>","null","","","","","","","","","",""
"","html-keyboard-response","277","963793","0.0-12.0-1.10","5zuvk4gozr","many_one","0","direct_first","1","ee07ar12","0","24","1","1","3","1","","0","1","0","null","","","<img src = 'category4/GS1.png' width = '100%;'>","null","","","","","","","","","",""
"","html-keyboard-response","278","964049","0.0-12.0-2.10","5zuvk4gozr","many_one","0","direct_first","1","ee07ar12","0","24","1","1","3","1","","0","1","0","null","","","<img src = 'targets/41.png' width = '100%;'>","null","","","","","","","","","",""
"","html-keyboard-response","279","965090","0.0-12.0-3.10","5zuvk4gozr","many_one","0","direct_first","1","ee07ar12","0","24","1","1","3","1","","0","1","0","1039.9900000048801","","","<img src = 'targets/mask.png' width = '100%;'>","75","neg","GS","GSnew","4","category4/GS1.png","","targets/41.png","indirect","1","34"
"","html-keyboard-response","280","966597","0.0-12.0-0.11","5zuvk4gozr","many_one","0","direct_first","1","ee07ar12","0","24","1","1","3","1","","0","1","0","null","","","<div style=""font-size:60px;"">+</div>","null","","","","","","","","","",""
"","html-keyboard-response","281","966690","0.0-12.0-1.11","5zuvk4gozr","many_one","0","direct_first","1","ee07ar12","0","24","1","1","3","1","","0","1","0","null","","","<img src = 'category2/GS2.png' width = '100%;'>","null","","","","","","","","","",""
"","html-keyboard-response","282","966945","0.0-12.0-2.11","5zuvk4gozr","many_one","0","direct_first","1","ee07ar12","0","24","1","1","3","1","","0","1","0","null","","","<img src = 'targets/6.png' width = '100%;'>","null","","","","","","","","","",""
"","html-keyboard-response","283","968698","0.0-12.0-3.11","5zuvk4gozr","many_one","0","direct_first","1","ee07ar12","0","24","1","1","3","1","","0","1","0","1752.6599999982864","","","<img src = 'targets/mask.png' width = '100%;'>","75","pos","GS","GSnew","2","category2/GS2.png","","targets/6.png","indirect","1","35"
"","html-keyboard-response","284","970207","0.0-12.0-0.12","5zuvk4gozr","many_one","0","direct_first","1","ee07ar12","0","24","1","1","3","1","","0","1","0","null","","","<div style=""font-size:60px;"">+</div>","null","","","","","","","","","",""
"","html-keyboard-response","285","970300","0.0-12.0-1.12","5zuvk4gozr","many_one","0","direct_first","1","ee07ar12","0","24","1","1","3","1","","0","1","0","null","","","<img src = 'category1/GS1.png' width = '100%;'>","null","","","","","","","","","",""
"","html-keyboard-response","286","970556","0.0-12.0-2.12","5zuvk4gozr","many_one","0","direct_first","1","ee07ar12","0","24","1","1","3","1","","0","1","0","null","","","<img src = 'targets/20.png' width = '100%;'>","null","","","","","","","","","",""
"","html-keyboard-response","287","971450","0.0-12.0-3.12","5zuvk4gozr","many_one","0","direct_first","1","ee07ar12","0","24","1","1","3","1","","0","1","0","892.8200000008801","","","<img src = 'targets/mask.png' width = '100%;'>","68","neg","GS","GSnew","1","category1/GS1.png","","targets/20.png","indirect","0","36"
"","html-keyboard-response","288","972957","0.0-12.0-0.13","5zuvk4gozr","many_one","0","direct_first","1","ee07ar12","0","24","1","1","3","1","","0","1","0","null","","","<div style=""font-size:60px;"">+</div>","null","","","","","","","","","",""
"","html-keyboard-response","289","973052","0.0-12.0-1.13","5zuvk4gozr","many_one","0","direct_first","1","ee07ar12","0","24","1","1","3","1","","0","1","0","null","","","<img src = 'category2/CS7.png' width = '100%;'>","null","","","","","","","","","",""
"","html-keyboard-response","290","973310","0.0-12.0-2.13","5zuvk4gozr","many_one","0","direct_first","1","ee07ar12","0","24","1","1","3","1","","0","1","0","null","","","<img src = 'targets/26.png' width = '100%;'>","null","","","","","","","","","",""
"","html-keyboard-response","291","975330","0.0-12.0-3.13","5zuvk4gozr","many_one","0","direct_first","1","ee07ar12","0","24","1","1","3","1","","0","1","0","2019.1500000001397","","","<img src = 'targets/mask.png' width = '100%;'>","68","pos","GS","GSold","2","category2/CS7.png","","targets/26.png","indirect","0","37"
"","html-keyboard-response","292","976837","0.0-12.0-0.14","5zuvk4gozr","many_one","0","direct_first","1","ee07ar12","0","24","1","1","3","1","","0","1","0","null","","","<div style=""font-size:60px;"">+</div>","null","","","","","","","","","",""
"","html-keyboard-response","293","976930","0.0-12.0-1.14","5zuvk4gozr","many_one","0","direct_first","1","ee07ar12","0","24","1","1","3","1","","0","1","0","null","","","<img src = 'category3/GS1.png' width = '100%;'>","null","","","","","","","","","",""
"","html-keyboard-response","294","977188","0.0-12.0-2.14","5zuvk4gozr","many_one","0","direct_first","1","ee07ar12","0","24","1","1","3","1","","0","1","0","null","","","<img src = 'targets/9.png' width = '100%;'>","null","","","","","","","","","",""
"","html-keyboard-response","295","978066","0.0-12.0-3.14","5zuvk4gozr","many_one","0","direct_first","1","ee07ar12","0","24","1","1","3","1","","0","1","0","876.1699999959674","","","<img src = 'targets/mask.png' width = '100%;'>","75","pos","GS","GSnew","3","category3/GS1.png","","targets/9.png","indirect","1","38"
"","html-keyboard-response","296","979574","0.0-12.0-0.15","5zuvk4gozr","many_one","0","direct_first","1","ee07ar12","0","24","1","1","3","1","","0","1","0","null","","","<div style=""font-size:60px;"">+</div>","null","","","","","","","","","",""
"","html-keyboard-response","297","979670","0.0-12.0-1.15","5zuvk4gozr","many_one","0","direct_first","1","ee07ar12","0","24","1","1","3","1","","0","1","0","null","","","<img src = 'category1/GS3.png' width = '100%;'>","null","","","","","","","","","",""
"","html-keyboard-response","298","979925","0.0-12.0-2.15","5zuvk4gozr","many_one","0","direct_first","1","ee07ar12","0","24","1","1","3","1","","0","1","0","null","","","<img src = 'targets/14.png' width = '100%;'>","null","","","","","","","","","",""
"","html-keyboard-response","299","981226","0.0-12.0-3.15","5zuvk4gozr","many_one","0","direct_first","1","ee07ar12","0","24","1","1","3","1","","0","1","0","1300.4650000002002","","","<img src = 'targets/mask.png' width = '100%;'>","75","neg","GS","GSnew","1","category1/GS3.png","","targets/14.png","indirect","1","39"
"","html-keyboard-response","300","982734","0.0-12.0-0.16","5zuvk4gozr","many_one","0","direct_first","1","ee07ar12","0","24","1","1","3","1","","0","1","0","null","","","<div style=""font-size:60px;"">+</div>","null","","","","","","","","","",""
"","html-keyboard-response","301","982827","0.0-12.0-1.16","5zuvk4gozr","many_one","0","direct_first","1","ee07ar12","0","24","1","1","3","1","","0","1","0","null","","","<img src = 'category2/CS9.png' width = '100%;'>","null","","","","","","","","","",""
"","html-keyboard-response","302","983085","0.0-12.0-2.16","5zuvk4gozr","many_one","0","direct_first","1","ee07ar12","0","24","1","1","3","1","","0","1","0","null","","","<img src = 'targets/39.png' width = '100%;'>","null","","","","","","","","","",""
"","html-keyboard-response","303","985602","0.0-12.0-3.16","5zuvk4gozr","many_one","0","direct_first","1","ee07ar12","0","24","1","1","3","1","","0","1","0","2516.3399999946123","","","<img src = 'targets/mask.png' width = '100%;'>","75","pos","GS","GSold","2","category2/CS9.png","","targets/39.png","indirect","1","40"
"","html-keyboard-response","304","987108","0.0-12.0-0.17","5zuvk4gozr","many_one","0","direct_first","1","ee07ar12","0","24","1","1","3","1","","0","1","0","null","","","<div style=""font-size:60px;"">+</div>","null","","","","","","","","","",""
"","html-keyboard-response","305","987202","0.0-12.0-1.17","5zuvk4gozr","many_one","0","direct_first","1","ee07ar12","0","24","1","1","3","1","","0","1","0","null","","","<img src = 'category3/CS9.png' width = '100%;'>","null","","","","","","","","","",""
"","html-keyboard-response","306","987459","0.0-12.0-2.17","5zuvk4gozr","many_one","0","direct_first","1","ee07ar12","0","24","1","1","3","1","","0","1","0","null","","","<img src = 'targets/1.png' width = '100%;'>","null","","","","","","","","","",""
"","html-keyboard-response","307","988697","0.0-12.0-3.17","5zuvk4gozr","many_one","0","direct_first","1","ee07ar12","0","24","1","1","3","1","","0","1","0","1237.0250000022352","","","<img src = 'targets/mask.png' width = '100%;'>","75","pos","GS","GSold","3","category3/CS9.png","","targets/1.png","indirect","1","41"
"","html-keyboard-response","308","990203","0.0-12.0-0.18","5zuvk4gozr","many_one","0","direct_first","1","ee07ar12","0","24","1","1","3","1","","0","1","0","null","","","<div style=""font-size:60px;"">+</div>","null","","","","","","","","","",""
"","html-keyboard-response","309","990298","0.0-12.0-1.18","5zuvk4gozr","many_one","0","direct_first","1","ee07ar12","0","24","1","1","3","1","","0","1","0","null","","","<img src = 'category2/GS3.png' width = '100%;'>","null","","","","","","","","","",""
"","html-keyboard-response","310","990553","0.0-12.0-2.18","5zuvk4gozr","many_one","0","direct_first","1","ee07ar12","0","24","1","1","3","1","","0","1","0","null","","","<img src = 'targets/33.png' width = '100%;'>","null","","","","","","","","","",""
"","html-keyboard-response","311","991594","0.0-12.0-3.18","5zuvk4gozr","many_one","0","direct_first","1","ee07ar12","0","24","1","1","3","1","","0","1","0","1039.7800000063144","","","<img src = 'targets/mask.png' width = '100%;'>","75","pos","GS","GSnew","2","category2/GS3.png","","targets/33.png","indirect","1","42"
"","html-keyboard-response","312","993102","0.0-12.0-0.19","5zuvk4gozr","many_one","0","direct_first","1","ee07ar12","0","24","1","1","3","1","","0","1","0","null","","","<div style=""font-size:60px;"">+</div>","null","","","","","","","","","",""
"","html-keyboard-response","313","993195","0.0-12.0-1.19","5zuvk4gozr","many_one","0","direct_first","1","ee07ar12","0","24","1","1","3","1","","0","1","0","null","","","<img src = 'category4/GS3.png' width = '100%;'>","null","","","","","","","","","",""
"","html-keyboard-response","314","993450","0.0-12.0-2.19","5zuvk4gozr","many_one","0","direct_first","1","ee07ar12","0","24","1","1","3","1","","0","1","0","null","","","<img src = 'targets/38.png' width = '100%;'>","null","","","","","","","","","",""
"","html-keyboard-response","315","994257","0.0-12.0-3.19","5zuvk4gozr","many_one","0","direct_first","1","ee07ar12","0","24","1","1","3","1","","0","1","0","806.5300000016578","","","<img src = 'targets/mask.png' width = '100%;'>","75","neg","GS","GSnew","4","category4/GS3.png","","targets/38.png","indirect","1","43"
"","html-keyboard-response","316","995766","0.0-12.0-0.20","5zuvk4gozr","many_one","0","direct_first","1","ee07ar12","0","24","1","1","3","1","","0","1","0","null","","","<div style=""font-size:60px;"">+</div>","null","","","","","","","","","",""
"","html-keyboard-response","317","995860","0.0-12.0-1.20","5zuvk4gozr","many_one","0","direct_first","1","ee07ar12","0","24","1","1","3","1","","0","1","0","null","","","<img src = 'category3/CS6.png' width = '100%;'>","null","","","","","","","","","",""
"","html-keyboard-response","318","996120","0.0-12.0-2.20","5zuvk4gozr","many_one","0","direct_first","1","ee07ar12","0","24","1","1","3","1","","0","1","0","null","","","<img src = 'targets/30.png' width = '100%;'>","null","","","","","","","","","",""
"","html-keyboard-response","319","997081","0.0-12.0-3.20","5zuvk4gozr","many_one","0","direct_first","1","ee07ar12","0","24","1","1","3","1","","0","1","0","960.0000000064028","","","<img src = 'targets/mask.png' width = '100%;'>","68","pos","GS","GSold","3","category3/CS6.png","","targets/30.png","indirect","0","44"
"","html-keyboard-response","320","998587","0.0-12.0-0.21","5zuvk4gozr","many_one","0","direct_first","1","ee07ar12","0","24","1","1","3","1","","0","1","0","null","","","<div style=""font-size:60px;"">+</div>","null","","","","","","","","","",""
"","html-keyboard-response","321","998678","0.0-12.0-1.21","5zuvk4gozr","many_one","0","direct_first","1","ee07ar12","0","24","1","1","3","1","","0","1","0","null","","","<img src = 'category3/GS3.png' width = '100%;'>","null","","","","","","","","","",""
"","html-keyboard-response","322","998935","0.0-12.0-2.21","5zuvk4gozr","many_one","0","direct_first","1","ee07ar12","0","24","1","1","3","1","","0","1","0","null","","","<img src = 'targets/7.png' width = '100%;'>","null","","","","","","","","","",""
"","html-keyboard-response","323","1001322","0.0-12.0-3.21","5zuvk4gozr","many_one","0","direct_first","1","ee07ar12","0","24","1","1","3","1","","0","1","0","2386.194999999134","","","<img src = 'targets/mask.png' width = '100%;'>","75","pos","GS","GSnew","3","category3/GS3.png","","targets/7.png","indirect","1","45"
"","html-keyboard-response","324","1002831","0.0-12.0-0.22","5zuvk4gozr","many_one","0","direct_first","1","ee07ar12","0","24","1","1","3","1","","0","1","0","null","","","<div style=""font-size:60px;"">+</div>","null","","","","","","","","","",""
"","html-keyboard-response","325","1002925","0.0-12.0-1.22","5zuvk4gozr","many_one","0","direct_first","1","ee07ar12","0","24","1","1","3","1","","0","1","0","null","","","<img src = 'category4/CS5.png' width = '100%;'>","null","","","","","","","","","",""
"","html-keyboard-response","326","1003185","0.0-12.0-2.22","5zuvk4gozr","many_one","0","direct_first","1","ee07ar12","0","24","1","1","3","1","","0","1","0","null","","","<img src = 'targets/18.png' width = '100%;'>","null","","","","","","","","","",""
