"success","trial_type","trial_index","time_elapsed","internal_node_id","subject","condition","condition_code","measure","measure_code","codeword","gender","age","education","chinese","fach","handedness","comment","hinschauen","ablenkung","gewissenhaft","rt","url","responses","stimulus","key_press","val","type","type_specific","category","cs_selected","response","target","task","indirect","nr_pres"
"true","fullscreen","0","6111","0.0-0.0","2olm6np2cg","one_one","1","direct_first","1","st07rd20","0","21","1","1","3","1","Ich hatte Probleme mit dem Sound bei der vorletzten Aufgabe. Ich bin mir allerdings nicht sicher, ob es an meinem Laptop lag.","0","1","0","","","","","","","","","","","","","","",""
"","external-html","1","64070","0.0-1.0","2olm6np2cg","one_one","1","direct_first","1","st07rd20","0","21","1","1","3","1","Ich hatte Probleme mit dem Sound bei der vorletzten Aufgabe. Ich bin mir allerdings nicht sicher, ob es an meinem Laptop lag.","0","1","0","57912.250000052154","text/information.html","","","","","","","","","","","","",""
"","external-html","2","84534","0.0-2.0","2olm6np2cg","one_one","1","direct_first","1","st07rd20","0","21","1","1","3","1","Ich hatte Probleme mit dem Sound bei der vorletzten Aufgabe. Ich bin mir allerdings nicht sicher, ob es an meinem Laptop lag.","0","1","0","20396.89500001259","text/consent.html","","","","","","","","","","","","",""
"","survey-html-form","3","156235","0.0-3.0","2olm6np2cg","one_one","1","direct_first","1","st07rd20","0","21","1","1","3","1","Ich hatte Probleme mit dem Sound bei der vorletzten Aufgabe. Ich bin mir allerdings nicht sicher, ob es an meinem Laptop lag.","0","1","0","71697.05999991857","","{""codeword_enter"":""st07rd20""}","","","","","","","","","","","",""
"","survey-html-form","4","178738","0.0-4.0","2olm6np2cg","one_one","1","direct_first","1","st07rd20","0","21","1","1","3","1","Ich hatte Probleme mit dem Sound bei der vorletzten Aufgabe. Ich bin mir allerdings nicht sicher, ob es an meinem Laptop lag.","0","1","0","22498.805000213906","","{""age"":""21"",""education"":""1"",""subject"":""3"",""gender"":""0"",""handedness"":""1"",""chinese"":""1""}","","","","","","","","","","","",""
"","survey-html-form","5","207562","0.0-5.0","2olm6np2cg","one_one","1","direct_first","1","st07rd20","0","21","1","1","3","1","Ich hatte Probleme mit dem Sound bei der vorletzten Aufgabe. Ich bin mir allerdings nicht sicher, ob es an meinem Laptop lag.","0","1","0","28819.7400001809","","{}","","","","","","","","","","","",""
"","html-keyboard-response","6","211585","0.0-6.0-0.0-0.0","2olm6np2cg","one_one","1","direct_first","1","st07rd20","0","21","1","1","3","1","Ich hatte Probleme mit dem Sound bei der vorletzten Aufgabe. Ich bin mir allerdings nicht sicher, ob es an meinem Laptop lag.","0","1","0","null","","","<div class = 'row'><div class = 'column'><img src = 'category4/CS5.png' width = '70%;'></div><div class = 'column'><img src = 'uspos/4625.bmp' width = '100%;'></div></div>","null","pos","CS","CS","4","category4/CS5.png","","","","",""
"","html-keyboard-response","7","214094","0.0-6.0-0.0-0.1","2olm6np2cg","one_one","1","direct_first","1","st07rd20","0","21","1","1","3","1","Ich hatte Probleme mit dem Sound bei der vorletzten Aufgabe. Ich bin mir allerdings nicht sicher, ob es an meinem Laptop lag.","0","1","0","null","","","<div class = 'row'><div class = 'column'><img src = 'usneg/1280.bmp' width = '100%;'></div><div class = 'column'><img src = 'category3/CS3.png' width = '70%;'></div></div>","null","neg","CS","CS","3","category3/CS3.png","","","","",""
"","html-keyboard-response","8","216607","0.0-6.0-0.0-0.2","2olm6np2cg","one_one","1","direct_first","1","st07rd20","0","21","1","1","3","1","Ich hatte Probleme mit dem Sound bei der vorletzten Aufgabe. Ich bin mir allerdings nicht sicher, ob es an meinem Laptop lag.","0","1","0","null","","","<div class = 'row'><div class = 'column'><img src = 'category1/CS9.png' width = '70%;'></div><div class = 'column'><img src = 'usneg/2750.bmp' width = '100%;'></div></div>","null","neg","CS","CS","1","category1/CS9.png","","","","",""
"","html-keyboard-response","9","219119","0.0-6.0-0.0-0.3","2olm6np2cg","one_one","1","direct_first","1","st07rd20","0","21","1","1","3","1","Ich hatte Probleme mit dem Sound bei der vorletzten Aufgabe. Ich bin mir allerdings nicht sicher, ob es an meinem Laptop lag.","0","1","0","null","","","<div class = 'row'><div class = 'column'><img src = 'uspos/2160.bmp' width = '100%;'></div><div class = 'column'><img src = 'category2/CS1.png' width = '70%;'></div></div>","null","pos","CS","CS","2","category2/CS1.png","","","","",""
"","html-keyboard-response","10","221632","0.0-6.0-0.0-0.4","2olm6np2cg","one_one","1","direct_first","1","st07rd20","0","21","1","1","3","1","Ich hatte Probleme mit dem Sound bei der vorletzten Aufgabe. Ich bin mir allerdings nicht sicher, ob es an meinem Laptop lag.","0","1","0","null","","","<div class = 'row'><div class = 'column'><img src = 'category4/CS5.png' width = '70%;'></div><div class = 'column'><img src = 'uspos/4625.bmp' width = '100%;'></div></div>","null","pos","CS","CS","4","category4/CS5.png","","","","",""
"","html-keyboard-response","11","224145","0.0-6.0-0.0-0.5","2olm6np2cg","one_one","1","direct_first","1","st07rd20","0","21","1","1","3","1","Ich hatte Probleme mit dem Sound bei der vorletzten Aufgabe. Ich bin mir allerdings nicht sicher, ob es an meinem Laptop lag.","0","1","0","null","","","<div class = 'row'><div class = 'column'><img src = 'uspos/2160.bmp' width = '100%;'></div><div class = 'column'><img src = 'category2/CS1.png' width = '70%;'></div></div>","null","pos","CS","CS","2","category2/CS1.png","","","","",""
"","html-keyboard-response","12","226658","0.0-6.0-0.0-0.6","2olm6np2cg","one_one","1","direct_first","1","st07rd20","0","21","1","1","3","1","Ich hatte Probleme mit dem Sound bei der vorletzten Aufgabe. Ich bin mir allerdings nicht sicher, ob es an meinem Laptop lag.","0","1","0","null","","","<div class = 'row'><div class = 'column'><img src = 'usneg/2750.bmp' width = '100%;'></div><div class = 'column'><img src = 'category1/CS9.png' width = '70%;'></div></div>","null","neg","CS","CS","1","category1/CS9.png","","","","",""
"","html-keyboard-response","13","229165","0.0-6.0-0.0-0.7","2olm6np2cg","one_one","1","direct_first","1","st07rd20","0","21","1","1","3","1","Ich hatte Probleme mit dem Sound bei der vorletzten Aufgabe. Ich bin mir allerdings nicht sicher, ob es an meinem Laptop lag.","0","1","0","null","","","<div class = 'row'><div class = 'column'><img src = 'usneg/1280.bmp' width = '100%;'></div><div class = 'column'><img src = 'category3/CS3.png' width = '70%;'></div></div>","null","neg","CS","CS","3","category3/CS3.png","","","","",""
"","html-keyboard-response","14","231677","0.0-6.0-0.0-0.8","2olm6np2cg","one_one","1","direct_first","1","st07rd20","0","21","1","1","3","1","Ich hatte Probleme mit dem Sound bei der vorletzten Aufgabe. Ich bin mir allerdings nicht sicher, ob es an meinem Laptop lag.","0","1","0","null","","","<div class = 'row'><div class = 'column'><img src = 'usneg/2750.bmp' width = '100%;'></div><div class = 'column'><img src = 'category1/CS9.png' width = '70%;'></div></div>","null","neg","CS","CS","1","category1/CS9.png","","","","",""
"","html-keyboard-response","15","234190","0.0-6.0-0.0-0.9","2olm6np2cg","one_one","1","direct_first","1","st07rd20","0","21","1","1","3","1","Ich hatte Probleme mit dem Sound bei der vorletzten Aufgabe. Ich bin mir allerdings nicht sicher, ob es an meinem Laptop lag.","0","1","0","null","","","<div class = 'row'><div class = 'column'><img src = 'usneg/1280.bmp' width = '100%;'></div><div class = 'column'><img src = 'category3/CS3.png' width = '70%;'></div></div>","null","neg","CS","CS","3","category3/CS3.png","","","","",""
"","html-keyboard-response","16","236696","0.0-6.0-0.0-0.10","2olm6np2cg","one_one","1","direct_first","1","st07rd20","0","21","1","1","3","1","Ich hatte Probleme mit dem Sound bei der vorletzten Aufgabe. Ich bin mir allerdings nicht sicher, ob es an meinem Laptop lag.","0","1","0","null","","","<div class = 'row'><div class = 'column'><img src = 'category4/CS5.png' width = '70%;'></div><div class = 'column'><img src = 'uspos/4625.bmp' width = '100%;'></div></div>","null","pos","CS","CS","4","category4/CS5.png","","","","",""
"","html-keyboard-response","17","239200","0.0-6.0-0.0-0.11","2olm6np2cg","one_one","1","direct_first","1","st07rd20","0","21","1","1","3","1","Ich hatte Probleme mit dem Sound bei der vorletzten Aufgabe. Ich bin mir allerdings nicht sicher, ob es an meinem Laptop lag.","0","1","0","null","","","<div class = 'row'><div class = 'column'><img src = 'category1/CS9.png' width = '70%;'></div><div class = 'column'><img src = 'usneg/2750.bmp' width = '100%;'></div></div>","null","neg","CS","CS","1","category1/CS9.png","","","","",""
"","html-keyboard-response","18","241715","0.0-6.0-0.0-0.12","2olm6np2cg","one_one","1","direct_first","1","st07rd20","0","21","1","1","3","1","Ich hatte Probleme mit dem Sound bei der vorletzten Aufgabe. Ich bin mir allerdings nicht sicher, ob es an meinem Laptop lag.","0","1","0","null","","","<div class = 'row'><div class = 'column'><img src = 'uspos/4625.bmp' width = '100%;'></div><div class = 'column'><img src = 'category4/CS5.png' width = '70%;'></div></div>","null","pos","CS","CS","4","category4/CS5.png","","","","",""
"","html-keyboard-response","19","244229","0.0-6.0-0.0-0.13","2olm6np2cg","one_one","1","direct_first","1","st07rd20","0","21","1","1","3","1","Ich hatte Probleme mit dem Sound bei der vorletzten Aufgabe. Ich bin mir allerdings nicht sicher, ob es an meinem Laptop lag.","0","1","0","null","","","<div class = 'row'><div class = 'column'><img src = 'uspos/2160.bmp' width = '100%;'></div><div class = 'column'><img src = 'category2/CS1.png' width = '70%;'></div></div>","null","pos","CS","CS","2","category2/CS1.png","","","","",""
"","html-keyboard-response","20","246740","0.0-6.0-0.0-0.14","2olm6np2cg","one_one","1","direct_first","1","st07rd20","0","21","1","1","3","1","Ich hatte Probleme mit dem Sound bei der vorletzten Aufgabe. Ich bin mir allerdings nicht sicher, ob es an meinem Laptop lag.","0","1","0","null","","","<div class = 'row'><div class = 'column'><img src = 'usneg/1280.bmp' width = '100%;'></div><div class = 'column'><img src = 'category3/CS3.png' width = '70%;'></div></div>","null","neg","CS","CS","3","category3/CS3.png","","","","",""
"","html-keyboard-response","21","249254","0.0-6.0-0.0-0.15","2olm6np2cg","one_one","1","direct_first","1","st07rd20","0","21","1","1","3","1","Ich hatte Probleme mit dem Sound bei der vorletzten Aufgabe. Ich bin mir allerdings nicht sicher, ob es an meinem Laptop lag.","0","1","0","null","","","<div class = 'row'><div class = 'column'><img src = 'uspos/2160.bmp' width = '100%;'></div><div class = 'column'><img src = 'category2/CS1.png' width = '70%;'></div></div>","null","pos","CS","CS","2","category2/CS1.png","","","","",""
"","html-keyboard-response","22","251763","0.0-6.0-0.0-0.16","2olm6np2cg","one_one","1","direct_first","1","st07rd20","0","21","1","1","3","1","Ich hatte Probleme mit dem Sound bei der vorletzten Aufgabe. Ich bin mir allerdings nicht sicher, ob es an meinem Laptop lag.","0","1","0","null","","","<div class = 'row'><div class = 'column'><img src = 'usneg/2750.bmp' width = '100%;'></div><div class = 'column'><img src = 'category1/CS9.png' width = '70%;'></div></div>","null","neg","CS","CS","1","category1/CS9.png","","","","",""
"","html-keyboard-response","23","254279","0.0-6.0-0.0-0.17","2olm6np2cg","one_one","1","direct_first","1","st07rd20","0","21","1","1","3","1","Ich hatte Probleme mit dem Sound bei der vorletzten Aufgabe. Ich bin mir allerdings nicht sicher, ob es an meinem Laptop lag.","0","1","0","null","","","<div class = 'row'><div class = 'column'><img src = 'category2/CS1.png' width = '70%;'></div><div class = 'column'><img src = 'uspos/2160.bmp' width = '100%;'></div></div>","null","pos","CS","CS","2","category2/CS1.png","","","","",""
"","html-keyboard-response","24","256795","0.0-6.0-0.0-0.18","2olm6np2cg","one_one","1","direct_first","1","st07rd20","0","21","1","1","3","1","Ich hatte Probleme mit dem Sound bei der vorletzten Aufgabe. Ich bin mir allerdings nicht sicher, ob es an meinem Laptop lag.","0","1","0","null","","","<div class = 'row'><div class = 'column'><img src = 'usneg/1280.bmp' width = '100%;'></div><div class = 'column'><img src = 'category3/CS3.png' width = '70%;'></div></div>","null","neg","CS","CS","3","category3/CS3.png","","","","",""
"","html-keyboard-response","25","259304","0.0-6.0-0.0-0.19","2olm6np2cg","one_one","1","direct_first","1","st07rd20","0","21","1","1","3","1","Ich hatte Probleme mit dem Sound bei der vorletzten Aufgabe. Ich bin mir allerdings nicht sicher, ob es an meinem Laptop lag.","0","1","0","null","","","<div class = 'row'><div class = 'column'><img src = 'category4/CS5.png' width = '70%;'></div><div class = 'column'><img src = 'uspos/4625.bmp' width = '100%;'></div></div>","null","pos","CS","CS","4","category4/CS5.png","","","","",""
"","survey-html-form","26","262410","0.0-6.0-1.0","2olm6np2cg","one_one","1","direct_first","1","st07rd20","0","21","1","1","3","1","Ich hatte Probleme mit dem Sound bei der vorletzten Aufgabe. Ich bin mir allerdings nicht sicher, ob es an meinem Laptop lag.","0","1","0","2603.520000120625","","{}","","","","","","","","","","","",""
"","html-keyboard-response","27","266423","0.0-6.0-2.0-0.0","2olm6np2cg","one_one","1","direct_first","1","st07rd20","0","21","1","1","3","1","Ich hatte Probleme mit dem Sound bei der vorletzten Aufgabe. Ich bin mir allerdings nicht sicher, ob es an meinem Laptop lag.","0","1","0","null","","","<div class = 'row'><div class = 'column'><img src = 'uspos/2160.bmp' width = '100%;'></div><div class = 'column'><img src = 'category2/CS1.png' width = '70%;'></div></div>","null","pos","CS","CS","2","category2/CS1.png","","","","",""
"","html-keyboard-response","28","268934","0.0-6.0-2.0-0.1","2olm6np2cg","one_one","1","direct_first","1","st07rd20","0","21","1","1","3","1","Ich hatte Probleme mit dem Sound bei der vorletzten Aufgabe. Ich bin mir allerdings nicht sicher, ob es an meinem Laptop lag.","0","1","0","null","","","<div class = 'row'><div class = 'column'><img src = 'category3/CS3.png' width = '70%;'></div><div class = 'column'><img src = 'usneg/1280.bmp' width = '100%;'></div></div>","null","neg","CS","CS","3","category3/CS3.png","","","","",""
"","html-keyboard-response","29","271442","0.0-6.0-2.0-0.2","2olm6np2cg","one_one","1","direct_first","1","st07rd20","0","21","1","1","3","1","Ich hatte Probleme mit dem Sound bei der vorletzten Aufgabe. Ich bin mir allerdings nicht sicher, ob es an meinem Laptop lag.","0","1","0","null","","","<div class = 'row'><div class = 'column'><img src = 'category1/CS9.png' width = '70%;'></div><div class = 'column'><img src = 'usneg/2750.bmp' width = '100%;'></div></div>","null","neg","CS","CS","1","category1/CS9.png","","","","",""
"","html-keyboard-response","30","273956","0.0-6.0-2.0-0.3","2olm6np2cg","one_one","1","direct_first","1","st07rd20","0","21","1","1","3","1","Ich hatte Probleme mit dem Sound bei der vorletzten Aufgabe. Ich bin mir allerdings nicht sicher, ob es an meinem Laptop lag.","0","1","0","null","","","<div class = 'row'><div class = 'column'><img src = 'category3/CS3.png' width = '70%;'></div><div class = 'column'><img src = 'usneg/1280.bmp' width = '100%;'></div></div>","null","neg","CS","CS","3","category3/CS3.png","","","","",""
"","html-keyboard-response","31","276466","0.0-6.0-2.0-0.4","2olm6np2cg","one_one","1","direct_first","1","st07rd20","0","21","1","1","3","1","Ich hatte Probleme mit dem Sound bei der vorletzten Aufgabe. Ich bin mir allerdings nicht sicher, ob es an meinem Laptop lag.","0","1","0","null","","","<div class = 'row'><div class = 'column'><img src = 'usneg/2750.bmp' width = '100%;'></div><div class = 'column'><img src = 'category1/CS9.png' width = '70%;'></div></div>","null","neg","CS","CS","1","category1/CS9.png","","","","",""
"","html-keyboard-response","32","278976","0.0-6.0-2.0-0.5","2olm6np2cg","one_one","1","direct_first","1","st07rd20","0","21","1","1","3","1","Ich hatte Probleme mit dem Sound bei der vorletzten Aufgabe. Ich bin mir allerdings nicht sicher, ob es an meinem Laptop lag.","0","1","0","null","","","<div class = 'row'><div class = 'column'><img src = 'usneg/1280.bmp' width = '100%;'></div><div class = 'column'><img src = 'category3/CS3.png' width = '70%;'></div></div>","null","neg","CS","CS","3","category3/CS3.png","","","","",""
"","html-keyboard-response","33","281487","0.0-6.0-2.0-0.6","2olm6np2cg","one_one","1","direct_first","1","st07rd20","0","21","1","1","3","1","Ich hatte Probleme mit dem Sound bei der vorletzten Aufgabe. Ich bin mir allerdings nicht sicher, ob es an meinem Laptop lag.","0","1","0","null","","","<div class = 'row'><div class = 'column'><img src = 'category4/CS5.png' width = '70%;'></div><div class = 'column'><img src = 'uspos/4625.bmp' width = '100%;'></div></div>","null","pos","CS","CS","4","category4/CS5.png","","","","",""
"","html-keyboard-response","34","284001","0.0-6.0-2.0-0.7","2olm6np2cg","one_one","1","direct_first","1","st07rd20","0","21","1","1","3","1","Ich hatte Probleme mit dem Sound bei der vorletzten Aufgabe. Ich bin mir allerdings nicht sicher, ob es an meinem Laptop lag.","0","1","0","null","","","<div class = 'row'><div class = 'column'><img src = 'category3/CS3.png' width = '70%;'></div><div class = 'column'><img src = 'usneg/1280.bmp' width = '100%;'></div></div>","null","neg","CS","CS","3","category3/CS3.png","","","","",""
"","html-keyboard-response","35","286517","0.0-6.0-2.0-0.8","2olm6np2cg","one_one","1","direct_first","1","st07rd20","0","21","1","1","3","1","Ich hatte Probleme mit dem Sound bei der vorletzten Aufgabe. Ich bin mir allerdings nicht sicher, ob es an meinem Laptop lag.","0","1","0","null","","","<div class = 'row'><div class = 'column'><img src = 'category1/CS9.png' width = '70%;'></div><div class = 'column'><img src = 'usneg/2750.bmp' width = '100%;'></div></div>","null","neg","CS","CS","1","category1/CS9.png","","","","",""
"","html-keyboard-response","36","289035","0.0-6.0-2.0-0.9","2olm6np2cg","one_one","1","direct_first","1","st07rd20","0","21","1","1","3","1","Ich hatte Probleme mit dem Sound bei der vorletzten Aufgabe. Ich bin mir allerdings nicht sicher, ob es an meinem Laptop lag.","0","1","0","null","","","<div class = 'row'><div class = 'column'><img src = 'category2/CS1.png' width = '70%;'></div><div class = 'column'><img src = 'uspos/2160.bmp' width = '100%;'></div></div>","null","pos","CS","CS","2","category2/CS1.png","","","","",""
"","html-keyboard-response","37","291541","0.0-6.0-2.0-0.10","2olm6np2cg","one_one","1","direct_first","1","st07rd20","0","21","1","1","3","1","Ich hatte Probleme mit dem Sound bei der vorletzten Aufgabe. Ich bin mir allerdings nicht sicher, ob es an meinem Laptop lag.","0","1","0","null","","","<div class = 'row'><div class = 'column'><img src = 'category4/CS5.png' width = '70%;'></div><div class = 'column'><img src = 'uspos/4625.bmp' width = '100%;'></div></div>","null","pos","CS","CS","4","category4/CS5.png","","","","",""
"","html-keyboard-response","38","294052","0.0-6.0-2.0-0.11","2olm6np2cg","one_one","1","direct_first","1","st07rd20","0","21","1","1","3","1","Ich hatte Probleme mit dem Sound bei der vorletzten Aufgabe. Ich bin mir allerdings nicht sicher, ob es an meinem Laptop lag.","0","1","0","null","","","<div class = 'row'><div class = 'column'><img src = 'category3/CS3.png' width = '70%;'></div><div class = 'column'><img src = 'usneg/1280.bmp' width = '100%;'></div></div>","null","neg","CS","CS","3","category3/CS3.png","","","","",""
"","html-keyboard-response","39","296558","0.0-6.0-2.0-0.12","2olm6np2cg","one_one","1","direct_first","1","st07rd20","0","21","1","1","3","1","Ich hatte Probleme mit dem Sound bei der vorletzten Aufgabe. Ich bin mir allerdings nicht sicher, ob es an meinem Laptop lag.","0","1","0","null","","","<div class = 'row'><div class = 'column'><img src = 'category2/CS1.png' width = '70%;'></div><div class = 'column'><img src = 'uspos/2160.bmp' width = '100%;'></div></div>","null","pos","CS","CS","2","category2/CS1.png","","","","",""
"","html-keyboard-response","40","299073","0.0-6.0-2.0-0.13","2olm6np2cg","one_one","1","direct_first","1","st07rd20","0","21","1","1","3","1","Ich hatte Probleme mit dem Sound bei der vorletzten Aufgabe. Ich bin mir allerdings nicht sicher, ob es an meinem Laptop lag.","0","1","0","null","","","<div class = 'row'><div class = 'column'><img src = 'category4/CS5.png' width = '70%;'></div><div class = 'column'><img src = 'uspos/4625.bmp' width = '100%;'></div></div>","null","pos","CS","CS","4","category4/CS5.png","","","","",""
"","html-keyboard-response","41","301583","0.0-6.0-2.0-0.14","2olm6np2cg","one_one","1","direct_first","1","st07rd20","0","21","1","1","3","1","Ich hatte Probleme mit dem Sound bei der vorletzten Aufgabe. Ich bin mir allerdings nicht sicher, ob es an meinem Laptop lag.","0","1","0","null","","","<div class = 'row'><div class = 'column'><img src = 'category1/CS9.png' width = '70%;'></div><div class = 'column'><img src = 'usneg/2750.bmp' width = '100%;'></div></div>","null","neg","CS","CS","1","category1/CS9.png","","","","",""
"","html-keyboard-response","42","304100","0.0-6.0-2.0-0.15","2olm6np2cg","one_one","1","direct_first","1","st07rd20","0","21","1","1","3","1","Ich hatte Probleme mit dem Sound bei der vorletzten Aufgabe. Ich bin mir allerdings nicht sicher, ob es an meinem Laptop lag.","0","1","0","null","","","<div class = 'row'><div class = 'column'><img src = 'category4/CS5.png' width = '70%;'></div><div class = 'column'><img src = 'uspos/4625.bmp' width = '100%;'></div></div>","null","pos","CS","CS","4","category4/CS5.png","","","","",""
"","html-keyboard-response","43","306615","0.0-6.0-2.0-0.16","2olm6np2cg","one_one","1","direct_first","1","st07rd20","0","21","1","1","3","1","Ich hatte Probleme mit dem Sound bei der vorletzten Aufgabe. Ich bin mir allerdings nicht sicher, ob es an meinem Laptop lag.","0","1","0","null","","","<div class = 'row'><div class = 'column'><img src = 'category1/CS9.png' width = '70%;'></div><div class = 'column'><img src = 'usneg/2750.bmp' width = '100%;'></div></div>","null","neg","CS","CS","1","category1/CS9.png","","","","",""
"","html-keyboard-response","44","309129","0.0-6.0-2.0-0.17","2olm6np2cg","one_one","1","direct_first","1","st07rd20","0","21","1","1","3","1","Ich hatte Probleme mit dem Sound bei der vorletzten Aufgabe. Ich bin mir allerdings nicht sicher, ob es an meinem Laptop lag.","0","1","0","null","","","<div class = 'row'><div class = 'column'><img src = 'uspos/2160.bmp' width = '100%;'></div><div class = 'column'><img src = 'category2/CS1.png' width = '70%;'></div></div>","null","pos","CS","CS","2","category2/CS1.png","","","","",""
"","html-keyboard-response","45","311642","0.0-6.0-2.0-0.18","2olm6np2cg","one_one","1","direct_first","1","st07rd20","0","21","1","1","3","1","Ich hatte Probleme mit dem Sound bei der vorletzten Aufgabe. Ich bin mir allerdings nicht sicher, ob es an meinem Laptop lag.","0","1","0","null","","","<div class = 'row'><div class = 'column'><img src = 'uspos/4625.bmp' width = '100%;'></div><div class = 'column'><img src = 'category4/CS5.png' width = '70%;'></div></div>","null","pos","CS","CS","4","category4/CS5.png","","","","",""
"","html-keyboard-response","46","314147","0.0-6.0-2.0-0.19","2olm6np2cg","one_one","1","direct_first","1","st07rd20","0","21","1","1","3","1","Ich hatte Probleme mit dem Sound bei der vorletzten Aufgabe. Ich bin mir allerdings nicht sicher, ob es an meinem Laptop lag.","0","1","0","null","","","<div class = 'row'><div class = 'column'><img src = 'category2/CS1.png' width = '70%;'></div><div class = 'column'><img src = 'uspos/2160.bmp' width = '100%;'></div></div>","null","pos","CS","CS","2","category2/CS1.png","","","","",""
"","survey-html-form","47","317050","0.0-6.0-3.0","2olm6np2cg","one_one","1","direct_first","1","st07rd20","0","21","1","1","3","1","Ich hatte Probleme mit dem Sound bei der vorletzten Aufgabe. Ich bin mir allerdings nicht sicher, ob es an meinem Laptop lag.","0","1","0","2397.0500000286847","","{}","","","","","","","","","","","",""
"","html-keyboard-response","48","321064","0.0-6.0-4.0-0.0","2olm6np2cg","one_one","1","direct_first","1","st07rd20","0","21","1","1","3","1","Ich hatte Probleme mit dem Sound bei der vorletzten Aufgabe. Ich bin mir allerdings nicht sicher, ob es an meinem Laptop lag.","0","1","0","null","","","<div class = 'row'><div class = 'column'><img src = 'usneg/2750.bmp' width = '100%;'></div><div class = 'column'><img src = 'category1/CS9.png' width = '70%;'></div></div>","null","neg","CS","CS","1","category1/CS9.png","","","","",""
"","html-keyboard-response","49","323575","0.0-6.0-4.0-0.1","2olm6np2cg","one_one","1","direct_first","1","st07rd20","0","21","1","1","3","1","Ich hatte Probleme mit dem Sound bei der vorletzten Aufgabe. Ich bin mir allerdings nicht sicher, ob es an meinem Laptop lag.","0","1","0","null","","","<div class = 'row'><div class = 'column'><img src = 'uspos/2160.bmp' width = '100%;'></div><div class = 'column'><img src = 'category2/CS1.png' width = '70%;'></div></div>","null","pos","CS","CS","2","category2/CS1.png","","","","",""
"","html-keyboard-response","50","326089","0.0-6.0-4.0-0.2","2olm6np2cg","one_one","1","direct_first","1","st07rd20","0","21","1","1","3","1","Ich hatte Probleme mit dem Sound bei der vorletzten Aufgabe. Ich bin mir allerdings nicht sicher, ob es an meinem Laptop lag.","0","1","0","null","","","<div class = 'row'><div class = 'column'><img src = 'uspos/4625.bmp' width = '100%;'></div><div class = 'column'><img src = 'category4/CS5.png' width = '70%;'></div></div>","null","pos","CS","CS","4","category4/CS5.png","","","","",""
"","html-keyboard-response","51","328603","0.0-6.0-4.0-0.3","2olm6np2cg","one_one","1","direct_first","1","st07rd20","0","21","1","1","3","1","Ich hatte Probleme mit dem Sound bei der vorletzten Aufgabe. Ich bin mir allerdings nicht sicher, ob es an meinem Laptop lag.","0","1","0","null","","","<div class = 'row'><div class = 'column'><img src = 'category1/CS9.png' width = '70%;'></div><div class = 'column'><img src = 'usneg/2750.bmp' width = '100%;'></div></div>","null","neg","CS","CS","1","category1/CS9.png","","","","",""
"","html-keyboard-response","52","331120","0.0-6.0-4.0-0.4","2olm6np2cg","one_one","1","direct_first","1","st07rd20","0","21","1","1","3","1","Ich hatte Probleme mit dem Sound bei der vorletzten Aufgabe. Ich bin mir allerdings nicht sicher, ob es an meinem Laptop lag.","0","1","0","null","","","<div class = 'row'><div class = 'column'><img src = 'usneg/1280.bmp' width = '100%;'></div><div class = 'column'><img src = 'category3/CS3.png' width = '70%;'></div></div>","null","neg","CS","CS","3","category3/CS3.png","","","","",""
"","html-keyboard-response","53","333628","0.0-6.0-4.0-0.5","2olm6np2cg","one_one","1","direct_first","1","st07rd20","0","21","1","1","3","1","Ich hatte Probleme mit dem Sound bei der vorletzten Aufgabe. Ich bin mir allerdings nicht sicher, ob es an meinem Laptop lag.","0","1","0","null","","","<div class = 'row'><div class = 'column'><img src = 'category2/CS1.png' width = '70%;'></div><div class = 'column'><img src = 'uspos/2160.bmp' width = '100%;'></div></div>","null","pos","CS","CS","2","category2/CS1.png","","","","",""
"","html-keyboard-response","54","336146","0.0-6.0-4.0-0.6","2olm6np2cg","one_one","1","direct_first","1","st07rd20","0","21","1","1","3","1","Ich hatte Probleme mit dem Sound bei der vorletzten Aufgabe. Ich bin mir allerdings nicht sicher, ob es an meinem Laptop lag.","0","1","0","null","","","<div class = 'row'><div class = 'column'><img src = 'category3/CS3.png' width = '70%;'></div><div class = 'column'><img src = 'usneg/1280.bmp' width = '100%;'></div></div>","null","neg","CS","CS","3","category3/CS3.png","","","","",""
"","html-keyboard-response","55","338656","0.0-6.0-4.0-0.7","2olm6np2cg","one_one","1","direct_first","1","st07rd20","0","21","1","1","3","1","Ich hatte Probleme mit dem Sound bei der vorletzten Aufgabe. Ich bin mir allerdings nicht sicher, ob es an meinem Laptop lag.","0","1","0","null","","","<div class = 'row'><div class = 'column'><img src = 'usneg/2750.bmp' width = '100%;'></div><div class = 'column'><img src = 'category1/CS9.png' width = '70%;'></div></div>","null","neg","CS","CS","1","category1/CS9.png","","","","",""
"","html-keyboard-response","56","341167","0.0-6.0-4.0-0.8","2olm6np2cg","one_one","1","direct_first","1","st07rd20","0","21","1","1","3","1","Ich hatte Probleme mit dem Sound bei der vorletzten Aufgabe. Ich bin mir allerdings nicht sicher, ob es an meinem Laptop lag.","0","1","0","null","","","<div class = 'row'><div class = 'column'><img src = 'category4/CS5.png' width = '70%;'></div><div class = 'column'><img src = 'uspos/4625.bmp' width = '100%;'></div></div>","null","pos","CS","CS","4","category4/CS5.png","","","","",""
"","html-keyboard-response","57","343682","0.0-6.0-4.0-0.9","2olm6np2cg","one_one","1","direct_first","1","st07rd20","0","21","1","1","3","1","Ich hatte Probleme mit dem Sound bei der vorletzten Aufgabe. Ich bin mir allerdings nicht sicher, ob es an meinem Laptop lag.","0","1","0","null","","","<div class = 'row'><div class = 'column'><img src = 'category2/CS1.png' width = '70%;'></div><div class = 'column'><img src = 'uspos/2160.bmp' width = '100%;'></div></div>","null","pos","CS","CS","2","category2/CS1.png","","","","",""
"","html-keyboard-response","58","346195","0.0-6.0-4.0-0.10","2olm6np2cg","one_one","1","direct_first","1","st07rd20","0","21","1","1","3","1","Ich hatte Probleme mit dem Sound bei der vorletzten Aufgabe. Ich bin mir allerdings nicht sicher, ob es an meinem Laptop lag.","0","1","0","null","","","<div class = 'row'><div class = 'column'><img src = 'category3/CS3.png' width = '70%;'></div><div class = 'column'><img src = 'usneg/1280.bmp' width = '100%;'></div></div>","null","neg","CS","CS","3","category3/CS3.png","","","","",""
"","html-keyboard-response","59","348710","0.0-6.0-4.0-0.11","2olm6np2cg","one_one","1","direct_first","1","st07rd20","0","21","1","1","3","1","Ich hatte Probleme mit dem Sound bei der vorletzten Aufgabe. Ich bin mir allerdings nicht sicher, ob es an meinem Laptop lag.","0","1","0","null","","","<div class = 'row'><div class = 'column'><img src = 'category1/CS9.png' width = '70%;'></div><div class = 'column'><img src = 'usneg/2750.bmp' width = '100%;'></div></div>","null","neg","CS","CS","1","category1/CS9.png","","","","",""
"","html-keyboard-response","60","351234","0.0-6.0-4.0-0.12","2olm6np2cg","one_one","1","direct_first","1","st07rd20","0","21","1","1","3","1","Ich hatte Probleme mit dem Sound bei der vorletzten Aufgabe. Ich bin mir allerdings nicht sicher, ob es an meinem Laptop lag.","0","1","0","null","","","<div class = 'row'><div class = 'column'><img src = 'uspos/4625.bmp' width = '100%;'></div><div class = 'column'><img src = 'category4/CS5.png' width = '70%;'></div></div>","null","pos","CS","CS","4","category4/CS5.png","","","","",""
"","html-keyboard-response","61","353747","0.0-6.0-4.0-0.13","2olm6np2cg","one_one","1","direct_first","1","st07rd20","0","21","1","1","3","1","Ich hatte Probleme mit dem Sound bei der vorletzten Aufgabe. Ich bin mir allerdings nicht sicher, ob es an meinem Laptop lag.","0","1","0","null","","","<div class = 'row'><div class = 'column'><img src = 'category2/CS1.png' width = '70%;'></div><div class = 'column'><img src = 'uspos/2160.bmp' width = '100%;'></div></div>","null","pos","CS","CS","2","category2/CS1.png","","","","",""
"","html-keyboard-response","62","356265","0.0-6.0-4.0-0.14","2olm6np2cg","one_one","1","direct_first","1","st07rd20","0","21","1","1","3","1","Ich hatte Probleme mit dem Sound bei der vorletzten Aufgabe. Ich bin mir allerdings nicht sicher, ob es an meinem Laptop lag.","0","1","0","null","","","<div class = 'row'><div class = 'column'><img src = 'category1/CS9.png' width = '70%;'></div><div class = 'column'><img src = 'usneg/2750.bmp' width = '100%;'></div></div>","null","neg","CS","CS","1","category1/CS9.png","","","","",""
"","html-keyboard-response","63","358775","0.0-6.0-4.0-0.15","2olm6np2cg","one_one","1","direct_first","1","st07rd20","0","21","1","1","3","1","Ich hatte Probleme mit dem Sound bei der vorletzten Aufgabe. Ich bin mir allerdings nicht sicher, ob es an meinem Laptop lag.","0","1","0","null","","","<div class = 'row'><div class = 'column'><img src = 'category2/CS1.png' width = '70%;'></div><div class = 'column'><img src = 'uspos/2160.bmp' width = '100%;'></div></div>","null","pos","CS","CS","2","category2/CS1.png","","","","",""
"","html-keyboard-response","64","361287","0.0-6.0-4.0-0.16","2olm6np2cg","one_one","1","direct_first","1","st07rd20","0","21","1","1","3","1","Ich hatte Probleme mit dem Sound bei der vorletzten Aufgabe. Ich bin mir allerdings nicht sicher, ob es an meinem Laptop lag.","0","1","0","null","","","<div class = 'row'><div class = 'column'><img src = 'category4/CS5.png' width = '70%;'></div><div class = 'column'><img src = 'uspos/4625.bmp' width = '100%;'></div></div>","null","pos","CS","CS","4","category4/CS5.png","","","","",""
"","html-keyboard-response","65","363797","0.0-6.0-4.0-0.17","2olm6np2cg","one_one","1","direct_first","1","st07rd20","0","21","1","1","3","1","Ich hatte Probleme mit dem Sound bei der vorletzten Aufgabe. Ich bin mir allerdings nicht sicher, ob es an meinem Laptop lag.","0","1","0","null","","","<div class = 'row'><div class = 'column'><img src = 'category3/CS3.png' width = '70%;'></div><div class = 'column'><img src = 'usneg/1280.bmp' width = '100%;'></div></div>","null","neg","CS","CS","3","category3/CS3.png","","","","",""
"","html-keyboard-response","66","366305","0.0-6.0-4.0-0.18","2olm6np2cg","one_one","1","direct_first","1","st07rd20","0","21","1","1","3","1","Ich hatte Probleme mit dem Sound bei der vorletzten Aufgabe. Ich bin mir allerdings nicht sicher, ob es an meinem Laptop lag.","0","1","0","null","","","<div class = 'row'><div class = 'column'><img src = 'category4/CS5.png' width = '70%;'></div><div class = 'column'><img src = 'uspos/4625.bmp' width = '100%;'></div></div>","null","pos","CS","CS","4","category4/CS5.png","","","","",""
"","html-keyboard-response","67","368816","0.0-6.0-4.0-0.19","2olm6np2cg","one_one","1","direct_first","1","st07rd20","0","21","1","1","3","1","Ich hatte Probleme mit dem Sound bei der vorletzten Aufgabe. Ich bin mir allerdings nicht sicher, ob es an meinem Laptop lag.","0","1","0","null","","","<div class = 'row'><div class = 'column'><img src = 'usneg/1280.bmp' width = '100%;'></div><div class = 'column'><img src = 'category3/CS3.png' width = '70%;'></div></div>","null","neg","CS","CS","3","category3/CS3.png","","","","",""
"","survey-html-form","68","371070","0.0-6.0-5.0","2olm6np2cg","one_one","1","direct_first","1","st07rd20","0","21","1","1","3","1","Ich hatte Probleme mit dem Sound bei der vorletzten Aufgabe. Ich bin mir allerdings nicht sicher, ob es an meinem Laptop lag.","0","1","0","1748.630000045523","","{}","","","","","","","","","","","",""
"","html-keyboard-response","69","375084","0.0-6.0-6.0-0.0","2olm6np2cg","one_one","1","direct_first","1","st07rd20","0","21","1","1","3","1","Ich hatte Probleme mit dem Sound bei der vorletzten Aufgabe. Ich bin mir allerdings nicht sicher, ob es an meinem Laptop lag.","0","1","0","null","","","<div class = 'row'><div class = 'column'><img src = 'category2/CS1.png' width = '70%;'></div><div class = 'column'><img src = 'uspos/2160.bmp' width = '100%;'></div></div>","null","pos","CS","CS","2","category2/CS1.png","","","","",""
"","html-keyboard-response","70","377594","0.0-6.0-6.0-0.1","2olm6np2cg","one_one","1","direct_first","1","st07rd20","0","21","1","1","3","1","Ich hatte Probleme mit dem Sound bei der vorletzten Aufgabe. Ich bin mir allerdings nicht sicher, ob es an meinem Laptop lag.","0","1","0","null","","","<div class = 'row'><div class = 'column'><img src = 'category4/CS5.png' width = '70%;'></div><div class = 'column'><img src = 'uspos/4625.bmp' width = '100%;'></div></div>","null","pos","CS","CS","4","category4/CS5.png","","","","",""
"","html-keyboard-response","71","380107","0.0-6.0-6.0-0.2","2olm6np2cg","one_one","1","direct_first","1","st07rd20","0","21","1","1","3","1","Ich hatte Probleme mit dem Sound bei der vorletzten Aufgabe. Ich bin mir allerdings nicht sicher, ob es an meinem Laptop lag.","0","1","0","null","","","<div class = 'row'><div class = 'column'><img src = 'category1/CS9.png' width = '70%;'></div><div class = 'column'><img src = 'usneg/2750.bmp' width = '100%;'></div></div>","null","neg","CS","CS","1","category1/CS9.png","","","","",""
"","html-keyboard-response","72","382618","0.0-6.0-6.0-0.3","2olm6np2cg","one_one","1","direct_first","1","st07rd20","0","21","1","1","3","1","Ich hatte Probleme mit dem Sound bei der vorletzten Aufgabe. Ich bin mir allerdings nicht sicher, ob es an meinem Laptop lag.","0","1","0","null","","","<div class = 'row'><div class = 'column'><img src = 'usneg/1280.bmp' width = '100%;'></div><div class = 'column'><img src = 'category3/CS3.png' width = '70%;'></div></div>","null","neg","CS","CS","3","category3/CS3.png","","","","",""
"","html-keyboard-response","73","385134","0.0-6.0-6.0-0.4","2olm6np2cg","one_one","1","direct_first","1","st07rd20","0","21","1","1","3","1","Ich hatte Probleme mit dem Sound bei der vorletzten Aufgabe. Ich bin mir allerdings nicht sicher, ob es an meinem Laptop lag.","0","1","0","null","","","<div class = 'row'><div class = 'column'><img src = 'category2/CS1.png' width = '70%;'></div><div class = 'column'><img src = 'uspos/2160.bmp' width = '100%;'></div></div>","null","pos","CS","CS","2","category2/CS1.png","","","","",""
"","html-keyboard-response","74","387649","0.0-6.0-6.0-0.5","2olm6np2cg","one_one","1","direct_first","1","st07rd20","0","21","1","1","3","1","Ich hatte Probleme mit dem Sound bei der vorletzten Aufgabe. Ich bin mir allerdings nicht sicher, ob es an meinem Laptop lag.","0","1","0","null","","","<div class = 'row'><div class = 'column'><img src = 'category1/CS9.png' width = '70%;'></div><div class = 'column'><img src = 'usneg/2750.bmp' width = '100%;'></div></div>","null","neg","CS","CS","1","category1/CS9.png","","","","",""
"","html-keyboard-response","75","390159","0.0-6.0-6.0-0.6","2olm6np2cg","one_one","1","direct_first","1","st07rd20","0","21","1","1","3","1","Ich hatte Probleme mit dem Sound bei der vorletzten Aufgabe. Ich bin mir allerdings nicht sicher, ob es an meinem Laptop lag.","0","1","0","null","","","<div class = 'row'><div class = 'column'><img src = 'category4/CS5.png' width = '70%;'></div><div class = 'column'><img src = 'uspos/4625.bmp' width = '100%;'></div></div>","null","pos","CS","CS","4","category4/CS5.png","","","","",""
"","html-keyboard-response","76","392666","0.0-6.0-6.0-0.7","2olm6np2cg","one_one","1","direct_first","1","st07rd20","0","21","1","1","3","1","Ich hatte Probleme mit dem Sound bei der vorletzten Aufgabe. Ich bin mir allerdings nicht sicher, ob es an meinem Laptop lag.","0","1","0","null","","","<div class = 'row'><div class = 'column'><img src = 'uspos/2160.bmp' width = '100%;'></div><div class = 'column'><img src = 'category2/CS1.png' width = '70%;'></div></div>","null","pos","CS","CS","2","category2/CS1.png","","","","",""
"","html-keyboard-response","77","395173","0.0-6.0-6.0-0.8","2olm6np2cg","one_one","1","direct_first","1","st07rd20","0","21","1","1","3","1","Ich hatte Probleme mit dem Sound bei der vorletzten Aufgabe. Ich bin mir allerdings nicht sicher, ob es an meinem Laptop lag.","0","1","0","null","","","<div class = 'row'><div class = 'column'><img src = 'usneg/2750.bmp' width = '100%;'></div><div class = 'column'><img src = 'category1/CS9.png' width = '70%;'></div></div>","null","neg","CS","CS","1","category1/CS9.png","","","","",""
"","html-keyboard-response","78","397687","0.0-6.0-6.0-0.9","2olm6np2cg","one_one","1","direct_first","1","st07rd20","0","21","1","1","3","1","Ich hatte Probleme mit dem Sound bei der vorletzten Aufgabe. Ich bin mir allerdings nicht sicher, ob es an meinem Laptop lag.","0","1","0","null","","","<div class = 'row'><div class = 'column'><img src = 'usneg/1280.bmp' width = '100%;'></div><div class = 'column'><img src = 'category3/CS3.png' width = '70%;'></div></div>","null","neg","CS","CS","3","category3/CS3.png","","","","",""
"","html-keyboard-response","79","400202","0.0-6.0-6.0-0.10","2olm6np2cg","one_one","1","direct_first","1","st07rd20","0","21","1","1","3","1","Ich hatte Probleme mit dem Sound bei der vorletzten Aufgabe. Ich bin mir allerdings nicht sicher, ob es an meinem Laptop lag.","0","1","0","null","","","<div class = 'row'><div class = 'column'><img src = 'category4/CS5.png' width = '70%;'></div><div class = 'column'><img src = 'uspos/4625.bmp' width = '100%;'></div></div>","null","pos","CS","CS","4","category4/CS5.png","","","","",""
"","html-keyboard-response","80","402711","0.0-6.0-6.0-0.11","2olm6np2cg","one_one","1","direct_first","1","st07rd20","0","21","1","1","3","1","Ich hatte Probleme mit dem Sound bei der vorletzten Aufgabe. Ich bin mir allerdings nicht sicher, ob es an meinem Laptop lag.","0","1","0","null","","","<div class = 'row'><div class = 'column'><img src = 'category1/CS9.png' width = '70%;'></div><div class = 'column'><img src = 'usneg/2750.bmp' width = '100%;'></div></div>","null","neg","CS","CS","1","category1/CS9.png","","","","",""
"","html-keyboard-response","81","405224","0.0-6.0-6.0-0.12","2olm6np2cg","one_one","1","direct_first","1","st07rd20","0","21","1","1","3","1","Ich hatte Probleme mit dem Sound bei der vorletzten Aufgabe. Ich bin mir allerdings nicht sicher, ob es an meinem Laptop lag.","0","1","0","null","","","<div class = 'row'><div class = 'column'><img src = 'usneg/1280.bmp' width = '100%;'></div><div class = 'column'><img src = 'category3/CS3.png' width = '70%;'></div></div>","null","neg","CS","CS","3","category3/CS3.png","","","","",""
"","html-keyboard-response","82","407739","0.0-6.0-6.0-0.13","2olm6np2cg","one_one","1","direct_first","1","st07rd20","0","21","1","1","3","1","Ich hatte Probleme mit dem Sound bei der vorletzten Aufgabe. Ich bin mir allerdings nicht sicher, ob es an meinem Laptop lag.","0","1","0","null","","","<div class = 'row'><div class = 'column'><img src = 'usneg/2750.bmp' width = '100%;'></div><div class = 'column'><img src = 'category1/CS9.png' width = '70%;'></div></div>","null","neg","CS","CS","1","category1/CS9.png","","","","",""
"","html-keyboard-response","83","410250","0.0-6.0-6.0-0.14","2olm6np2cg","one_one","1","direct_first","1","st07rd20","0","21","1","1","3","1","Ich hatte Probleme mit dem Sound bei der vorletzten Aufgabe. Ich bin mir allerdings nicht sicher, ob es an meinem Laptop lag.","0","1","0","null","","","<div class = 'row'><div class = 'column'><img src = 'category4/CS5.png' width = '70%;'></div><div class = 'column'><img src = 'uspos/4625.bmp' width = '100%;'></div></div>","null","pos","CS","CS","4","category4/CS5.png","","","","",""
"","html-keyboard-response","84","412756","0.0-6.0-6.0-0.15","2olm6np2cg","one_one","1","direct_first","1","st07rd20","0","21","1","1","3","1","Ich hatte Probleme mit dem Sound bei der vorletzten Aufgabe. Ich bin mir allerdings nicht sicher, ob es an meinem Laptop lag.","0","1","0","null","","","<div class = 'row'><div class = 'column'><img src = 'usneg/1280.bmp' width = '100%;'></div><div class = 'column'><img src = 'category3/CS3.png' width = '70%;'></div></div>","null","neg","CS","CS","3","category3/CS3.png","","","","",""
"","html-keyboard-response","85","415271","0.0-6.0-6.0-0.16","2olm6np2cg","one_one","1","direct_first","1","st07rd20","0","21","1","1","3","1","Ich hatte Probleme mit dem Sound bei der vorletzten Aufgabe. Ich bin mir allerdings nicht sicher, ob es an meinem Laptop lag.","0","1","0","null","","","<div class = 'row'><div class = 'column'><img src = 'uspos/2160.bmp' width = '100%;'></div><div class = 'column'><img src = 'category2/CS1.png' width = '70%;'></div></div>","null","pos","CS","CS","2","category2/CS1.png","","","","",""
"","html-keyboard-response","86","417786","0.0-6.0-6.0-0.17","2olm6np2cg","one_one","1","direct_first","1","st07rd20","0","21","1","1","3","1","Ich hatte Probleme mit dem Sound bei der vorletzten Aufgabe. Ich bin mir allerdings nicht sicher, ob es an meinem Laptop lag.","0","1","0","null","","","<div class = 'row'><div class = 'column'><img src = 'category3/CS3.png' width = '70%;'></div><div class = 'column'><img src = 'usneg/1280.bmp' width = '100%;'></div></div>","null","neg","CS","CS","3","category3/CS3.png","","","","",""
"","html-keyboard-response","87","420298","0.0-6.0-6.0-0.18","2olm6np2cg","one_one","1","direct_first","1","st07rd20","0","21","1","1","3","1","Ich hatte Probleme mit dem Sound bei der vorletzten Aufgabe. Ich bin mir allerdings nicht sicher, ob es an meinem Laptop lag.","0","1","0","null","","","<div class = 'row'><div class = 'column'><img src = 'category4/CS5.png' width = '70%;'></div><div class = 'column'><img src = 'uspos/4625.bmp' width = '100%;'></div></div>","null","pos","CS","CS","4","category4/CS5.png","","","","",""
"","html-keyboard-response","88","422805","0.0-6.0-6.0-0.19","2olm6np2cg","one_one","1","direct_first","1","st07rd20","0","21","1","1","3","1","Ich hatte Probleme mit dem Sound bei der vorletzten Aufgabe. Ich bin mir allerdings nicht sicher, ob es an meinem Laptop lag.","0","1","0","null","","","<div class = 'row'><div class = 'column'><img src = 'uspos/2160.bmp' width = '100%;'></div><div class = 'column'><img src = 'category2/CS1.png' width = '70%;'></div></div>","null","pos","CS","CS","2","category2/CS1.png","","","","",""
"","survey-html-form","89","448900","0.0-7.0","2olm6np2cg","one_one","1","direct_first","1","st07rd20","0","21","1","1","3","1","Ich hatte Probleme mit dem Sound bei der vorletzten Aufgabe. Ich bin mir allerdings nicht sicher, ob es an meinem Laptop lag.","0","1","0","25584.715000120923","","{}","","","","","","","","","","","",""
"","image-slider-response","90","472447","0.0-8.0-0.0","2olm6np2cg","one_one","1","direct_first","1","st07rd20","0","21","1","1","3","1","Ich hatte Probleme mit dem Sound bei der vorletzten Aufgabe. Ich bin mir allerdings nicht sicher, ob es an meinem Laptop lag.","0","1","0","21540.709999855608","","","","","neg","GS","GSold","1","category1/CS7.png","-77","targets/23.png","direct","",""
"","image-slider-response","91","479200","0.0-8.0-0.1","2olm6np2cg","one_one","1","direct_first","1","st07rd20","0","21","1","1","3","1","Ich hatte Probleme mit dem Sound bei der vorletzten Aufgabe. Ich bin mir allerdings nicht sicher, ob es an meinem Laptop lag.","0","1","0","6755.5549999233335","","","","","pos","GS","abstract","2","category2/men.png","52","targets/46.png","direct","",""
"","image-slider-response","92","486330","0.0-8.0-0.2","2olm6np2cg","one_one","1","direct_first","1","st07rd20","0","21","1","1","3","1","Ich hatte Probleme mit dem Sound bei der vorletzten Aufgabe. Ich bin mir allerdings nicht sicher, ob es an meinem Laptop lag.","0","1","0","7127.674999879673","","","","","neg","GS","GSold","1","category1/CS4.png","-42","targets/29.png","direct","",""
"","image-slider-response","93","491809","0.0-8.0-0.3","2olm6np2cg","one_one","1","direct_first","1","st07rd20","0","21","1","1","3","1","Ich hatte Probleme mit dem Sound bei der vorletzten Aufgabe. Ich bin mir allerdings nicht sicher, ob es an meinem Laptop lag.","0","1","0","5478.120000101626","","","","","pos","GS","GSnew","4","category4/GS2.png","47","targets/16.png","direct","",""
"","image-slider-response","94","495941","0.0-8.0-0.4","2olm6np2cg","one_one","1","direct_first","1","st07rd20","0","21","1","1","3","1","Ich hatte Probleme mit dem Sound bei der vorletzten Aufgabe. Ich bin mir allerdings nicht sicher, ob es an meinem Laptop lag.","0","1","0","4129.6999999322","","","","","neg","CS","CS","3","category3/CS3.png","-100","targets/11.png","direct","",""
"","image-slider-response","95","502070","0.0-8.0-0.5","2olm6np2cg","one_one","1","direct_first","1","st07rd20","0","21","1","1","3","1","Ich hatte Probleme mit dem Sound bei der vorletzten Aufgabe. Ich bin mir allerdings nicht sicher, ob es an meinem Laptop lag.","0","1","0","6127.270000055432","","","","","neg","GS","GSold","1","category1/CS3.png","27","targets/43.png","direct","",""
"","image-slider-response","96","506540","0.0-8.0-0.6","2olm6np2cg","one_one","1","direct_first","1","st07rd20","0","21","1","1","3","1","Ich hatte Probleme mit dem Sound bei der vorletzten Aufgabe. Ich bin mir allerdings nicht sicher, ob es an meinem Laptop lag.","0","1","0","4467.984999995679","","","","","pos","GS","abstract","4","category4/lin.png","75","targets/45.png","direct","",""
"","image-slider-response","97","519846","0.0-8.0-0.7","2olm6np2cg","one_one","1","direct_first","1","st07rd20","0","21","1","1","3","1","Ich hatte Probleme mit dem Sound bei der vorletzten Aufgabe. Ich bin mir allerdings nicht sicher, ob es an meinem Laptop lag.","0","1","0","13304.140000138432","","","","","neg","GS","GSold","3","category3/CS10.png","-40","targets/1.png","direct","",""
"","image-slider-response","98","522687","0.0-8.0-0.8","2olm6np2cg","one_one","1","direct_first","1","st07rd20","0","21","1","1","3","1","Ich hatte Probleme mit dem Sound bei der vorletzten Aufgabe. Ich bin mir allerdings nicht sicher, ob es an meinem Laptop lag.","0","1","0","2838.7549999170005","","","","","pos","GS","GSold","2","category2/CS7.png","59","targets/18.png","direct","",""
"","image-slider-response","99","526495","0.0-8.0-0.9","2olm6np2cg","one_one","1","direct_first","1","st07rd20","0","21","1","1","3","1","Ich hatte Probleme mit dem Sound bei der vorletzten Aufgabe. Ich bin mir allerdings nicht sicher, ob es an meinem Laptop lag.","0","1","0","3806.6099998541176","","","","","neg","GS","GSold","3","category3/CS7.png","-48","targets/44.png","direct","",""
"","image-slider-response","100","530352","0.0-8.0-0.10","2olm6np2cg","one_one","1","direct_first","1","st07rd20","0","21","1","1","3","1","Ich hatte Probleme mit dem Sound bei der vorletzten Aufgabe. Ich bin mir allerdings nicht sicher, ob es an meinem Laptop lag.","0","1","0","3854.164999909699","","","","","neg","GS","GSnew","3","category3/GS1.png","-42","targets/8.png","direct","",""
"","image-slider-response","101","533482","0.0-8.0-0.11","2olm6np2cg","one_one","1","direct_first","1","st07rd20","0","21","1","1","3","1","Ich hatte Probleme mit dem Sound bei der vorletzten Aufgabe. Ich bin mir allerdings nicht sicher, ob es an meinem Laptop lag.","0","1","0","3128.1899998430163","","","","","pos","GS","GSold","4","category4/CS4.png","37","targets/17.png","direct","",""
"","image-slider-response","102","541426","0.0-8.0-0.12","2olm6np2cg","one_one","1","direct_first","1","st07rd20","0","21","1","1","3","1","Ich hatte Probleme mit dem Sound bei der vorletzten Aufgabe. Ich bin mir allerdings nicht sicher, ob es an meinem Laptop lag.","0","1","0","7940.12499996461","","","","","pos","GS","GSold","4","category4/CS9.png","55","targets/36.png","direct","",""
"","image-slider-response","103","544060","0.0-8.0-0.13","2olm6np2cg","one_one","1","direct_first","1","st07rd20","0","21","1","1","3","1","Ich hatte Probleme mit dem Sound bei der vorletzten Aufgabe. Ich bin mir allerdings nicht sicher, ob es an meinem Laptop lag.","0","1","0","2631.769999861717","","","","","pos","GS","GSnew","4","category4/GS1.png","78","targets/9.png","direct","",""
"","image-slider-response","104","546793","0.0-8.0-0.14","2olm6np2cg","one_one","1","direct_first","1","st07rd20","0","21","1","1","3","1","Ich hatte Probleme mit dem Sound bei der vorletzten Aufgabe. Ich bin mir allerdings nicht sicher, ob es an meinem Laptop lag.","0","1","0","2731.9799999240786","","","","","pos","CS","CS","4","category4/CS5.png","100","targets/14.png","direct","",""
"","image-slider-response","105","550162","0.0-8.0-0.15","2olm6np2cg","one_one","1","direct_first","1","st07rd20","0","21","1","1","3","1","Ich hatte Probleme mit dem Sound bei der vorletzten Aufgabe. Ich bin mir allerdings nicht sicher, ob es an meinem Laptop lag.","0","1","0","3366.389999864623","","","","","pos","GS","GSold","2","category2/CS5.png","34","targets/42.png","direct","",""
"","image-slider-response","106","553123","0.0-8.0-0.16","2olm6np2cg","one_one","1","direct_first","1","st07rd20","0","21","1","1","3","1","Ich hatte Probleme mit dem Sound bei der vorletzten Aufgabe. Ich bin mir allerdings nicht sicher, ob es an meinem Laptop lag.","0","1","0","2959.8150001838803","","","","","neg","GS","GSnew","3","category3/GS3.png","-83","targets/15.png","direct","",""
"","image-slider-response","107","555853","0.0-8.0-0.17","2olm6np2cg","one_one","1","direct_first","1","st07rd20","0","21","1","1","3","1","Ich hatte Probleme mit dem Sound bei der vorletzten Aufgabe. Ich bin mir allerdings nicht sicher, ob es an meinem Laptop lag.","0","1","0","2728.0749999918044","","","","","pos","GS","GSnew","2","category2/GS3.png","37","targets/48.png","direct","",""
"","image-slider-response","108","561047","0.0-8.0-0.18","2olm6np2cg","one_one","1","direct_first","1","st07rd20","0","21","1","1","3","1","Ich hatte Probleme mit dem Sound bei der vorletzten Aufgabe. Ich bin mir allerdings nicht sicher, ob es an meinem Laptop lag.","0","1","0","5192.705000052229","","","","","pos","GS","GSnew","2","category2/GS1.png","13","targets/19.png","direct","",""
"","image-slider-response","109","567879","0.0-8.0-0.19","2olm6np2cg","one_one","1","direct_first","1","st07rd20","0","21","1","1","3","1","Ich hatte Probleme mit dem Sound bei der vorletzten Aufgabe. Ich bin mir allerdings nicht sicher, ob es an meinem Laptop lag.","0","1","0","6829.584999941289","","","","","pos","GS","GSold","2","category2/CS8.png","-6","targets/4.png","direct","",""
"","image-slider-response","110","573001","0.0-8.0-0.20","2olm6np2cg","one_one","1","direct_first","1","st07rd20","0","21","1","1","3","1","Ich hatte Probleme mit dem Sound bei der vorletzten Aufgabe. Ich bin mir allerdings nicht sicher, ob es an meinem Laptop lag.","0","1","0","5120.020000031218","","","","","pos","GS","GSnew","2","category2/GS2.png","32","targets/32.png","direct","",""
"","image-slider-response","111","578327","0.0-8.0-0.21","2olm6np2cg","one_one","1","direct_first","1","st07rd20","0","21","1","1","3","1","Ich hatte Probleme mit dem Sound bei der vorletzten Aufgabe. Ich bin mir allerdings nicht sicher, ob es an meinem Laptop lag.","0","1","0","5323.880000039935","","","","","pos","CS","CS","2","category2/CS1.png","-12","targets/41.png","direct","",""
"","image-slider-response","112","581092","0.0-8.0-0.22","2olm6np2cg","one_one","1","direct_first","1","st07rd20","0","21","1","1","3","1","Ich hatte Probleme mit dem Sound bei der vorletzten Aufgabe. Ich bin mir allerdings nicht sicher, ob es an meinem Laptop lag.","0","1","0","2762.6000000163913","","","","","neg","GS","GSold","3","category3/CS2.png","-60","targets/40.png","direct","",""
"","image-slider-response","113","585781","0.0-8.0-0.23","2olm6np2cg","one_one","1","direct_first","1","st07rd20","0","21","1","1","3","1","Ich hatte Probleme mit dem Sound bei der vorletzten Aufgabe. Ich bin mir allerdings nicht sicher, ob es an meinem Laptop lag.","0","1","0","4686.830000020564","","","","","neg","CS","CS","1","category1/CS9.png","-17","targets/39.png","direct","",""
"","image-slider-response","114","589473","0.0-8.0-0.24","2olm6np2cg","one_one","1","direct_first","1","st07rd20","0","21","1","1","3","1","Ich hatte Probleme mit dem Sound bei der vorletzten Aufgabe. Ich bin mir allerdings nicht sicher, ob es an meinem Laptop lag.","0","1","0","3690.764999948442","","","","","neg","GS","abstract","1","category1/ma.png","64","targets/13.png","direct","",""
"","image-slider-response","115","592955","0.0-8.0-0.25","2olm6np2cg","one_one","1","direct_first","1","st07rd20","0","21","1","1","3","1","Ich hatte Probleme mit dem Sound bei der vorletzten Aufgabe. Ich bin mir allerdings nicht sicher, ob es an meinem Laptop lag.","0","1","0","3480.205000145361","","","","","neg","GS","GSnew","1","category1/GS1.png","40","targets/33.png","direct","",""
"","image-slider-response","116","596455","0.0-8.0-0.26","2olm6np2cg","one_one","1","direct_first","1","st07rd20","0","21","1","1","3","1","Ich hatte Probleme mit dem Sound bei der vorletzten Aufgabe. Ich bin mir allerdings nicht sicher, ob es an meinem Laptop lag.","0","1","0","3497.5749999284744","","","","","pos","GS","GSnew","4","category4/GS3.png","95","targets/22.png","direct","",""
"","image-slider-response","117","600884","0.0-8.0-0.27","2olm6np2cg","one_one","1","direct_first","1","st07rd20","0","21","1","1","3","1","Ich hatte Probleme mit dem Sound bei der vorletzten Aufgabe. Ich bin mir allerdings nicht sicher, ob es an meinem Laptop lag.","0","1","0","4426.010000053793","","","","","neg","GS","GSnew","3","category3/GS2.png","-20","targets/12.png","direct","",""
"","image-slider-response","118","603377","0.0-8.0-0.28","2olm6np2cg","one_one","1","direct_first","1","st07rd20","0","21","1","1","3","1","Ich hatte Probleme mit dem Sound bei der vorletzten Aufgabe. Ich bin mir allerdings nicht sicher, ob es an meinem Laptop lag.","0","1","0","2491.6149999480695","","","","","neg","GS","GSnew","1","category1/GS2.png","22","targets/6.png","direct","",""
"","image-slider-response","119","605970","0.0-8.0-0.29","2olm6np2cg","one_one","1","direct_first","1","st07rd20","0","21","1","1","3","1","Ich hatte Probleme mit dem Sound bei der vorletzten Aufgabe. Ich bin mir allerdings nicht sicher, ob es an meinem Laptop lag.","0","1","0","2590.9850001335144","","","","","pos","GS","GSold","4","category4/CS6.png","60","targets/28.png","direct","",""
"","image-slider-response","120","608909","0.0-8.0-0.30","2olm6np2cg","one_one","1","direct_first","1","st07rd20","0","21","1","1","3","1","Ich hatte Probleme mit dem Sound bei der vorletzten Aufgabe. Ich bin mir allerdings nicht sicher, ob es an meinem Laptop lag.","0","1","0","2937.750000040978","","","","","neg","GS","GSnew","1","category1/GS3.png","35","targets/24.png","direct","",""
"","image-slider-response","121","611092","0.0-8.0-0.31","2olm6np2cg","one_one","1","direct_first","1","st07rd20","0","21","1","1","3","1","Ich hatte Probleme mit dem Sound bei der vorletzten Aufgabe. Ich bin mir allerdings nicht sicher, ob es an meinem Laptop lag.","0","1","0","2180.415000068024","","","","","neg","GS","abstract","3","category3/wang.png","-46","targets/47.png","direct","",""
"","html-keyboard-response","122","658112","0.0-9.0","2olm6np2cg","one_one","1","direct_first","1","st07rd20","0","21","1","1","3","1","Ich hatte Probleme mit dem Sound bei der vorletzten Aufgabe. Ich bin mir allerdings nicht sicher, ob es an meinem Laptop lag.","0","1","0","47022.1700000111","","","<p>Sie sehen nun die chinesischen Zeichen nur ganz kurz. Danach sehen Sie die jeweilige Aussprache der Zeichen als Silbe auf dem Bildschrim. Ihre Aufgabe ist es, fr jede Silbe anzugeben, ob diese etwas angenehmes, oder unangenehmes bedeuten knnte. Verlassen Sie sich hier vor allem auf Ihre Intuition.<br><br>Die Zeichen werden nur zur Orientierung dargestellt, beachten Sie sie deshalb nicht. Konzentrieren Sie sich vor allem auf die Silben. <br>Reagieren Sie mit folgenden zwei Tasten: <br><br><b>'D' </b> wenn die Silbe etwas <b>unangenehmes</b> bedeuten knnte. <br><b>'K'</b> wenn die Silbe etwas <b>angenehmes</b> bedeuten knnte. <br><br>Bitte legen Sie nun den Zeigefinger der linken Hand auf die Taste 'D' und den Zeigefinger der rechten Hand auf die Taste 'K'. <br>Reagieren Sie auf jede Silbe so schnell wie mglich. Uns interessiert Ihre spontane Reaktion. <br> <br> <br>Drcken Sie 'D' oder 'K', um die nchste Aufgabe zu starten. </p>","75","","","","","","","","","",""
"","html-keyboard-response","123","661118","0.0-10.0-0.0","2olm6np2cg","one_one","1","direct_first","1","st07rd20","0","21","1","1","3","1","Ich hatte Probleme mit dem Sound bei der vorletzten Aufgabe. Ich bin mir allerdings nicht sicher, ob es an meinem Laptop lag.","0","1","0","null","","","<div style=""font-size:60px;"">+</div>","null","","","","","","","","","",""
"","html-keyboard-response","124","661216","0.0-10.0-1.0","2olm6np2cg","one_one","1","direct_first","1","st07rd20","0","21","1","1","3","1","Ich hatte Probleme mit dem Sound bei der vorletzten Aufgabe. Ich bin mir allerdings nicht sicher, ob es an meinem Laptop lag.","0","1","0","null","","","<img src = 'category3/CS10.png' width = '100%;'>","null","","","","","","","","","",""
"","html-keyboard-response","125","661478","0.0-10.0-2.0","2olm6np2cg","one_one","1","direct_first","1","st07rd20","0","21","1","1","3","1","Ich hatte Probleme mit dem Sound bei der vorletzten Aufgabe. Ich bin mir allerdings nicht sicher, ob es an meinem Laptop lag.","0","1","0","null","","","<img src = 'targets/1.png' width = '100%;'>","null","","","","","","","","","",""
"","html-keyboard-response","126","664603","0.0-10.0-3.0","2olm6np2cg","one_one","1","direct_first","1","st07rd20","0","21","1","1","3","1","Ich hatte Probleme mit dem Sound bei der vorletzten Aufgabe. Ich bin mir allerdings nicht sicher, ob es an meinem Laptop lag.","0","1","0","3122.5749999284744","","","<img src = 'targets/mask.png' width = '100%;'>","75","neg","GS","GSold","3","category3/CS10.png","","targets/1.png","indirect","1","0"
"","html-keyboard-response","127","666118","0.0-10.0-0.1","2olm6np2cg","one_one","1","direct_first","1","st07rd20","0","21","1","1","3","1","Ich hatte Probleme mit dem Sound bei der vorletzten Aufgabe. Ich bin mir allerdings nicht sicher, ob es an meinem Laptop lag.","0","1","0","null","","","<div style=""font-size:60px;"">+</div>","null","","","","","","","","","",""
"","html-keyboard-response","128","666215","0.0-10.0-1.1","2olm6np2cg","one_one","1","direct_first","1","st07rd20","0","21","1","1","3","1","Ich hatte Probleme mit dem Sound bei der vorletzten Aufgabe. Ich bin mir allerdings nicht sicher, ob es an meinem Laptop lag.","0","1","0","null","","","<img src = 'category4/CS6.png' width = '100%;'>","null","","","","","","","","","",""
"","html-keyboard-response","129","666474","0.0-10.0-2.1","2olm6np2cg","one_one","1","direct_first","1","st07rd20","0","21","1","1","3","1","Ich hatte Probleme mit dem Sound bei der vorletzten Aufgabe. Ich bin mir allerdings nicht sicher, ob es an meinem Laptop lag.","0","1","0","null","","","<img src = 'targets/28.png' width = '100%;'>","null","","","","","","","","","",""
"","html-keyboard-response","130","680183","0.0-10.0-3.1","2olm6np2cg","one_one","1","direct_first","1","st07rd20","0","21","1","1","3","1","Ich hatte Probleme mit dem Sound bei der vorletzten Aufgabe. Ich bin mir allerdings nicht sicher, ob es an meinem Laptop lag.","0","1","0","13707.030000165105","","","<img src = 'targets/mask.png' width = '100%;'>","68","pos","GS","GSold","4","category4/CS6.png","","targets/28.png","indirect","0","1"
"","html-keyboard-response","131","681687","0.0-10.0-0.2","2olm6np2cg","one_one","1","direct_first","1","st07rd20","0","21","1","1","3","1","Ich hatte Probleme mit dem Sound bei der vorletzten Aufgabe. Ich bin mir allerdings nicht sicher, ob es an meinem Laptop lag.","0","1","0","null","","","<div style=""font-size:60px;"">+</div>","null","","","","","","","","","",""
"","html-keyboard-response","132","681784","0.0-10.0-1.2","2olm6np2cg","one_one","1","direct_first","1","st07rd20","0","21","1","1","3","1","Ich hatte Probleme mit dem Sound bei der vorletzten Aufgabe. Ich bin mir allerdings nicht sicher, ob es an meinem Laptop lag.","0","1","0","null","","","<img src = 'category2/CS8.png' width = '100%;'>","null","","","","","","","","","",""
"","html-keyboard-response","133","682044","0.0-10.0-2.2","2olm6np2cg","one_one","1","direct_first","1","st07rd20","0","21","1","1","3","1","Ich hatte Probleme mit dem Sound bei der vorletzten Aufgabe. Ich bin mir allerdings nicht sicher, ob es an meinem Laptop lag.","0","1","0","null","","","<img src = 'targets/4.png' width = '100%;'>","null","","","","","","","","","",""
"","html-keyboard-response","134","685074","0.0-10.0-3.2","2olm6np2cg","one_one","1","direct_first","1","st07rd20","0","21","1","1","3","1","Ich hatte Probleme mit dem Sound bei der vorletzten Aufgabe. Ich bin mir allerdings nicht sicher, ob es an meinem Laptop lag.","0","1","0","3027.0950000267476","","","<img src = 'targets/mask.png' width = '100%;'>","75","pos","GS","GSold","2","category2/CS8.png","","targets/4.png","indirect","1","2"
"","html-keyboard-response","135","686585","0.0-10.0-0.3","2olm6np2cg","one_one","1","direct_first","1","st07rd20","0","21","1","1","3","1","Ich hatte Probleme mit dem Sound bei der vorletzten Aufgabe. Ich bin mir allerdings nicht sicher, ob es an meinem Laptop lag.","0","1","0","null","","","<div style=""font-size:60px;"">+</div>","null","","","","","","","","","",""
"","html-keyboard-response","136","686681","0.0-10.0-1.3","2olm6np2cg","one_one","1","direct_first","1","st07rd20","0","21","1","1","3","1","Ich hatte Probleme mit dem Sound bei der vorletzten Aufgabe. Ich bin mir allerdings nicht sicher, ob es an meinem Laptop lag.","0","1","0","null","","","<img src = 'category4/CS9.png' width = '100%;'>","null","","","","","","","","","",""
"","html-keyboard-response","137","686942","0.0-10.0-2.3","2olm6np2cg","one_one","1","direct_first","1","st07rd20","0","21","1","1","3","1","Ich hatte Probleme mit dem Sound bei der vorletzten Aufgabe. Ich bin mir allerdings nicht sicher, ob es an meinem Laptop lag.","0","1","0","null","","","<img src = 'targets/36.png' width = '100%;'>","null","","","","","","","","","",""
"","html-keyboard-response","138","690242","0.0-10.0-3.3","2olm6np2cg","one_one","1","direct_first","1","st07rd20","0","21","1","1","3","1","Ich hatte Probleme mit dem Sound bei der vorletzten Aufgabe. Ich bin mir allerdings nicht sicher, ob es an meinem Laptop lag.","0","1","0","3298.214999958873","","","<img src = 'targets/mask.png' width = '100%;'>","68","pos","GS","GSold","4","category4/CS9.png","","targets/36.png","indirect","0","3"
"","html-keyboard-response","139","691759","0.0-10.0-0.4","2olm6np2cg","one_one","1","direct_first","1","st07rd20","0","21","1","1","3","1","Ich hatte Probleme mit dem Sound bei der vorletzten Aufgabe. Ich bin mir allerdings nicht sicher, ob es an meinem Laptop lag.","0","1","0","null","","","<div style=""font-size:60px;"">+</div>","null","","","","","","","","","",""
"","html-keyboard-response","140","691856","0.0-10.0-1.4","2olm6np2cg","one_one","1","direct_first","1","st07rd20","0","21","1","1","3","1","Ich hatte Probleme mit dem Sound bei der vorletzten Aufgabe. Ich bin mir allerdings nicht sicher, ob es an meinem Laptop lag.","0","1","0","null","","","<img src = 'category4/CS5.png' width = '100%;'>","null","","","","","","","","","",""
"","html-keyboard-response","141","692119","0.0-10.0-2.4","2olm6np2cg","one_one","1","direct_first","1","st07rd20","0","21","1","1","3","1","Ich hatte Probleme mit dem Sound bei der vorletzten Aufgabe. Ich bin mir allerdings nicht sicher, ob es an meinem Laptop lag.","0","1","0","null","","","<img src = 'targets/14.png' width = '100%;'>","null","","","","","","","","","",""
"","html-keyboard-response","142","693618","0.0-10.0-3.4","2olm6np2cg","one_one","1","direct_first","1","st07rd20","0","21","1","1","3","1","Ich hatte Probleme mit dem Sound bei der vorletzten Aufgabe. Ich bin mir allerdings nicht sicher, ob es an meinem Laptop lag.","0","1","0","1496.2450000457466","","","<img src = 'targets/mask.png' width = '100%;'>","68","pos","CS","CS","4","category4/CS5.png","","targets/14.png","indirect","0","4"
"","html-keyboard-response","143","695129","0.0-10.0-0.5","2olm6np2cg","one_one","1","direct_first","1","st07rd20","0","21","1","1","3","1","Ich hatte Probleme mit dem Sound bei der vorletzten Aufgabe. Ich bin mir allerdings nicht sicher, ob es an meinem Laptop lag.","0","1","0","null","","","<div style=""font-size:60px;"">+</div>","null","","","","","","","","","",""
"","html-keyboard-response","144","695229","0.0-10.0-1.5","2olm6np2cg","one_one","1","direct_first","1","st07rd20","0","21","1","1","3","1","Ich hatte Probleme mit dem Sound bei der vorletzten Aufgabe. Ich bin mir allerdings nicht sicher, ob es an meinem Laptop lag.","0","1","0","null","","","<img src = 'category2/CS1.png' width = '100%;'>","null","","","","","","","","","",""
"","html-keyboard-response","145","695492","0.0-10.0-2.5","2olm6np2cg","one_one","1","direct_first","1","st07rd20","0","21","1","1","3","1","Ich hatte Probleme mit dem Sound bei der vorletzten Aufgabe. Ich bin mir allerdings nicht sicher, ob es an meinem Laptop lag.","0","1","0","null","","","<img src = 'targets/41.png' width = '100%;'>","null","","","","","","","","","",""
"","html-keyboard-response","146","698016","0.0-10.0-3.5","2olm6np2cg","one_one","1","direct_first","1","st07rd20","0","21","1","1","3","1","Ich hatte Probleme mit dem Sound bei der vorletzten Aufgabe. Ich bin mir allerdings nicht sicher, ob es an meinem Laptop lag.","0","1","0","2520.940000191331","","","<img src = 'targets/mask.png' width = '100%;'>","75","pos","CS","CS","2","category2/CS1.png","","targets/41.png","indirect","1","5"
"","html-keyboard-response","147","699526","0.0-10.0-0.6","2olm6np2cg","one_one","1","direct_first","1","st07rd20","0","21","1","1","3","1","Ich hatte Probleme mit dem Sound bei der vorletzten Aufgabe. Ich bin mir allerdings nicht sicher, ob es an meinem Laptop lag.","0","1","0","null","","","<div style=""font-size:60px;"">+</div>","null","","","","","","","","","",""
"","html-keyboard-response","148","699624","0.0-10.0-1.6","2olm6np2cg","one_one","1","direct_first","1","st07rd20","0","21","1","1","3","1","Ich hatte Probleme mit dem Sound bei der vorletzten Aufgabe. Ich bin mir allerdings nicht sicher, ob es an meinem Laptop lag.","0","1","0","null","","","<img src = 'category2/CS7.png' width = '100%;'>","null","","","","","","","","","",""
"","html-keyboard-response","149","699881","0.0-10.0-2.6","2olm6np2cg","one_one","1","direct_first","1","st07rd20","0","21","1","1","3","1","Ich hatte Probleme mit dem Sound bei der vorletzten Aufgabe. Ich bin mir allerdings nicht sicher, ob es an meinem Laptop lag.","0","1","0","null","","","<img src = 'targets/18.png' width = '100%;'>","null","","","","","","","","","",""
"","html-keyboard-response","150","701676","0.0-10.0-3.6","2olm6np2cg","one_one","1","direct_first","1","st07rd20","0","21","1","1","3","1","Ich hatte Probleme mit dem Sound bei der vorletzten Aufgabe. Ich bin mir allerdings nicht sicher, ob es an meinem Laptop lag.","0","1","0","1792.4349999520928","","","<img src = 'targets/mask.png' width = '100%;'>","68","pos","GS","GSold","2","category2/CS7.png","","targets/18.png","indirect","0","6"
"","html-keyboard-response","151","703181","0.0-10.0-0.7","2olm6np2cg","one_one","1","direct_first","1","st07rd20","0","21","1","1","3","1","Ich hatte Probleme mit dem Sound bei der vorletzten Aufgabe. Ich bin mir allerdings nicht sicher, ob es an meinem Laptop lag.","0","1","0","null","","","<div style=""font-size:60px;"">+</div>","null","","","","","","","","","",""
"","html-keyboard-response","152","703280","0.0-10.0-1.7","2olm6np2cg","one_one","1","direct_first","1","st07rd20","0","21","1","1","3","1","Ich hatte Probleme mit dem Sound bei der vorletzten Aufgabe. Ich bin mir allerdings nicht sicher, ob es an meinem Laptop lag.","0","1","0","null","","","<img src = 'category1/CS4.png' width = '100%;'>","null","","","","","","","","","",""
"","html-keyboard-response","153","703540","0.0-10.0-2.7","2olm6np2cg","one_one","1","direct_first","1","st07rd20","0","21","1","1","3","1","Ich hatte Probleme mit dem Sound bei der vorletzten Aufgabe. Ich bin mir allerdings nicht sicher, ob es an meinem Laptop lag.","0","1","0","null","","","<img src = 'targets/29.png' width = '100%;'>","null","","","","","","","","","",""
"","html-keyboard-response","154","706357","0.0-10.0-3.7","2olm6np2cg","one_one","1","direct_first","1","st07rd20","0","21","1","1","3","1","Ich hatte Probleme mit dem Sound bei der vorletzten Aufgabe. Ich bin mir allerdings nicht sicher, ob es an meinem Laptop lag.","0","1","0","2813.9499998651445","","","<img src = 'targets/mask.png' width = '100%;'>","75","neg","GS","GSold","1","category1/CS4.png","","targets/29.png","indirect","1","7"
"","html-keyboard-response","155","707868","0.0-10.0-0.8","2olm6np2cg","one_one","1","direct_first","1","st07rd20","0","21","1","1","3","1","Ich hatte Probleme mit dem Sound bei der vorletzten Aufgabe. Ich bin mir allerdings nicht sicher, ob es an meinem Laptop lag.","0","1","0","null","","","<div style=""font-size:60px;"">+</div>","null","","","","","","","","","",""
"","html-keyboard-response","156","707966","0.0-10.0-1.8","2olm6np2cg","one_one","1","direct_first","1","st07rd20","0","21","1","1","3","1","Ich hatte Probleme mit dem Sound bei der vorletzten Aufgabe. Ich bin mir allerdings nicht sicher, ob es an meinem Laptop lag.","0","1","0","null","","","<img src = 'category3/CS2.png' width = '100%;'>","null","","","","","","","","","",""
"","html-keyboard-response","157","708225","0.0-10.0-2.8","2olm6np2cg","one_one","1","direct_first","1","st07rd20","0","21","1","1","3","1","Ich hatte Probleme mit dem Sound bei der vorletzten Aufgabe. Ich bin mir allerdings nicht sicher, ob es an meinem Laptop lag.","0","1","0","null","","","<img src = 'targets/40.png' width = '100%;'>","null","","","","","","","","","",""
"","html-keyboard-response","158","709328","0.0-10.0-3.8","2olm6np2cg","one_one","1","direct_first","1","st07rd20","0","21","1","1","3","1","Ich hatte Probleme mit dem Sound bei der vorletzten Aufgabe. Ich bin mir allerdings nicht sicher, ob es an meinem Laptop lag.","0","1","0","1100.414999993518","","","<img src = 'targets/mask.png' width = '100%;'>","75","neg","GS","GSold","3","category3/CS2.png","","targets/40.png","indirect","1","8"
"","html-keyboard-response","159","710841","0.0-10.0-0.9","2olm6np2cg","one_one","1","direct_first","1","st07rd20","0","21","1","1","3","1","Ich hatte Probleme mit dem Sound bei der vorletzten Aufgabe. Ich bin mir allerdings nicht sicher, ob es an meinem Laptop lag.","0","1","0","null","","","<div style=""font-size:60px;"">+</div>","null","","","","","","","","","",""
"","html-keyboard-response","160","710940","0.0-10.0-1.9","2olm6np2cg","one_one","1","direct_first","1","st07rd20","0","21","1","1","3","1","Ich hatte Probleme mit dem Sound bei der vorletzten Aufgabe. Ich bin mir allerdings nicht sicher, ob es an meinem Laptop lag.","0","1","0","null","","","<img src = 'category3/CS7.png' width = '100%;'>","null","","","","","","","","","",""
"","html-keyboard-response","161","711205","0.0-10.0-2.9","2olm6np2cg","one_one","1","direct_first","1","st07rd20","0","21","1","1","3","1","Ich hatte Probleme mit dem Sound bei der vorletzten Aufgabe. Ich bin mir allerdings nicht sicher, ob es an meinem Laptop lag.","0","1","0","null","","","<img src = 'targets/44.png' width = '100%;'>","null","","","","","","","","","",""
"","html-keyboard-response","162","712262","0.0-10.0-3.9","2olm6np2cg","one_one","1","direct_first","1","st07rd20","0","21","1","1","3","1","Ich hatte Probleme mit dem Sound bei der vorletzten Aufgabe. Ich bin mir allerdings nicht sicher, ob es an meinem Laptop lag.","0","1","0","1055.5050000548363","","","<img src = 'targets/mask.png' width = '100%;'>","75","neg","GS","GSold","3","category3/CS7.png","","targets/44.png","indirect","1","9"
"","html-keyboard-response","163","713769","0.0-10.0-0.10","2olm6np2cg","one_one","1","direct_first","1","st07rd20","0","21","1","1","3","1","Ich hatte Probleme mit dem Sound bei der vorletzten Aufgabe. Ich bin mir allerdings nicht sicher, ob es an meinem Laptop lag.","0","1","0","null","","","<div style=""font-size:60px;"">+</div>","null","","","","","","","","","",""
"","html-keyboard-response","164","713865","0.0-10.0-1.10","2olm6np2cg","one_one","1","direct_first","1","st07rd20","0","21","1","1","3","1","Ich hatte Probleme mit dem Sound bei der vorletzten Aufgabe. Ich bin mir allerdings nicht sicher, ob es an meinem Laptop lag.","0","1","0","null","","","<img src = 'category1/CS3.png' width = '100%;'>","null","","","","","","","","","",""
"","html-keyboard-response","165","714125","0.0-10.0-2.10","2olm6np2cg","one_one","1","direct_first","1","st07rd20","0","21","1","1","3","1","Ich hatte Probleme mit dem Sound bei der vorletzten Aufgabe. Ich bin mir allerdings nicht sicher, ob es an meinem Laptop lag.","0","1","0","null","","","<img src = 'targets/43.png' width = '100%;'>","null","","","","","","","","","",""
"","html-keyboard-response","166","715501","0.0-10.0-3.10","2olm6np2cg","one_one","1","direct_first","1","st07rd20","0","21","1","1","3","1","Ich hatte Probleme mit dem Sound bei der vorletzten Aufgabe. Ich bin mir allerdings nicht sicher, ob es an meinem Laptop lag.","0","1","0","1374.1549998521805","","","<img src = 'targets/mask.png' width = '100%;'>","68","neg","GS","GSold","1","category1/CS3.png","","targets/43.png","indirect","0","10"
"","html-keyboard-response","167","717009","0.0-10.0-0.11","2olm6np2cg","one_one","1","direct_first","1","st07rd20","0","21","1","1","3","1","Ich hatte Probleme mit dem Sound bei der vorletzten Aufgabe. Ich bin mir allerdings nicht sicher, ob es an meinem Laptop lag.","0","1","0","null","","","<div style=""font-size:60px;"">+</div>","null","","","","","","","","","",""
"","html-keyboard-response","168","717105","0.0-10.0-1.11","2olm6np2cg","one_one","1","direct_first","1","st07rd20","0","21","1","1","3","1","Ich hatte Probleme mit dem Sound bei der vorletzten Aufgabe. Ich bin mir allerdings nicht sicher, ob es an meinem Laptop lag.","0","1","0","null","","","<img src = 'category4/CS4.png' width = '100%;'>","null","","","","","","","","","",""
"","html-keyboard-response","169","717367","0.0-10.0-2.11","2olm6np2cg","one_one","1","direct_first","1","st07rd20","0","21","1","1","3","1","Ich hatte Probleme mit dem Sound bei der vorletzten Aufgabe. Ich bin mir allerdings nicht sicher, ob es an meinem Laptop lag.","0","1","0","null","","","<img src = 'targets/17.png' width = '100%;'>","null","","","","","","","","","",""
"","html-keyboard-response","170","720110","0.0-10.0-3.11","2olm6np2cg","one_one","1","direct_first","1","st07rd20","0","21","1","1","3","1","Ich hatte Probleme mit dem Sound bei der vorletzten Aufgabe. Ich bin mir allerdings nicht sicher, ob es an meinem Laptop lag.","0","1","0","2739.0850000083447","","","<img src = 'targets/mask.png' width = '100%;'>","68","pos","GS","GSold","4","category4/CS4.png","","targets/17.png","indirect","0","11"
"","html-keyboard-response","171","721615","0.0-10.0-0.12","2olm6np2cg","one_one","1","direct_first","1","st07rd20","0","21","1","1","3","1","Ich hatte Probleme mit dem Sound bei der vorletzten Aufgabe. Ich bin mir allerdings nicht sicher, ob es an meinem Laptop lag.","0","1","0","null","","","<div style=""font-size:60px;"">+</div>","null","","","","","","","","","",""
"","html-keyboard-response","172","721714","0.0-10.0-1.12","2olm6np2cg","one_one","1","direct_first","1","st07rd20","0","21","1","1","3","1","Ich hatte Probleme mit dem Sound bei der vorletzten Aufgabe. Ich bin mir allerdings nicht sicher, ob es an meinem Laptop lag.","0","1","0","null","","","<img src = 'category1/CS9.png' width = '100%;'>","null","","","","","","","","","",""
"","html-keyboard-response","173","721972","0.0-10.0-2.12","2olm6np2cg","one_one","1","direct_first","1","st07rd20","0","21","1","1","3","1","Ich hatte Probleme mit dem Sound bei der vorletzten Aufgabe. Ich bin mir allerdings nicht sicher, ob es an meinem Laptop lag.","0","1","0","null","","","<img src = 'targets/39.png' width = '100%;'>","null","","","","","","","","","",""
"","html-keyboard-response","174","723267","0.0-10.0-3.12","2olm6np2cg","one_one","1","direct_first","1","st07rd20","0","21","1","1","3","1","Ich hatte Probleme mit dem Sound bei der vorletzten Aufgabe. Ich bin mir allerdings nicht sicher, ob es an meinem Laptop lag.","0","1","0","1292.3850000370294","","","<img src = 'targets/mask.png' width = '100%;'>","75","neg","CS","CS","1","category1/CS9.png","","targets/39.png","indirect","1","12"
"","html-keyboard-response","175","724782","0.0-10.0-0.13","2olm6np2cg","one_one","1","direct_first","1","st07rd20","0","21","1","1","3","1","Ich hatte Probleme mit dem Sound bei der vorletzten Aufgabe. Ich bin mir allerdings nicht sicher, ob es an meinem Laptop lag.","0","1","0","null","","","<div style=""font-size:60px;"">+</div>","null","","","","","","","","","",""
"","html-keyboard-response","176","724881","0.0-10.0-1.13","2olm6np2cg","one_one","1","direct_first","1","st07rd20","0","21","1","1","3","1","Ich hatte Probleme mit dem Sound bei der vorletzten Aufgabe. Ich bin mir allerdings nicht sicher, ob es an meinem Laptop lag.","0","1","0","null","","","<img src = 'category1/CS7.png' width = '100%;'>","null","","","","","","","","","",""
"","html-keyboard-response","177","725143","0.0-10.0-2.13","2olm6np2cg","one_one","1","direct_first","1","st07rd20","0","21","1","1","3","1","Ich hatte Probleme mit dem Sound bei der vorletzten Aufgabe. Ich bin mir allerdings nicht sicher, ob es an meinem Laptop lag.","0","1","0","null","","","<img src = 'targets/23.png' width = '100%;'>","null","","","","","","","","","",""
"","html-keyboard-response","178","727551","0.0-10.0-3.13","2olm6np2cg","one_one","1","direct_first","1","st07rd20","0","21","1","1","3","1","Ich hatte Probleme mit dem Sound bei der vorletzten Aufgabe. Ich bin mir allerdings nicht sicher, ob es an meinem Laptop lag.","0","1","0","2405.829999828711","","","<img src = 'targets/mask.png' width = '100%;'>","68","neg","GS","GSold","1","category1/CS7.png","","targets/23.png","indirect","0","13"
"","html-keyboard-response","179","729062","0.0-10.0-0.14","2olm6np2cg","one_one","1","direct_first","1","st07rd20","0","21","1","1","3","1","Ich hatte Probleme mit dem Sound bei der vorletzten Aufgabe. Ich bin mir allerdings nicht sicher, ob es an meinem Laptop lag.","0","1","0","null","","","<div style=""font-size:60px;"">+</div>","null","","","","","","","","","",""
"","html-keyboard-response","180","729160","0.0-10.0-1.14","2olm6np2cg","one_one","1","direct_first","1","st07rd20","0","21","1","1","3","1","Ich hatte Probleme mit dem Sound bei der vorletzten Aufgabe. Ich bin mir allerdings nicht sicher, ob es an meinem Laptop lag.","0","1","0","null","","","<img src = 'category3/CS3.png' width = '100%;'>","null","","","","","","","","","",""
"","html-keyboard-response","181","729414","0.0-10.0-2.14","2olm6np2cg","one_one","1","direct_first","1","st07rd20","0","21","1","1","3","1","Ich hatte Probleme mit dem Sound bei der vorletzten Aufgabe. Ich bin mir allerdings nicht sicher, ob es an meinem Laptop lag.","0","1","0","null","","","<img src = 'targets/11.png' width = '100%;'>","null","","","","","","","","","",""
"","html-keyboard-response","182","731735","0.0-10.0-3.14","2olm6np2cg","one_one","1","direct_first","1","st07rd20","0","21","1","1","3","1","Ich hatte Probleme mit dem Sound bei der vorletzten Aufgabe. Ich bin mir allerdings nicht sicher, ob es an meinem Laptop lag.","0","1","0","2318.72499990277","","","<img src = 'targets/mask.png' width = '100%;'>","75","neg","CS","CS","3","category3/CS3.png","","targets/11.png","indirect","1","14"
"","html-keyboard-response","183","733244","0.0-10.0-0.15","2olm6np2cg","one_one","1","direct_first","1","st07rd20","0","21","1","1","3","1","Ich hatte Probleme mit dem Sound bei der vorletzten Aufgabe. Ich bin mir allerdings nicht sicher, ob es an meinem Laptop lag.","0","1","0","null","","","<div style=""font-size:60px;"">+</div>","null","","","","","","","","","",""
"","html-keyboard-response","184","733342","0.0-10.0-1.15","2olm6np2cg","one_one","1","direct_first","1","st07rd20","0","21","1","1","3","1","Ich hatte Probleme mit dem Sound bei der vorletzten Aufgabe. Ich bin mir allerdings nicht sicher, ob es an meinem Laptop lag.","0","1","0","null","","","<img src = 'category2/CS5.png' width = '100%;'>","null","","","","","","","","","",""
"","html-keyboard-response","185","733605","0.0-10.0-2.15","2olm6np2cg","one_one","1","direct_first","1","st07rd20","0","21","1","1","3","1","Ich hatte Probleme mit dem Sound bei der vorletzten Aufgabe. Ich bin mir allerdings nicht sicher, ob es an meinem Laptop lag.","0","1","0","null","","","<img src = 'targets/42.png' width = '100%;'>","null","","","","","","","","","",""
"","html-keyboard-response","186","734660","0.0-10.0-3.15","2olm6np2cg","one_one","1","direct_first","1","st07rd20","0","21","1","1","3","1","Ich hatte Probleme mit dem Sound bei der vorletzten Aufgabe. Ich bin mir allerdings nicht sicher, ob es an meinem Laptop lag.","0","1","0","1052.7699999511242","","","<img src = 'targets/mask.png' width = '100%;'>","68","pos","GS","GSold","2","category2/CS5.png","","targets/42.png","indirect","0","15"
"","survey-html-form","187","737978","0.0-11.0","2olm6np2cg","one_one","1","direct_first","1","st07rd20","0","21","1","1","3","1","Ich hatte Probleme mit dem Sound bei der vorletzten Aufgabe. Ich bin mir allerdings nicht sicher, ob es an meinem Laptop lag.","0","1","0","2813.5450000409037","","{}","","","","","","","","","","","",""
"","html-keyboard-response","188","740992","0.0-12.0-0.0","2olm6np2cg","one_one","1","direct_first","1","st07rd20","0","21","1","1","3","1","Ich hatte Probleme mit dem Sound bei der vorletzten Aufgabe. Ich bin mir allerdings nicht sicher, ob es an meinem Laptop lag.","0","1","0","null","","","<div style=""font-size:60px;"">+</div>","null","","","","","","","","","",""
"","html-keyboard-response","189","741089","0.0-12.0-1.0","2olm6np2cg","one_one","1","direct_first","1","st07rd20","0","21","1","1","3","1","Ich hatte Probleme mit dem Sound bei der vorletzten Aufgabe. Ich bin mir allerdings nicht sicher, ob es an meinem Laptop lag.","0","1","0","null","","","<img src = 'category2/GS2.png' width = '100%;'>","null","","","","","","","","","",""
"","html-keyboard-response","190","741351","0.0-12.0-2.0","2olm6np2cg","one_one","1","direct_first","1","st07rd20","0","21","1","1","3","1","Ich hatte Probleme mit dem Sound bei der vorletzten Aufgabe. Ich bin mir allerdings nicht sicher, ob es an meinem Laptop lag.","0","1","0","null","","","<img src = 'targets/32.png' width = '100%;'>","null","","","","","","","","","",""
"","html-keyboard-response","191","742654","0.0-12.0-3.0","2olm6np2cg","one_one","1","direct_first","1","st07rd20","0","21","1","1","3","1","Ich hatte Probleme mit dem Sound bei der vorletzten Aufgabe. Ich bin mir allerdings nicht sicher, ob es an meinem Laptop lag.","0","1","0","1300.6049999967217","","","<img src = 'targets/mask.png' width = '100%;'>","75","pos","GS","GSnew","2","category2/GS2.png","","targets/32.png","indirect","1","16"
"","html-keyboard-response","192","744163","0.0-12.0-0.1","2olm6np2cg","one_one","1","direct_first","1","st07rd20","0","21","1","1","3","1","Ich hatte Probleme mit dem Sound bei der vorletzten Aufgabe. Ich bin mir allerdings nicht sicher, ob es an meinem Laptop lag.","0","1","0","null","","","<div style=""font-size:60px;"">+</div>","null","","","","","","","","","",""
"","html-keyboard-response","193","744259","0.0-12.0-1.1","2olm6np2cg","one_one","1","direct_first","1","st07rd20","0","21","1","1","3","1","Ich hatte Probleme mit dem Sound bei der vorletzten Aufgabe. Ich bin mir allerdings nicht sicher, ob es an meinem Laptop lag.","0","1","0","null","","","<img src = 'category2/men.png' width = '100%;'>","null","","","","","","","","","",""
"","html-keyboard-response","194","744514","0.0-12.0-2.1","2olm6np2cg","one_one","1","direct_first","1","st07rd20","0","21","1","1","3","1","Ich hatte Probleme mit dem Sound bei der vorletzten Aufgabe. Ich bin mir allerdings nicht sicher, ob es an meinem Laptop lag.","0","1","0","null","","","<img src = 'targets/46.png' width = '100%;'>","null","","","","","","","","","",""
"","html-keyboard-response","195","746796","0.0-12.0-3.1","2olm6np2cg","one_one","1","direct_first","1","st07rd20","0","21","1","1","3","1","Ich hatte Probleme mit dem Sound bei der vorletzten Aufgabe. Ich bin mir allerdings nicht sicher, ob es an meinem Laptop lag.","0","1","0","2279.225000180304","","","<img src = 'targets/mask.png' width = '100%;'>","75","pos","GS","abstract","2","category2/men.png","","targets/46.png","indirect","1","17"
"","html-keyboard-response","196","748310","0.0-12.0-0.2","2olm6np2cg","one_one","1","direct_first","1","st07rd20","0","21","1","1","3","1","Ich hatte Probleme mit dem Sound bei der vorletzten Aufgabe. Ich bin mir allerdings nicht sicher, ob es an meinem Laptop lag.","0","1","0","null","","","<div style=""font-size:60px;"">+</div>","null","","","","","","","","","",""
"","html-keyboard-response","197","748405","0.0-12.0-1.2","2olm6np2cg","one_one","1","direct_first","1","st07rd20","0","21","1","1","3","1","Ich hatte Probleme mit dem Sound bei der vorletzten Aufgabe. Ich bin mir allerdings nicht sicher, ob es an meinem Laptop lag.","0","1","0","null","","","<img src = 'category1/GS3.png' width = '100%;'>","null","","","","","","","","","",""
"","html-keyboard-response","198","748662","0.0-12.0-2.2","2olm6np2cg","one_one","1","direct_first","1","st07rd20","0","21","1","1","3","1","Ich hatte Probleme mit dem Sound bei der vorletzten Aufgabe. Ich bin mir allerdings nicht sicher, ob es an meinem Laptop lag.","0","1","0","null","","","<img src = 'targets/24.png' width = '100%;'>","null","","","","","","","","","",""
"","html-keyboard-response","199","750166","0.0-12.0-3.2","2olm6np2cg","one_one","1","direct_first","1","st07rd20","0","21","1","1","3","1","Ich hatte Probleme mit dem Sound bei der vorletzten Aufgabe. Ich bin mir allerdings nicht sicher, ob es an meinem Laptop lag.","0","1","0","1501.2900000438094","","","<img src = 'targets/mask.png' width = '100%;'>","68","neg","GS","GSnew","1","category1/GS3.png","","targets/24.png","indirect","0","18"
"","html-keyboard-response","200","751685","0.0-12.0-0.3","2olm6np2cg","one_one","1","direct_first","1","st07rd20","0","21","1","1","3","1","Ich hatte Probleme mit dem Sound bei der vorletzten Aufgabe. Ich bin mir allerdings nicht sicher, ob es an meinem Laptop lag.","0","1","0","null","","","<div style=""font-size:60px;"">+</div>","null","","","","","","","","","",""
"","html-keyboard-response","201","751781","0.0-12.0-1.3","2olm6np2cg","one_one","1","direct_first","1","st07rd20","0","21","1","1","3","1","Ich hatte Probleme mit dem Sound bei der vorletzten Aufgabe. Ich bin mir allerdings nicht sicher, ob es an meinem Laptop lag.","0","1","0","null","","","<img src = 'category4/lin.png' width = '100%;'>","null","","","","","","","","","",""
"","html-keyboard-response","202","752037","0.0-12.0-2.3","2olm6np2cg","one_one","1","direct_first","1","st07rd20","0","21","1","1","3","1","Ich hatte Probleme mit dem Sound bei der vorletzten Aufgabe. Ich bin mir allerdings nicht sicher, ob es an meinem Laptop lag.","0","1","0","null","","","<img src = 'targets/45.png' width = '100%;'>","null","","","","","","","","","",""
"","html-keyboard-response","203","753508","0.0-12.0-3.3","2olm6np2cg","one_one","1","direct_first","1","st07rd20","0","21","1","1","3","1","Ich hatte Probleme mit dem Sound bei der vorletzten Aufgabe. Ich bin mir allerdings nicht sicher, ob es an meinem Laptop lag.","0","1","0","1468.8300001434982","","","<img src = 'targets/mask.png' width = '100%;'>","68","pos","GS","abstract","4","category4/lin.png","","targets/45.png","indirect","0","19"
"","html-keyboard-response","204","755020","0.0-12.0-0.4","2olm6np2cg","one_one","1","direct_first","1","st07rd20","0","21","1","1","3","1","Ich hatte Probleme mit dem Sound bei der vorletzten Aufgabe. Ich bin mir allerdings nicht sicher, ob es an meinem Laptop lag.","0","1","0","null","","","<div style=""font-size:60px;"">+</div>","null","","","","","","","","","",""
"","html-keyboard-response","205","755117","0.0-12.0-1.4","2olm6np2cg","one_one","1","direct_first","1","st07rd20","0","21","1","1","3","1","Ich hatte Probleme mit dem Sound bei der vorletzten Aufgabe. Ich bin mir allerdings nicht sicher, ob es an meinem Laptop lag.","0","1","0","null","","","<img src = 'category2/GS1.png' width = '100%;'>","null","","","","","","","","","",""
"","html-keyboard-response","206","755380","0.0-12.0-2.4","2olm6np2cg","one_one","1","direct_first","1","st07rd20","0","21","1","1","3","1","Ich hatte Probleme mit dem Sound bei der vorletzten Aufgabe. Ich bin mir allerdings nicht sicher, ob es an meinem Laptop lag.","0","1","0","null","","","<img src = 'targets/19.png' width = '100%;'>","null","","","","","","","","","",""
"","html-keyboard-response","207","756320","0.0-12.0-3.4","2olm6np2cg","one_one","1","direct_first","1","st07rd20","0","21","1","1","3","1","Ich hatte Probleme mit dem Sound bei der vorletzten Aufgabe. Ich bin mir allerdings nicht sicher, ob es an meinem Laptop lag.","0","1","0","937.4100000131875","","","<img src = 'targets/mask.png' width = '100%;'>","68","pos","GS","GSnew","2","category2/GS1.png","","targets/19.png","indirect","0","20"
"","html-keyboard-response","208","757828","0.0-12.0-0.5","2olm6np2cg","one_one","1","direct_first","1","st07rd20","0","21","1","1","3","1","Ich hatte Probleme mit dem Sound bei der vorletzten Aufgabe. Ich bin mir allerdings nicht sicher, ob es an meinem Laptop lag.","0","1","0","null","","","<div style=""font-size:60px;"">+</div>","null","","","","","","","","","",""
"","html-keyboard-response","209","757924","0.0-12.0-1.5","2olm6np2cg","one_one","1","direct_first","1","st07rd20","0","21","1","1","3","1","Ich hatte Probleme mit dem Sound bei der vorletzten Aufgabe. Ich bin mir allerdings nicht sicher, ob es an meinem Laptop lag.","0","1","0","null","","","<img src = 'category1/GS2.png' width = '100%;'>","null","","","","","","","","","",""
"","html-keyboard-response","210","758184","0.0-12.0-2.5","2olm6np2cg","one_one","1","direct_first","1","st07rd20","0","21","1","1","3","1","Ich hatte Probleme mit dem Sound bei der vorletzten Aufgabe. Ich bin mir allerdings nicht sicher, ob es an meinem Laptop lag.","0","1","0","null","","","<img src = 'targets/6.png' width = '100%;'>","null","","","","","","","","","",""
"","html-keyboard-response","211","758816","0.0-12.0-3.5","2olm6np2cg","one_one","1","direct_first","1","st07rd20","0","21","1","1","3","1","Ich hatte Probleme mit dem Sound bei der vorletzten Aufgabe. Ich bin mir allerdings nicht sicher, ob es an meinem Laptop lag.","0","1","0","629.9000000581145","","","<img src = 'targets/mask.png' width = '100%;'>","75","neg","GS","GSnew","1","category1/GS2.png","","targets/6.png","indirect","1","21"
"","html-keyboard-response","212","760323","0.0-12.0-0.6","2olm6np2cg","one_one","1","direct_first","1","st07rd20","0","21","1","1","3","1","Ich hatte Probleme mit dem Sound bei der vorletzten Aufgabe. Ich bin mir allerdings nicht sicher, ob es an meinem Laptop lag.","0","1","0","null","","","<div style=""font-size:60px;"">+</div>","null","","","","","","","","","",""
"","html-keyboard-response","213","760424","0.0-12.0-1.6","2olm6np2cg","one_one","1","direct_first","1","st07rd20","0","21","1","1","3","1","Ich hatte Probleme mit dem Sound bei der vorletzten Aufgabe. Ich bin mir allerdings nicht sicher, ob es an meinem Laptop lag.","0","1","0","null","","","<img src = 'category3/GS3.png' width = '100%;'>","null","","","","","","","","","",""
"","html-keyboard-response","214","760681","0.0-12.0-2.6","2olm6np2cg","one_one","1","direct_first","1","st07rd20","0","21","1","1","3","1","Ich hatte Probleme mit dem Sound bei der vorletzten Aufgabe. Ich bin mir allerdings nicht sicher, ob es an meinem Laptop lag.","0","1","0","null","","","<img src = 'targets/15.png' width = '100%;'>","null","","","","","","","","","",""
"","html-keyboard-response","215","761817","0.0-12.0-3.6","2olm6np2cg","one_one","1","direct_first","1","st07rd20","0","21","1","1","3","1","Ich hatte Probleme mit dem Sound bei der vorletzten Aufgabe. Ich bin mir allerdings nicht sicher, ob es an meinem Laptop lag.","0","1","0","1132.7349999919534","","","<img src = 'targets/mask.png' width = '100%;'>","68","neg","GS","GSnew","3","category3/GS3.png","","targets/15.png","indirect","0","22"
"","html-keyboard-response","216","763328","0.0-12.0-0.7","2olm6np2cg","one_one","1","direct_first","1","st07rd20","0","21","1","1","3","1","Ich hatte Probleme mit dem Sound bei der vorletzten Aufgabe. Ich bin mir allerdings nicht sicher, ob es an meinem Laptop lag.","0","1","0","null","","","<div style=""font-size:60px;"">+</div>","null","","","","","","","","","",""
"","html-keyboard-response","217","763420","0.0-12.0-1.7","2olm6np2cg","one_one","1","direct_first","1","st07rd20","0","21","1","1","3","1","Ich hatte Probleme mit dem Sound bei der vorletzten Aufgabe. Ich bin mir allerdings nicht sicher, ob es an meinem Laptop lag.","0","1","0","null","","","<img src = 'category4/GS1.png' width = '100%;'>","null","","","","","","","","","",""
"","html-keyboard-response","218","763682","0.0-12.0-2.7","2olm6np2cg","one_one","1","direct_first","1","st07rd20","0","21","1","1","3","1","Ich hatte Probleme mit dem Sound bei der vorletzten Aufgabe. Ich bin mir allerdings nicht sicher, ob es an meinem Laptop lag.","0","1","0","null","","","<img src = 'targets/9.png' width = '100%;'>","null","","","","","","","","","",""
"","html-keyboard-response","219","764653","0.0-12.0-3.7","2olm6np2cg","one_one","1","direct_first","1","st07rd20","0","21","1","1","3","1","Ich hatte Probleme mit dem Sound bei der vorletzten Aufgabe. Ich bin mir allerdings nicht sicher, ob es an meinem Laptop lag.","0","1","0","969.380000140518","","","<img src = 'targets/mask.png' width = '100%;'>","75","pos","GS","GSnew","4","category4/GS1.png","","targets/9.png","indirect","1","23"
"","html-keyboard-response","220","766162","0.0-12.0-0.8","2olm6np2cg","one_one","1","direct_first","1","st07rd20","0","21","1","1","3","1","Ich hatte Probleme mit dem Sound bei der vorletzten Aufgabe. Ich bin mir allerdings nicht sicher, ob es an meinem Laptop lag.","0","1","0","null","","","<div style=""font-size:60px;"">+</div>","null","","","","","","","","","",""
"","html-keyboard-response","221","766260","0.0-12.0-1.8","2olm6np2cg","one_one","1","direct_first","1","st07rd20","0","21","1","1","3","1","Ich hatte Probleme mit dem Sound bei der vorletzten Aufgabe. Ich bin mir allerdings nicht sicher, ob es an meinem Laptop lag.","0","1","0","null","","","<img src = 'category2/GS3.png' width = '100%;'>","null","","","","","","","","","",""
"","html-keyboard-response","222","766521","0.0-12.0-2.8","2olm6np2cg","one_one","1","direct_first","1","st07rd20","0","21","1","1","3","1","Ich hatte Probleme mit dem Sound bei der vorletzten Aufgabe. Ich bin mir allerdings nicht sicher, ob es an meinem Laptop lag.","0","1","0","null","","","<img src = 'targets/48.png' width = '100%;'>","null","","","","","","","","","",""
"","html-keyboard-response","223","767132","0.0-12.0-3.8","2olm6np2cg","one_one","1","direct_first","1","st07rd20","0","21","1","1","3","1","Ich hatte Probleme mit dem Sound bei der vorletzten Aufgabe. Ich bin mir allerdings nicht sicher, ob es an meinem Laptop lag.","0","1","0","609.4150000717491","","","<img src = 'targets/mask.png' width = '100%;'>","75","pos","GS","GSnew","2","category2/GS3.png","","targets/48.png","indirect","1","24"
