"success","trial_type","trial_index","time_elapsed","internal_node_id","subject","condition","condition_code","measure","measure_code","codeword","gender","age","education","chinese","fach","handedness","rt","url","responses","stimulus","key_press","val","type","type_specific","category","cs_selected","target","indirect","task","nr_pres","response"
"true","fullscreen","0","2706","0.0-0.0","t534n560cd","many_one","0","indirect_first","0","el04ry07","0","21","1","1","1","1","","","","","","","","","","","","","","",""
"","external-html","1","14834","0.0-1.0","t534n560cd","many_one","0","indirect_first","0","el04ry07","0","21","1","1","1","1","12120","text/information.html","","","","","","","","","","","","",""
"","external-html","2","25298","0.0-2.0","t534n560cd","many_one","0","indirect_first","0","el04ry07","0","21","1","1","1","1","10458","text/consent.html","","","","","","","","","","","","",""
"","survey-html-form","3","82745","0.0-3.0","t534n560cd","many_one","0","indirect_first","0","el04ry07","0","21","1","1","1","1","57445","","{""codeword_enter"":""el04ry07""}","","","","","","","","","","","",""
"","survey-html-form","4","104475","0.0-4.0","t534n560cd","many_one","0","indirect_first","0","el04ry07","0","21","1","1","1","1","21729","","{""age"":""21"",""education"":""1"",""subject"":""1"",""gender"":""0"",""handedness"":""1"",""chinese"":""1""}","","","","","","","","","","","",""
"","survey-html-form","5","124025","0.0-5.0","t534n560cd","many_one","0","indirect_first","0","el04ry07","0","21","1","1","1","1","19550","","{}","","","","","","","","","","","",""
"","html-keyboard-response","6","128053","0.0-6.0-0.0-0.0","t534n560cd","many_one","0","indirect_first","0","el04ry07","0","21","1","1","1","1","null","","","<div class = 'row'><div class = 'column'><img src = 'category1/CS5.png' width = '70%;'></div><div class = 'column'><img src = 'uspos/8490.bmp' width = '100%;'></div></div>","null","pos","CS","CS","1","category1/CS5.png","","","","",""
"","html-keyboard-response","7","130593","0.0-6.0-0.0-0.1","t534n560cd","many_one","0","indirect_first","0","el04ry07","0","21","1","1","1","1","null","","","<div class = 'row'><div class = 'column'><img src = 'usneg/1280.bmp' width = '100%;'></div><div class = 'column'><img src = 'category4/CS8.png' width = '70%;'></div></div>","null","neg","CS","CS","4","category4/CS8.png","","","","",""
"","html-keyboard-response","8","133133","0.0-6.0-0.0-0.2","t534n560cd","many_one","0","indirect_first","0","el04ry07","0","21","1","1","1","1","null","","","<div class = 'row'><div class = 'column'><img src = 'usneg/9920.bmp' width = '100%;'></div><div class = 'column'><img src = 'category4/CS4.png' width = '70%;'></div></div>","null","neg","CS","CS","4","category4/CS4.png","","","","",""
"","html-keyboard-response","9","135672","0.0-6.0-0.0-0.3","t534n560cd","many_one","0","indirect_first","0","el04ry07","0","21","1","1","1","1","null","","","<div class = 'row'><div class = 'column'><img src = 'category4/CS2.png' width = '70%;'></div><div class = 'column'><img src = 'usneg/9330.bmp' width = '100%;'></div></div>","null","neg","CS","CS","4","category4/CS2.png","","","","",""
"","html-keyboard-response","10","138194","0.0-6.0-0.0-0.4","t534n560cd","many_one","0","indirect_first","0","el04ry07","0","21","1","1","1","1","null","","","<div class = 'row'><div class = 'column'><img src = 'category3/CS10.png' width = '70%;'></div><div class = 'column'><img src = 'uspos/5760.bmp' width = '100%;'></div></div>","null","pos","CS","CS","3","category3/CS10.png","","","","",""
"","html-keyboard-response","11","140702","0.0-6.0-0.0-0.5","t534n560cd","many_one","0","indirect_first","0","el04ry07","0","21","1","1","1","1","null","","","<div class = 'row'><div class = 'column'><img src = 'category4/CS10.png' width = '70%;'></div><div class = 'column'><img src = 'usneg/9180.bmp' width = '100%;'></div></div>","null","neg","CS","CS","4","category4/CS10.png","","","","",""
"","html-keyboard-response","12","143241","0.0-6.0-0.0-0.6","t534n560cd","many_one","0","indirect_first","0","el04ry07","0","21","1","1","1","1","null","","","<div class = 'row'><div class = 'column'><img src = 'usneg/9560.bmp' width = '100%;'></div><div class = 'column'><img src = 'category2/CS5.png' width = '70%;'></div></div>","null","neg","CS","CS","2","category2/CS5.png","","","","",""
"","html-keyboard-response","13","145762","0.0-6.0-0.0-0.7","t534n560cd","many_one","0","indirect_first","0","el04ry07","0","21","1","1","1","1","null","","","<div class = 'row'><div class = 'column'><img src = 'usneg/9830.bmp' width = '100%;'></div><div class = 'column'><img src = 'category4/CS6.png' width = '70%;'></div></div>","null","neg","CS","CS","4","category4/CS6.png","","","","",""
"","html-keyboard-response","14","148302","0.0-6.0-0.0-0.8","t534n560cd","many_one","0","indirect_first","0","el04ry07","0","21","1","1","1","1","null","","","<div class = 'row'><div class = 'column'><img src = 'uspos/2058.bmp' width = '100%;'></div><div class = 'column'><img src = 'category3/CS5.png' width = '70%;'></div></div>","null","pos","CS","CS","3","category3/CS5.png","","","","",""
"","html-keyboard-response","15","150841","0.0-6.0-0.0-0.9","t534n560cd","many_one","0","indirect_first","0","el04ry07","0","21","1","1","1","1","null","","","<div class = 'row'><div class = 'column'><img src = 'category2/CS4.png' width = '70%;'></div><div class = 'column'><img src = 'usneg/9000.bmp' width = '100%;'></div></div>","null","neg","CS","CS","2","category2/CS4.png","","","","",""
"","html-keyboard-response","16","153381","0.0-6.0-0.0-0.10","t534n560cd","many_one","0","indirect_first","0","el04ry07","0","21","1","1","1","1","null","","","<div class = 'row'><div class = 'column'><img src = 'category1/CS8.png' width = '70%;'></div><div class = 'column'><img src = 'uspos/7580.bmp' width = '100%;'></div></div>","null","pos","CS","CS","1","category1/CS8.png","","","","",""
"","html-keyboard-response","17","155921","0.0-6.0-0.0-0.11","t534n560cd","many_one","0","indirect_first","0","el04ry07","0","21","1","1","1","1","null","","","<div class = 'row'><div class = 'column'><img src = 'uspos/2160.bmp' width = '100%;'></div><div class = 'column'><img src = 'category3/CS2.png' width = '70%;'></div></div>","null","pos","CS","CS","3","category3/CS2.png","","","","",""
"","html-keyboard-response","18","158461","0.0-6.0-0.0-0.12","t534n560cd","many_one","0","indirect_first","0","el04ry07","0","21","1","1","1","1","null","","","<div class = 'row'><div class = 'column'><img src = 'category2/CS2.png' width = '70%;'></div><div class = 'column'><img src = 'usneg/9435.bmp' width = '100%;'></div></div>","null","neg","CS","CS","2","category2/CS2.png","","","","",""
"","html-keyboard-response","19","160991","0.0-6.0-0.0-0.13","t534n560cd","many_one","0","indirect_first","0","el04ry07","0","21","1","1","1","1","null","","","<div class = 'row'><div class = 'column'><img src = 'uspos/8190.bmp' width = '100%;'></div><div class = 'column'><img src = 'category1/CS1.png' width = '70%;'></div></div>","null","pos","CS","CS","1","category1/CS1.png","","","","",""
"","html-keyboard-response","20","163531","0.0-6.0-0.0-0.14","t534n560cd","many_one","0","indirect_first","0","el04ry07","0","21","1","1","1","1","null","","","<div class = 'row'><div class = 'column'><img src = 'category2/CS9.png' width = '70%;'></div><div class = 'column'><img src = 'usneg/9050.bmp' width = '100%;'></div></div>","null","neg","CS","CS","2","category2/CS9.png","","","","",""
"","html-keyboard-response","21","166071","0.0-6.0-0.0-0.15","t534n560cd","many_one","0","indirect_first","0","el04ry07","0","21","1","1","1","1","null","","","<div class = 'row'><div class = 'column'><img src = 'category3/CS1.png' width = '70%;'></div><div class = 'column'><img src = 'uspos/5600.bmp' width = '100%;'></div></div>","null","pos","CS","CS","3","category3/CS1.png","","","","",""
"","html-keyboard-response","22","168611","0.0-6.0-0.0-0.16","t534n560cd","many_one","0","indirect_first","0","el04ry07","0","21","1","1","1","1","null","","","<div class = 'row'><div class = 'column'><img src = 'category1/CS9.png' width = '70%;'></div><div class = 'column'><img src = 'uspos/8350.bmp' width = '100%;'></div></div>","null","pos","CS","CS","1","category1/CS9.png","","","","",""
"","html-keyboard-response","23","171151","0.0-6.0-0.0-0.17","t534n560cd","many_one","0","indirect_first","0","el04ry07","0","21","1","1","1","1","null","","","<div class = 'row'><div class = 'column'><img src = 'category1/CS4.png' width = '70%;'></div><div class = 'column'><img src = 'uspos/2057.bmp' width = '100%;'></div></div>","null","pos","CS","CS","1","category1/CS4.png","","","","",""
"","html-keyboard-response","24","173691","0.0-6.0-0.0-0.18","t534n560cd","many_one","0","indirect_first","0","el04ry07","0","21","1","1","1","1","null","","","<div class = 'row'><div class = 'column'><img src = 'category2/CS8.png' width = '70%;'></div><div class = 'column'><img src = 'usneg/6212.bmp' width = '100%;'></div></div>","null","neg","CS","CS","2","category2/CS8.png","","","","",""
"","html-keyboard-response","25","176232","0.0-6.0-0.0-0.19","t534n560cd","many_one","0","indirect_first","0","el04ry07","0","21","1","1","1","1","null","","","<div class = 'row'><div class = 'column'><img src = 'category3/CS7.png' width = '70%;'></div><div class = 'column'><img src = 'uspos/8461.bmp' width = '100%;'></div></div>","null","pos","CS","CS","3","category3/CS7.png","","","","",""
"","survey-html-form","26","180737","0.0-6.0-1.0","t534n560cd","many_one","0","indirect_first","0","el04ry07","0","21","1","1","1","1","3986","","{}","","","","","","","","","","","",""
"","html-keyboard-response","27","184770","0.0-6.0-2.0-0.0","t534n560cd","many_one","0","indirect_first","0","el04ry07","0","21","1","1","1","1","null","","","<div class = 'row'><div class = 'column'><img src = 'uspos/7580.bmp' width = '100%;'></div><div class = 'column'><img src = 'category1/CS8.png' width = '70%;'></div></div>","null","pos","CS","CS","1","category1/CS8.png","","","","",""
"","html-keyboard-response","28","187310","0.0-6.0-2.0-0.1","t534n560cd","many_one","0","indirect_first","0","el04ry07","0","21","1","1","1","1","null","","","<div class = 'row'><div class = 'column'><img src = 'usneg/1280.bmp' width = '100%;'></div><div class = 'column'><img src = 'category4/CS8.png' width = '70%;'></div></div>","null","neg","CS","CS","4","category4/CS8.png","","","","",""
"","html-keyboard-response","29","189850","0.0-6.0-2.0-0.2","t534n560cd","many_one","0","indirect_first","0","el04ry07","0","21","1","1","1","1","null","","","<div class = 'row'><div class = 'column'><img src = 'uspos/2160.bmp' width = '100%;'></div><div class = 'column'><img src = 'category3/CS2.png' width = '70%;'></div></div>","null","pos","CS","CS","3","category3/CS2.png","","","","",""
"","html-keyboard-response","30","192391","0.0-6.0-2.0-0.3","t534n560cd","many_one","0","indirect_first","0","el04ry07","0","21","1","1","1","1","null","","","<div class = 'row'><div class = 'column'><img src = 'uspos/8350.bmp' width = '100%;'></div><div class = 'column'><img src = 'category1/CS9.png' width = '70%;'></div></div>","null","pos","CS","CS","1","category1/CS9.png","","","","",""
"","html-keyboard-response","31","194930","0.0-6.0-2.0-0.4","t534n560cd","many_one","0","indirect_first","0","el04ry07","0","21","1","1","1","1","null","","","<div class = 'row'><div class = 'column'><img src = 'usneg/9050.bmp' width = '100%;'></div><div class = 'column'><img src = 'category2/CS9.png' width = '70%;'></div></div>","null","neg","CS","CS","2","category2/CS9.png","","","","",""
"","html-keyboard-response","32","197469","0.0-6.0-2.0-0.5","t534n560cd","many_one","0","indirect_first","0","el04ry07","0","21","1","1","1","1","null","","","<div class = 'row'><div class = 'column'><img src = 'uspos/8490.bmp' width = '100%;'></div><div class = 'column'><img src = 'category1/CS5.png' width = '70%;'></div></div>","null","pos","CS","CS","1","category1/CS5.png","","","","",""
"","html-keyboard-response","33","199971","0.0-6.0-2.0-0.6","t534n560cd","many_one","0","indirect_first","0","el04ry07","0","21","1","1","1","1","null","","","<div class = 'row'><div class = 'column'><img src = 'category3/CS1.png' width = '70%;'></div><div class = 'column'><img src = 'uspos/5600.bmp' width = '100%;'></div></div>","null","pos","CS","CS","3","category3/CS1.png","","","","",""
"","html-keyboard-response","34","202490","0.0-6.0-2.0-0.7","t534n560cd","many_one","0","indirect_first","0","el04ry07","0","21","1","1","1","1","null","","","<div class = 'row'><div class = 'column'><img src = 'usneg/9920.bmp' width = '100%;'></div><div class = 'column'><img src = 'category4/CS4.png' width = '70%;'></div></div>","null","neg","CS","CS","4","category4/CS4.png","","","","",""
"","html-keyboard-response","35","205030","0.0-6.0-2.0-0.8","t534n560cd","many_one","0","indirect_first","0","el04ry07","0","21","1","1","1","1","null","","","<div class = 'row'><div class = 'column'><img src = 'uspos/8190.bmp' width = '100%;'></div><div class = 'column'><img src = 'category1/CS1.png' width = '70%;'></div></div>","null","pos","CS","CS","1","category1/CS1.png","","","","",""
"","html-keyboard-response","36","207570","0.0-6.0-2.0-0.9","t534n560cd","many_one","0","indirect_first","0","el04ry07","0","21","1","1","1","1","null","","","<div class = 'row'><div class = 'column'><img src = 'category1/CS4.png' width = '70%;'></div><div class = 'column'><img src = 'uspos/2057.bmp' width = '100%;'></div></div>","null","pos","CS","CS","1","category1/CS4.png","","","","",""
"","html-keyboard-response","37","210110","0.0-6.0-2.0-0.10","t534n560cd","many_one","0","indirect_first","0","el04ry07","0","21","1","1","1","1","null","","","<div class = 'row'><div class = 'column'><img src = 'usneg/6212.bmp' width = '100%;'></div><div class = 'column'><img src = 'category2/CS8.png' width = '70%;'></div></div>","null","neg","CS","CS","2","category2/CS8.png","","","","",""
"","html-keyboard-response","38","212650","0.0-6.0-2.0-0.11","t534n560cd","many_one","0","indirect_first","0","el04ry07","0","21","1","1","1","1","null","","","<div class = 'row'><div class = 'column'><img src = 'category2/CS2.png' width = '70%;'></div><div class = 'column'><img src = 'usneg/9435.bmp' width = '100%;'></div></div>","null","neg","CS","CS","2","category2/CS2.png","","","","",""
"","html-keyboard-response","39","215170","0.0-6.0-2.0-0.12","t534n560cd","many_one","0","indirect_first","0","el04ry07","0","21","1","1","1","1","null","","","<div class = 'row'><div class = 'column'><img src = 'category3/CS10.png' width = '70%;'></div><div class = 'column'><img src = 'uspos/5760.bmp' width = '100%;'></div></div>","null","pos","CS","CS","3","category3/CS10.png","","","","",""
"","html-keyboard-response","40","217710","0.0-6.0-2.0-0.13","t534n560cd","many_one","0","indirect_first","0","el04ry07","0","21","1","1","1","1","null","","","<div class = 'row'><div class = 'column'><img src = 'uspos/2058.bmp' width = '100%;'></div><div class = 'column'><img src = 'category3/CS5.png' width = '70%;'></div></div>","null","pos","CS","CS","3","category3/CS5.png","","","","",""
"","html-keyboard-response","41","220250","0.0-6.0-2.0-0.14","t534n560cd","many_one","0","indirect_first","0","el04ry07","0","21","1","1","1","1","null","","","<div class = 'row'><div class = 'column'><img src = 'usneg/9560.bmp' width = '100%;'></div><div class = 'column'><img src = 'category2/CS5.png' width = '70%;'></div></div>","null","neg","CS","CS","2","category2/CS5.png","","","","",""
"","html-keyboard-response","42","222789","0.0-6.0-2.0-0.15","t534n560cd","many_one","0","indirect_first","0","el04ry07","0","21","1","1","1","1","null","","","<div class = 'row'><div class = 'column'><img src = 'category4/CS10.png' width = '70%;'></div><div class = 'column'><img src = 'usneg/9180.bmp' width = '100%;'></div></div>","null","neg","CS","CS","4","category4/CS10.png","","","","",""
"","html-keyboard-response","43","225329","0.0-6.0-2.0-0.16","t534n560cd","many_one","0","indirect_first","0","el04ry07","0","21","1","1","1","1","null","","","<div class = 'row'><div class = 'column'><img src = 'usneg/9000.bmp' width = '100%;'></div><div class = 'column'><img src = 'category2/CS4.png' width = '70%;'></div></div>","null","neg","CS","CS","2","category2/CS4.png","","","","",""
"","html-keyboard-response","44","227839","0.0-6.0-2.0-0.17","t534n560cd","many_one","0","indirect_first","0","el04ry07","0","21","1","1","1","1","null","","","<div class = 'row'><div class = 'column'><img src = 'usneg/9330.bmp' width = '100%;'></div><div class = 'column'><img src = 'category4/CS2.png' width = '70%;'></div></div>","null","neg","CS","CS","4","category4/CS2.png","","","","",""
"","html-keyboard-response","45","230374","0.0-6.0-2.0-0.18","t534n560cd","many_one","0","indirect_first","0","el04ry07","0","21","1","1","1","1","null","","","<div class = 'row'><div class = 'column'><img src = 'category3/CS7.png' width = '70%;'></div><div class = 'column'><img src = 'uspos/8461.bmp' width = '100%;'></div></div>","null","pos","CS","CS","3","category3/CS7.png","","","","",""
"","html-keyboard-response","46","232879","0.0-6.0-2.0-0.19","t534n560cd","many_one","0","indirect_first","0","el04ry07","0","21","1","1","1","1","null","","","<div class = 'row'><div class = 'column'><img src = 'category4/CS6.png' width = '70%;'></div><div class = 'column'><img src = 'usneg/9830.bmp' width = '100%;'></div></div>","null","neg","CS","CS","4","category4/CS6.png","","","","",""
"","survey-html-form","47","239119","0.0-6.0-3.0","t534n560cd","many_one","0","indirect_first","0","el04ry07","0","21","1","1","1","1","5720","","{}","","","","","","","","","","","",""
"","html-keyboard-response","48","243134","0.0-6.0-4.0-0.0","t534n560cd","many_one","0","indirect_first","0","el04ry07","0","21","1","1","1","1","null","","","<div class = 'row'><div class = 'column'><img src = 'usneg/9330.bmp' width = '100%;'></div><div class = 'column'><img src = 'category4/CS2.png' width = '70%;'></div></div>","null","neg","CS","CS","4","category4/CS2.png","","","","",""
"","html-keyboard-response","49","245659","0.0-6.0-4.0-0.1","t534n560cd","many_one","0","indirect_first","0","el04ry07","0","21","1","1","1","1","null","","","<div class = 'row'><div class = 'column'><img src = 'uspos/8350.bmp' width = '100%;'></div><div class = 'column'><img src = 'category1/CS9.png' width = '70%;'></div></div>","null","pos","CS","CS","1","category1/CS9.png","","","","",""
"","html-keyboard-response","50","248189","0.0-6.0-4.0-0.2","t534n560cd","many_one","0","indirect_first","0","el04ry07","0","21","1","1","1","1","null","","","<div class = 'row'><div class = 'column'><img src = 'category1/CS4.png' width = '70%;'></div><div class = 'column'><img src = 'uspos/2057.bmp' width = '100%;'></div></div>","null","pos","CS","CS","1","category1/CS4.png","","","","",""
"","html-keyboard-response","51","250729","0.0-6.0-4.0-0.3","t534n560cd","many_one","0","indirect_first","0","el04ry07","0","21","1","1","1","1","null","","","<div class = 'row'><div class = 'column'><img src = 'usneg/9435.bmp' width = '100%;'></div><div class = 'column'><img src = 'category2/CS2.png' width = '70%;'></div></div>","null","neg","CS","CS","2","category2/CS2.png","","","","",""
"","html-keyboard-response","52","253269","0.0-6.0-4.0-0.4","t534n560cd","many_one","0","indirect_first","0","el04ry07","0","21","1","1","1","1","null","","","<div class = 'row'><div class = 'column'><img src = 'uspos/5600.bmp' width = '100%;'></div><div class = 'column'><img src = 'category3/CS1.png' width = '70%;'></div></div>","null","pos","CS","CS","3","category3/CS1.png","","","","",""
"","html-keyboard-response","53","255809","0.0-6.0-4.0-0.5","t534n560cd","many_one","0","indirect_first","0","el04ry07","0","21","1","1","1","1","null","","","<div class = 'row'><div class = 'column'><img src = 'uspos/8190.bmp' width = '100%;'></div><div class = 'column'><img src = 'category1/CS1.png' width = '70%;'></div></div>","null","pos","CS","CS","1","category1/CS1.png","","","","",""
"","html-keyboard-response","54","258349","0.0-6.0-4.0-0.6","t534n560cd","many_one","0","indirect_first","0","el04ry07","0","21","1","1","1","1","null","","","<div class = 'row'><div class = 'column'><img src = 'category2/CS9.png' width = '70%;'></div><div class = 'column'><img src = 'usneg/9050.bmp' width = '100%;'></div></div>","null","neg","CS","CS","2","category2/CS9.png","","","","",""
"","html-keyboard-response","55","260871","0.0-6.0-4.0-0.7","t534n560cd","many_one","0","indirect_first","0","el04ry07","0","21","1","1","1","1","null","","","<div class = 'row'><div class = 'column'><img src = 'category4/CS10.png' width = '70%;'></div><div class = 'column'><img src = 'usneg/9180.bmp' width = '100%;'></div></div>","null","neg","CS","CS","4","category4/CS10.png","","","","",""
"","html-keyboard-response","56","263379","0.0-6.0-4.0-0.8","t534n560cd","many_one","0","indirect_first","0","el04ry07","0","21","1","1","1","1","null","","","<div class = 'row'><div class = 'column'><img src = 'usneg/9920.bmp' width = '100%;'></div><div class = 'column'><img src = 'category4/CS4.png' width = '70%;'></div></div>","null","neg","CS","CS","4","category4/CS4.png","","","","",""
"","html-keyboard-response","57","265918","0.0-6.0-4.0-0.9","t534n560cd","many_one","0","indirect_first","0","el04ry07","0","21","1","1","1","1","null","","","<div class = 'row'><div class = 'column'><img src = 'category2/CS4.png' width = '70%;'></div><div class = 'column'><img src = 'usneg/9000.bmp' width = '100%;'></div></div>","null","neg","CS","CS","2","category2/CS4.png","","","","",""
"","html-keyboard-response","58","268459","0.0-6.0-4.0-0.10","t534n560cd","many_one","0","indirect_first","0","el04ry07","0","21","1","1","1","1","null","","","<div class = 'row'><div class = 'column'><img src = 'category2/CS8.png' width = '70%;'></div><div class = 'column'><img src = 'usneg/6212.bmp' width = '100%;'></div></div>","null","neg","CS","CS","2","category2/CS8.png","","","","",""
"","html-keyboard-response","59","270999","0.0-6.0-4.0-0.11","t534n560cd","many_one","0","indirect_first","0","el04ry07","0","21","1","1","1","1","null","","","<div class = 'row'><div class = 'column'><img src = 'category4/CS8.png' width = '70%;'></div><div class = 'column'><img src = 'usneg/1280.bmp' width = '100%;'></div></div>","null","neg","CS","CS","4","category4/CS8.png","","","","",""
"","html-keyboard-response","60","273529","0.0-6.0-4.0-0.12","t534n560cd","many_one","0","indirect_first","0","el04ry07","0","21","1","1","1","1","null","","","<div class = 'row'><div class = 'column'><img src = 'category1/CS8.png' width = '70%;'></div><div class = 'column'><img src = 'uspos/7580.bmp' width = '100%;'></div></div>","null","pos","CS","CS","1","category1/CS8.png","","","","",""
"","html-keyboard-response","61","276069","0.0-6.0-4.0-0.13","t534n560cd","many_one","0","indirect_first","0","el04ry07","0","21","1","1","1","1","null","","","<div class = 'row'><div class = 'column'><img src = 'usneg/9560.bmp' width = '100%;'></div><div class = 'column'><img src = 'category2/CS5.png' width = '70%;'></div></div>","null","neg","CS","CS","2","category2/CS5.png","","","","",""
"","html-keyboard-response","62","278599","0.0-6.0-4.0-0.14","t534n560cd","many_one","0","indirect_first","0","el04ry07","0","21","1","1","1","1","null","","","<div class = 'row'><div class = 'column'><img src = 'uspos/5760.bmp' width = '100%;'></div><div class = 'column'><img src = 'category3/CS10.png' width = '70%;'></div></div>","null","pos","CS","CS","3","category3/CS10.png","","","","",""
"","html-keyboard-response","63","281139","0.0-6.0-4.0-0.15","t534n560cd","many_one","0","indirect_first","0","el04ry07","0","21","1","1","1","1","null","","","<div class = 'row'><div class = 'column'><img src = 'uspos/8490.bmp' width = '100%;'></div><div class = 'column'><img src = 'category1/CS5.png' width = '70%;'></div></div>","null","pos","CS","CS","1","category1/CS5.png","","","","",""
"","html-keyboard-response","64","283669","0.0-6.0-4.0-0.16","t534n560cd","many_one","0","indirect_first","0","el04ry07","0","21","1","1","1","1","null","","","<div class = 'row'><div class = 'column'><img src = 'uspos/8461.bmp' width = '100%;'></div><div class = 'column'><img src = 'category3/CS7.png' width = '70%;'></div></div>","null","pos","CS","CS","3","category3/CS7.png","","","","",""
"","html-keyboard-response","65","286209","0.0-6.0-4.0-0.17","t534n560cd","many_one","0","indirect_first","0","el04ry07","0","21","1","1","1","1","null","","","<div class = 'row'><div class = 'column'><img src = 'category3/CS5.png' width = '70%;'></div><div class = 'column'><img src = 'uspos/2058.bmp' width = '100%;'></div></div>","null","pos","CS","CS","3","category3/CS5.png","","","","",""
"","html-keyboard-response","66","288749","0.0-6.0-4.0-0.18","t534n560cd","many_one","0","indirect_first","0","el04ry07","0","21","1","1","1","1","null","","","<div class = 'row'><div class = 'column'><img src = 'category4/CS6.png' width = '70%;'></div><div class = 'column'><img src = 'usneg/9830.bmp' width = '100%;'></div></div>","null","neg","CS","CS","4","category4/CS6.png","","","","",""
"","html-keyboard-response","67","291278","0.0-6.0-4.0-0.19","t534n560cd","many_one","0","indirect_first","0","el04ry07","0","21","1","1","1","1","null","","","<div class = 'row'><div class = 'column'><img src = 'uspos/2160.bmp' width = '100%;'></div><div class = 'column'><img src = 'category3/CS2.png' width = '70%;'></div></div>","null","pos","CS","CS","3","category3/CS2.png","","","","",""
"","survey-html-form","68","296206","0.0-6.0-5.0","t534n560cd","many_one","0","indirect_first","0","el04ry07","0","21","1","1","1","1","4418","","{}","","","","","","","","","","","",""
"","html-keyboard-response","69","300228","0.0-6.0-6.0-0.0","t534n560cd","many_one","0","indirect_first","0","el04ry07","0","21","1","1","1","1","null","","","<div class = 'row'><div class = 'column'><img src = 'category3/CS5.png' width = '70%;'></div><div class = 'column'><img src = 'uspos/2058.bmp' width = '100%;'></div></div>","null","pos","CS","CS","3","category3/CS5.png","","","","",""
"","html-keyboard-response","70","302769","0.0-6.0-6.0-0.1","t534n560cd","many_one","0","indirect_first","0","el04ry07","0","21","1","1","1","1","null","","","<div class = 'row'><div class = 'column'><img src = 'category2/CS4.png' width = '70%;'></div><div class = 'column'><img src = 'usneg/9000.bmp' width = '100%;'></div></div>","null","neg","CS","CS","2","category2/CS4.png","","","","",""
"","html-keyboard-response","71","305298","0.0-6.0-6.0-0.2","t534n560cd","many_one","0","indirect_first","0","el04ry07","0","21","1","1","1","1","null","","","<div class = 'row'><div class = 'column'><img src = 'category3/CS1.png' width = '70%;'></div><div class = 'column'><img src = 'uspos/5600.bmp' width = '100%;'></div></div>","null","pos","CS","CS","3","category3/CS1.png","","","","",""
"","html-keyboard-response","72","307838","0.0-6.0-6.0-0.3","t534n560cd","many_one","0","indirect_first","0","el04ry07","0","21","1","1","1","1","null","","","<div class = 'row'><div class = 'column'><img src = 'uspos/8350.bmp' width = '100%;'></div><div class = 'column'><img src = 'category1/CS9.png' width = '70%;'></div></div>","null","pos","CS","CS","1","category1/CS9.png","","","","",""
"","html-keyboard-response","73","310379","0.0-6.0-6.0-0.4","t534n560cd","many_one","0","indirect_first","0","el04ry07","0","21","1","1","1","1","null","","","<div class = 'row'><div class = 'column'><img src = 'usneg/9050.bmp' width = '100%;'></div><div class = 'column'><img src = 'category2/CS9.png' width = '70%;'></div></div>","null","neg","CS","CS","2","category2/CS9.png","","","","",""
"","html-keyboard-response","74","312918","0.0-6.0-6.0-0.5","t534n560cd","many_one","0","indirect_first","0","el04ry07","0","21","1","1","1","1","null","","","<div class = 'row'><div class = 'column'><img src = 'uspos/8190.bmp' width = '100%;'></div><div class = 'column'><img src = 'category1/CS1.png' width = '70%;'></div></div>","null","pos","CS","CS","1","category1/CS1.png","","","","",""
"","html-keyboard-response","75","315448","0.0-6.0-6.0-0.6","t534n560cd","many_one","0","indirect_first","0","el04ry07","0","21","1","1","1","1","null","","","<div class = 'row'><div class = 'column'><img src = 'usneg/9435.bmp' width = '100%;'></div><div class = 'column'><img src = 'category2/CS2.png' width = '70%;'></div></div>","null","neg","CS","CS","2","category2/CS2.png","","","","",""
"","html-keyboard-response","76","317989","0.0-6.0-6.0-0.7","t534n560cd","many_one","0","indirect_first","0","el04ry07","0","21","1","1","1","1","null","","","<div class = 'row'><div class = 'column'><img src = 'usneg/9330.bmp' width = '100%;'></div><div class = 'column'><img src = 'category4/CS2.png' width = '70%;'></div></div>","null","neg","CS","CS","4","category4/CS2.png","","","","",""
"","html-keyboard-response","77","320529","0.0-6.0-6.0-0.8","t534n560cd","many_one","0","indirect_first","0","el04ry07","0","21","1","1","1","1","null","","","<div class = 'row'><div class = 'column'><img src = 'usneg/1280.bmp' width = '100%;'></div><div class = 'column'><img src = 'category4/CS8.png' width = '70%;'></div></div>","null","neg","CS","CS","4","category4/CS8.png","","","","",""
"","html-keyboard-response","78","323068","0.0-6.0-6.0-0.9","t534n560cd","many_one","0","indirect_first","0","el04ry07","0","21","1","1","1","1","null","","","<div class = 'row'><div class = 'column'><img src = 'usneg/6212.bmp' width = '100%;'></div><div class = 'column'><img src = 'category2/CS8.png' width = '70%;'></div></div>","null","neg","CS","CS","2","category2/CS8.png","","","","",""
"","html-keyboard-response","79","325608","0.0-6.0-6.0-0.10","t534n560cd","many_one","0","indirect_first","0","el04ry07","0","21","1","1","1","1","null","","","<div class = 'row'><div class = 'column'><img src = 'category2/CS5.png' width = '70%;'></div><div class = 'column'><img src = 'usneg/9560.bmp' width = '100%;'></div></div>","null","neg","CS","CS","2","category2/CS5.png","","","","",""
"","html-keyboard-response","80","328127","0.0-6.0-6.0-0.11","t534n560cd","many_one","0","indirect_first","0","el04ry07","0","21","1","1","1","1","null","","","<div class = 'row'><div class = 'column'><img src = 'uspos/7580.bmp' width = '100%;'></div><div class = 'column'><img src = 'category1/CS8.png' width = '70%;'></div></div>","null","pos","CS","CS","1","category1/CS8.png","","","","",""
"","html-keyboard-response","81","330668","0.0-6.0-6.0-0.12","t534n560cd","many_one","0","indirect_first","0","el04ry07","0","21","1","1","1","1","null","","","<div class = 'row'><div class = 'column'><img src = 'category3/CS7.png' width = '70%;'></div><div class = 'column'><img src = 'uspos/8461.bmp' width = '100%;'></div></div>","null","pos","CS","CS","3","category3/CS7.png","","","","",""
"","html-keyboard-response","82","333208","0.0-6.0-6.0-0.13","t534n560cd","many_one","0","indirect_first","0","el04ry07","0","21","1","1","1","1","null","","","<div class = 'row'><div class = 'column'><img src = 'category1/CS5.png' width = '70%;'></div><div class = 'column'><img src = 'uspos/8490.bmp' width = '100%;'></div></div>","null","pos","CS","CS","1","category1/CS5.png","","","","",""
"","html-keyboard-response","83","335747","0.0-6.0-6.0-0.14","t534n560cd","many_one","0","indirect_first","0","el04ry07","0","21","1","1","1","1","null","","","<div class = 'row'><div class = 'column'><img src = 'uspos/2057.bmp' width = '100%;'></div><div class = 'column'><img src = 'category1/CS4.png' width = '70%;'></div></div>","null","pos","CS","CS","1","category1/CS4.png","","","","",""
"","html-keyboard-response","84","338278","0.0-6.0-6.0-0.15","t534n560cd","many_one","0","indirect_first","0","el04ry07","0","21","1","1","1","1","null","","","<div class = 'row'><div class = 'column'><img src = 'uspos/2160.bmp' width = '100%;'></div><div class = 'column'><img src = 'category3/CS2.png' width = '70%;'></div></div>","null","pos","CS","CS","3","category3/CS2.png","","","","",""
"","html-keyboard-response","85","340818","0.0-6.0-6.0-0.16","t534n560cd","many_one","0","indirect_first","0","el04ry07","0","21","1","1","1","1","null","","","<div class = 'row'><div class = 'column'><img src = 'category3/CS10.png' width = '70%;'></div><div class = 'column'><img src = 'uspos/5760.bmp' width = '100%;'></div></div>","null","pos","CS","CS","3","category3/CS10.png","","","","",""
"","html-keyboard-response","86","343358","0.0-6.0-6.0-0.17","t534n560cd","many_one","0","indirect_first","0","el04ry07","0","21","1","1","1","1","null","","","<div class = 'row'><div class = 'column'><img src = 'category4/CS6.png' width = '70%;'></div><div class = 'column'><img src = 'usneg/9830.bmp' width = '100%;'></div></div>","null","neg","CS","CS","4","category4/CS6.png","","","","",""
"","html-keyboard-response","87","345898","0.0-6.0-6.0-0.18","t534n560cd","many_one","0","indirect_first","0","el04ry07","0","21","1","1","1","1","null","","","<div class = 'row'><div class = 'column'><img src = 'usneg/9180.bmp' width = '100%;'></div><div class = 'column'><img src = 'category4/CS10.png' width = '70%;'></div></div>","null","neg","CS","CS","4","category4/CS10.png","","","","",""
"","html-keyboard-response","88","348428","0.0-6.0-6.0-0.19","t534n560cd","many_one","0","indirect_first","0","el04ry07","0","21","1","1","1","1","null","","","<div class = 'row'><div class = 'column'><img src = 'category4/CS4.png' width = '70%;'></div><div class = 'column'><img src = 'usneg/9920.bmp' width = '100%;'></div></div>","null","neg","CS","CS","4","category4/CS4.png","","","","",""
"","html-keyboard-response","89","389607","0.0-7.0","t534n560cd","many_one","0","indirect_first","0","el04ry07","0","21","1","1","1","1","40659","","","<p>Sie sehen nun die chinesischen Zeichen nur ganz kurz. Danach sehen Sie die jeweilige Aussprache der Zeichen als Silbe auf dem Bildschrim. Ihre Aufgabe ist es, für jede Silbe anzugeben, ob diese etwas angenehmes, oder unangenehmes bedeuten könnte. Verlassen Sie sich hier vor allem auf Ihre Intuition.<br><br>Die Zeichen werden nur zur Orientierung dargestellt, beachten Sie sie deshalb nicht. Konzentrieren Sie sich vor allem auf die Silben. <br>Reagieren Sie mit folgenden zwei Tasten: <br><br><b>'D' </b> wenn die Silbe etwas <b>unangenehmes</b> bedeuten könnte. <br><b>'K'</b> wenn die Silbe etwas <b>angenehmes</b> bedeuten könnte. <br><br>Bitte legen Sie nun den Zeigefinger der linken Hand auf die Taste 'D' und den Zeigefinger der rechten Hand auf die Taste 'K'. <br>Reagieren Sie auf jede Silbe so schnell wie möglich. Uns interessiert Ihre spontane Reaktion. <br> <br> <br>Drücken Sie 'D' oder 'K', um die nächste Aufgabe zu starten. </p>","68","","","","","","","","","",""
"","html-keyboard-response","90","392648","0.0-8.0-0.0","t534n560cd","many_one","0","indirect_first","0","el04ry07","0","21","1","1","1","1","null","","","<div style=""font-size:60px;"">+</div>","null","","","","","","","","","",""
"","html-keyboard-response","91","392747","0.0-8.0-1.0","t534n560cd","many_one","0","indirect_first","0","el04ry07","0","21","1","1","1","1","null","","","<img src = 'category2/CS2.png' width = '100%;'>","null","","","","","","","","","",""
"","html-keyboard-response","92","393027","0.0-8.0-2.0","t534n560cd","many_one","0","indirect_first","0","el04ry07","0","21","1","1","1","1","null","","","<img src = 'targets/34.png' width = '100%;'>","null","","","","","","","","","",""
"","html-keyboard-response","93","399366","0.0-8.0-3.0","t534n560cd","many_one","0","indirect_first","0","el04ry07","0","21","1","1","1","1","6336","","","<img src = 'targets/mask.png' width = '100%;'>","68","neg","CS","CS","2","category2/CS2.png","targets/34.png","0","indirect","0",""
"","html-keyboard-response","94","400887","0.0-8.0-0.1","t534n560cd","many_one","0","indirect_first","0","el04ry07","0","21","1","1","1","1","null","","","<div style=""font-size:60px;"">+</div>","null","","","","","","","","","",""
"","html-keyboard-response","95","400987","0.0-8.0-1.1","t534n560cd","many_one","0","indirect_first","0","el04ry07","0","21","1","1","1","1","null","","","<img src = 'category2/CS4.png' width = '100%;'>","null","","","","","","","","","",""
"","html-keyboard-response","96","401268","0.0-8.0-2.1","t534n560cd","many_one","0","indirect_first","0","el04ry07","0","21","1","1","1","1","null","","","<img src = 'targets/47.png' width = '100%;'>","null","","","","","","","","","",""
"","html-keyboard-response","97","403661","0.0-8.0-3.1","t534n560cd","many_one","0","indirect_first","0","el04ry07","0","21","1","1","1","1","2392","","","<img src = 'targets/mask.png' width = '100%;'>","75","neg","CS","CS","2","category2/CS4.png","targets/47.png","1","indirect","1",""
"","html-keyboard-response","98","405187","0.0-8.0-0.2","t534n560cd","many_one","0","indirect_first","0","el04ry07","0","21","1","1","1","1","null","","","<div style=""font-size:60px;"">+</div>","null","","","","","","","","","",""
"","html-keyboard-response","99","405288","0.0-8.0-1.2","t534n560cd","many_one","0","indirect_first","0","el04ry07","0","21","1","1","1","1","null","","","<img src = 'category2/CS8.png' width = '100%;'>","null","","","","","","","","","",""
"","html-keyboard-response","100","405567","0.0-8.0-2.2","t534n560cd","many_one","0","indirect_first","0","el04ry07","0","21","1","1","1","1","null","","","<img src = 'targets/37.png' width = '100%;'>","null","","","","","","","","","",""
"","html-keyboard-response","101","408765","0.0-8.0-3.2","t534n560cd","many_one","0","indirect_first","0","el04ry07","0","21","1","1","1","1","3198","","","<img src = 'targets/mask.png' width = '100%;'>","68","neg","CS","CS","2","category2/CS8.png","targets/37.png","0","indirect","2",""
"","html-keyboard-response","102","410287","0.0-8.0-0.3","t534n560cd","many_one","0","indirect_first","0","el04ry07","0","21","1","1","1","1","null","","","<div style=""font-size:60px;"">+</div>","null","","","","","","","","","",""
"","html-keyboard-response","103","410387","0.0-8.0-1.3","t534n560cd","many_one","0","indirect_first","0","el04ry07","0","21","1","1","1","1","null","","","<img src = 'category4/CS2.png' width = '100%;'>","null","","","","","","","","","",""
"","html-keyboard-response","104","410667","0.0-8.0-2.3","t534n560cd","many_one","0","indirect_first","0","el04ry07","0","21","1","1","1","1","null","","","<img src = 'targets/8.png' width = '100%;'>","null","","","","","","","","","",""
"","html-keyboard-response","105","415973","0.0-8.0-3.3","t534n560cd","many_one","0","indirect_first","0","el04ry07","0","21","1","1","1","1","5304","","","<img src = 'targets/mask.png' width = '100%;'>","68","neg","CS","CS","4","category4/CS2.png","targets/8.png","0","indirect","3",""
"","html-keyboard-response","106","417507","0.0-8.0-0.4","t534n560cd","many_one","0","indirect_first","0","el04ry07","0","21","1","1","1","1","null","","","<div style=""font-size:60px;"">+</div>","null","","","","","","","","","",""
"","html-keyboard-response","107","417608","0.0-8.0-1.4","t534n560cd","many_one","0","indirect_first","0","el04ry07","0","21","1","1","1","1","null","","","<img src = 'category4/CS6.png' width = '100%;'>","null","","","","","","","","","",""
"","html-keyboard-response","108","417887","0.0-8.0-2.4","t534n560cd","many_one","0","indirect_first","0","el04ry07","0","21","1","1","1","1","null","","","<img src = 'targets/20.png' width = '100%;'>","null","","","","","","","","","",""
"","html-keyboard-response","109","420453","0.0-8.0-3.4","t534n560cd","many_one","0","indirect_first","0","el04ry07","0","21","1","1","1","1","2565","","","<img src = 'targets/mask.png' width = '100%;'>","68","neg","CS","CS","4","category4/CS6.png","targets/20.png","0","indirect","4",""
"","html-keyboard-response","110","421957","0.0-8.0-0.5","t534n560cd","many_one","0","indirect_first","0","el04ry07","0","21","1","1","1","1","null","","","<div style=""font-size:60px;"">+</div>","null","","","","","","","","","",""
"","html-keyboard-response","111","422057","0.0-8.0-1.5","t534n560cd","many_one","0","indirect_first","0","el04ry07","0","21","1","1","1","1","null","","","<img src = 'category1/CS4.png' width = '100%;'>","null","","","","","","","","","",""
"","html-keyboard-response","112","422337","0.0-8.0-2.5","t534n560cd","many_one","0","indirect_first","0","el04ry07","0","21","1","1","1","1","null","","","<img src = 'targets/19.png' width = '100%;'>","null","","","","","","","","","",""
"","html-keyboard-response","113","424685","0.0-8.0-3.5","t534n560cd","many_one","0","indirect_first","0","el04ry07","0","21","1","1","1","1","2347","","","<img src = 'targets/mask.png' width = '100%;'>","75","pos","CS","CS","1","category1/CS4.png","targets/19.png","1","indirect","5",""
"","html-keyboard-response","114","426207","0.0-8.0-0.6","t534n560cd","many_one","0","indirect_first","0","el04ry07","0","21","1","1","1","1","null","","","<div style=""font-size:60px;"">+</div>","null","","","","","","","","","",""
"","html-keyboard-response","115","426307","0.0-8.0-1.6","t534n560cd","many_one","0","indirect_first","0","el04ry07","0","21","1","1","1","1","null","","","<img src = 'category1/CS8.png' width = '100%;'>","null","","","","","","","","","",""
"","html-keyboard-response","116","426588","0.0-8.0-2.6","t534n560cd","many_one","0","indirect_first","0","el04ry07","0","21","1","1","1","1","null","","","<img src = 'targets/32.png' width = '100%;'>","null","","","","","","","","","",""
"","html-keyboard-response","117","428517","0.0-8.0-3.6","t534n560cd","many_one","0","indirect_first","0","el04ry07","0","21","1","1","1","1","1928","","","<img src = 'targets/mask.png' width = '100%;'>","75","pos","CS","CS","1","category1/CS8.png","targets/32.png","1","indirect","6",""
"","html-keyboard-response","118","430047","0.0-8.0-0.7","t534n560cd","many_one","0","indirect_first","0","el04ry07","0","21","1","1","1","1","null","","","<div style=""font-size:60px;"">+</div>","null","","","","","","","","","",""
"","html-keyboard-response","119","430147","0.0-8.0-1.7","t534n560cd","many_one","0","indirect_first","0","el04ry07","0","21","1","1","1","1","null","","","<img src = 'category2/CS5.png' width = '100%;'>","null","","","","","","","","","",""
"","html-keyboard-response","120","430427","0.0-8.0-2.7","t534n560cd","many_one","0","indirect_first","0","el04ry07","0","21","1","1","1","1","null","","","<img src = 'targets/22.png' width = '100%;'>","null","","","","","","","","","",""
"","html-keyboard-response","121","432805","0.0-8.0-3.7","t534n560cd","many_one","0","indirect_first","0","el04ry07","0","21","1","1","1","1","2377","","","<img src = 'targets/mask.png' width = '100%;'>","75","neg","CS","CS","2","category2/CS5.png","targets/22.png","1","indirect","7",""
"","html-keyboard-response","122","434327","0.0-8.0-0.8","t534n560cd","many_one","0","indirect_first","0","el04ry07","0","21","1","1","1","1","null","","","<div style=""font-size:60px;"">+</div>","null","","","","","","","","","",""
"","html-keyboard-response","123","434427","0.0-8.0-1.8","t534n560cd","many_one","0","indirect_first","0","el04ry07","0","21","1","1","1","1","null","","","<img src = 'category4/CS10.png' width = '100%;'>","null","","","","","","","","","",""
"","html-keyboard-response","124","434707","0.0-8.0-2.8","t534n560cd","many_one","0","indirect_first","0","el04ry07","0","21","1","1","1","1","null","","","<img src = 'targets/24.png' width = '100%;'>","null","","","","","","","","","",""
"","html-keyboard-response","125","436293","0.0-8.0-3.8","t534n560cd","many_one","0","indirect_first","0","el04ry07","0","21","1","1","1","1","1584","","","<img src = 'targets/mask.png' width = '100%;'>","68","neg","CS","CS","4","category4/CS10.png","targets/24.png","0","indirect","8",""
"","html-keyboard-response","126","437807","0.0-8.0-0.9","t534n560cd","many_one","0","indirect_first","0","el04ry07","0","21","1","1","1","1","null","","","<div style=""font-size:60px;"">+</div>","null","","","","","","","","","",""
"","html-keyboard-response","127","437907","0.0-8.0-1.9","t534n560cd","many_one","0","indirect_first","0","el04ry07","0","21","1","1","1","1","null","","","<img src = 'category2/CS10.png' width = '100%;'>","null","","","","","","","","","",""
"","html-keyboard-response","128","438187","0.0-8.0-2.9","t534n560cd","many_one","0","indirect_first","0","el04ry07","0","21","1","1","1","1","null","","","<img src = 'targets/12.png' width = '100%;'>","null","","","","","","","","","",""
"","html-keyboard-response","129","441597","0.0-8.0-3.9","t534n560cd","many_one","0","indirect_first","0","el04ry07","0","21","1","1","1","1","3408","","","<img src = 'targets/mask.png' width = '100%;'>","75","neg","GS","GSold","2","category2/CS10.png","targets/12.png","1","indirect","9",""
"","html-keyboard-response","130","443127","0.0-8.0-0.10","t534n560cd","many_one","0","indirect_first","0","el04ry07","0","21","1","1","1","1","null","","","<div style=""font-size:60px;"">+</div>","null","","","","","","","","","",""
"","html-keyboard-response","131","443227","0.0-8.0-1.10","t534n560cd","many_one","0","indirect_first","0","el04ry07","0","21","1","1","1","1","null","","","<img src = 'category3/CS10.png' width = '100%;'>","null","","","","","","","","","",""
"","html-keyboard-response","132","443507","0.0-8.0-2.10","t534n560cd","many_one","0","indirect_first","0","el04ry07","0","21","1","1","1","1","null","","","<img src = 'targets/13.png' width = '100%;'>","null","","","","","","","","","",""
"","html-keyboard-response","133","444557","0.0-8.0-3.10","t534n560cd","many_one","0","indirect_first","0","el04ry07","0","21","1","1","1","1","1049","","","<img src = 'targets/mask.png' width = '100%;'>","75","pos","CS","CS","3","category3/CS10.png","targets/13.png","1","indirect","10",""
"","html-keyboard-response","134","446087","0.0-8.0-0.11","t534n560cd","many_one","0","indirect_first","0","el04ry07","0","21","1","1","1","1","null","","","<div style=""font-size:60px;"">+</div>","null","","","","","","","","","",""
"","html-keyboard-response","135","446188","0.0-8.0-1.11","t534n560cd","many_one","0","indirect_first","0","el04ry07","0","21","1","1","1","1","null","","","<img src = 'category3/CS2.png' width = '100%;'>","null","","","","","","","","","",""
"","html-keyboard-response","136","446467","0.0-8.0-2.11","t534n560cd","many_one","0","indirect_first","0","el04ry07","0","21","1","1","1","1","null","","","<img src = 'targets/42.png' width = '100%;'>","null","","","","","","","","","",""
"","html-keyboard-response","137","447413","0.0-8.0-3.11","t534n560cd","many_one","0","indirect_first","0","el04ry07","0","21","1","1","1","1","945","","","<img src = 'targets/mask.png' width = '100%;'>","75","pos","CS","CS","3","category3/CS2.png","targets/42.png","1","indirect","11",""
"","html-keyboard-response","138","448936","0.0-8.0-0.12","t534n560cd","many_one","0","indirect_first","0","el04ry07","0","21","1","1","1","1","null","","","<div style=""font-size:60px;"">+</div>","null","","","","","","","","","",""
"","html-keyboard-response","139","449037","0.0-8.0-1.12","t534n560cd","many_one","0","indirect_first","0","el04ry07","0","21","1","1","1","1","null","","","<img src = 'category2/CS7.png' width = '100%;'>","null","","","","","","","","","",""
"","html-keyboard-response","140","449317","0.0-8.0-2.12","t534n560cd","many_one","0","indirect_first","0","el04ry07","0","21","1","1","1","1","null","","","<img src = 'targets/48.png' width = '100%;'>","null","","","","","","","","","",""
"","html-keyboard-response","141","450517","0.0-8.0-3.12","t534n560cd","many_one","0","indirect_first","0","el04ry07","0","21","1","1","1","1","1199","","","<img src = 'targets/mask.png' width = '100%;'>","68","neg","GS","GSold","2","category2/CS7.png","targets/48.png","0","indirect","12",""
"","html-keyboard-response","142","452057","0.0-8.0-0.13","t534n560cd","many_one","0","indirect_first","0","el04ry07","0","21","1","1","1","1","null","","","<div style=""font-size:60px;"">+</div>","null","","","","","","","","","",""
"","html-keyboard-response","143","452157","0.0-8.0-1.13","t534n560cd","many_one","0","indirect_first","0","el04ry07","0","21","1","1","1","1","null","","","<img src = 'category2/CS1.png' width = '100%;'>","null","","","","","","","","","",""
"","html-keyboard-response","144","452437","0.0-8.0-2.13","t534n560cd","many_one","0","indirect_first","0","el04ry07","0","21","1","1","1","1","null","","","<img src = 'targets/33.png' width = '100%;'>","null","","","","","","","","","",""
"","html-keyboard-response","145","455812","0.0-8.0-3.13","t534n560cd","many_one","0","indirect_first","0","el04ry07","0","21","1","1","1","1","3374","","","<img src = 'targets/mask.png' width = '100%;'>","68","neg","GS","GSold","2","category2/CS1.png","targets/33.png","0","indirect","13",""
"","html-keyboard-response","146","457336","0.0-8.0-0.14","t534n560cd","many_one","0","indirect_first","0","el04ry07","0","21","1","1","1","1","null","","","<div style=""font-size:60px;"">+</div>","null","","","","","","","","","",""
"","html-keyboard-response","147","457436","0.0-8.0-1.14","t534n560cd","many_one","0","indirect_first","0","el04ry07","0","21","1","1","1","1","null","","","<img src = 'category2/CS9.png' width = '100%;'>","null","","","","","","","","","",""
"","html-keyboard-response","148","457716","0.0-8.0-2.14","t534n560cd","many_one","0","indirect_first","0","el04ry07","0","21","1","1","1","1","null","","","<img src = 'targets/10.png' width = '100%;'>","null","","","","","","","","","",""
"","html-keyboard-response","149","460340","0.0-8.0-3.14","t534n560cd","many_one","0","indirect_first","0","el04ry07","0","21","1","1","1","1","2623","","","<img src = 'targets/mask.png' width = '100%;'>","68","neg","CS","CS","2","category2/CS9.png","targets/10.png","0","indirect","14",""
"","html-keyboard-response","150","461866","0.0-8.0-0.15","t534n560cd","many_one","0","indirect_first","0","el04ry07","0","21","1","1","1","1","null","","","<div style=""font-size:60px;"">+</div>","null","","","","","","","","","",""
"","html-keyboard-response","151","461967","0.0-8.0-1.15","t534n560cd","many_one","0","indirect_first","0","el04ry07","0","21","1","1","1","1","null","","","<img src = 'category3/CS5.png' width = '100%;'>","null","","","","","","","","","",""
"","html-keyboard-response","152","462246","0.0-8.0-2.15","t534n560cd","many_one","0","indirect_first","0","el04ry07","0","21","1","1","1","1","null","","","<img src = 'targets/28.png' width = '100%;'>","null","","","","","","","","","",""
"","html-keyboard-response","153","464461","0.0-8.0-3.15","t534n560cd","many_one","0","indirect_first","0","el04ry07","0","21","1","1","1","1","2214","","","<img src = 'targets/mask.png' width = '100%;'>","75","pos","CS","CS","3","category3/CS5.png","targets/28.png","1","indirect","15",""
"","html-keyboard-response","154","465986","0.0-8.0-0.16","t534n560cd","many_one","0","indirect_first","0","el04ry07","0","21","1","1","1","1","null","","","<div style=""font-size:60px;"">+</div>","null","","","","","","","","","",""
"","html-keyboard-response","155","466087","0.0-8.0-1.16","t534n560cd","many_one","0","indirect_first","0","el04ry07","0","21","1","1","1","1","null","","","<img src = 'category4/CS4.png' width = '100%;'>","null","","","","","","","","","",""
"","html-keyboard-response","156","466366","0.0-8.0-2.16","t534n560cd","many_one","0","indirect_first","0","el04ry07","0","21","1","1","1","1","null","","","<img src = 'targets/46.png' width = '100%;'>","null","","","","","","","","","",""
"","html-keyboard-response","157","468389","0.0-8.0-3.16","t534n560cd","many_one","0","indirect_first","0","el04ry07","0","21","1","1","1","1","2022","","","<img src = 'targets/mask.png' width = '100%;'>","68","neg","CS","CS","4","category4/CS4.png","targets/46.png","0","indirect","16",""
"","html-keyboard-response","158","469926","0.0-8.0-0.17","t534n560cd","many_one","0","indirect_first","0","el04ry07","0","21","1","1","1","1","null","","","<div style=""font-size:60px;"">+</div>","null","","","","","","","","","",""
"","html-keyboard-response","159","470027","0.0-8.0-1.17","t534n560cd","many_one","0","indirect_first","0","el04ry07","0","21","1","1","1","1","null","","","<img src = 'category4/CS8.png' width = '100%;'>","null","","","","","","","","","",""
"","html-keyboard-response","160","470307","0.0-8.0-2.17","t534n560cd","many_one","0","indirect_first","0","el04ry07","0","21","1","1","1","1","null","","","<img src = 'targets/17.png' width = '100%;'>","null","","","","","","","","","",""
"","html-keyboard-response","161","471437","0.0-8.0-3.17","t534n560cd","many_one","0","indirect_first","0","el04ry07","0","21","1","1","1","1","1129","","","<img src = 'targets/mask.png' width = '100%;'>","68","neg","CS","CS","4","category4/CS8.png","targets/17.png","0","indirect","17",""
"","html-keyboard-response","162","472966","0.0-8.0-0.18","t534n560cd","many_one","0","indirect_first","0","el04ry07","0","21","1","1","1","1","null","","","<div style=""font-size:60px;"">+</div>","null","","","","","","","","","",""
"","html-keyboard-response","163","473067","0.0-8.0-1.18","t534n560cd","many_one","0","indirect_first","0","el04ry07","0","21","1","1","1","1","null","","","<img src = 'category1/CS5.png' width = '100%;'>","null","","","","","","","","","",""
"","html-keyboard-response","164","473346","0.0-8.0-2.18","t534n560cd","many_one","0","indirect_first","0","el04ry07","0","21","1","1","1","1","null","","","<img src = 'targets/35.png' width = '100%;'>","null","","","","","","","","","",""
"","html-keyboard-response","165","476013","0.0-8.0-3.18","t534n560cd","many_one","0","indirect_first","0","el04ry07","0","21","1","1","1","1","2664","","","<img src = 'targets/mask.png' width = '100%;'>","75","pos","CS","CS","1","category1/CS5.png","targets/35.png","1","indirect","18",""
"","html-keyboard-response","166","477541","0.0-8.0-0.19","t534n560cd","many_one","0","indirect_first","0","el04ry07","0","21","1","1","1","1","null","","","<div style=""font-size:60px;"">+</div>","null","","","","","","","","","",""
"","html-keyboard-response","167","477647","0.0-8.0-1.19","t534n560cd","many_one","0","indirect_first","0","el04ry07","0","21","1","1","1","1","null","","","<img src = 'category3/CS7.png' width = '100%;'>","null","","","","","","","","","",""
"","html-keyboard-response","168","477927","0.0-8.0-2.19","t534n560cd","many_one","0","indirect_first","0","el04ry07","0","21","1","1","1","1","null","","","<img src = 'targets/5.png' width = '100%;'>","null","","","","","","","","","",""
"","html-keyboard-response","169","480229","0.0-8.0-3.19","t534n560cd","many_one","0","indirect_first","0","el04ry07","0","21","1","1","1","1","2300","","","<img src = 'targets/mask.png' width = '100%;'>","75","pos","CS","CS","3","category3/CS7.png","targets/5.png","1","indirect","19",""
"","html-keyboard-response","170","481766","0.0-8.0-0.20","t534n560cd","many_one","0","indirect_first","0","el04ry07","0","21","1","1","1","1","null","","","<div style=""font-size:60px;"">+</div>","null","","","","","","","","","",""
"","html-keyboard-response","171","481867","0.0-8.0-1.20","t534n560cd","many_one","0","indirect_first","0","el04ry07","0","21","1","1","1","1","null","","","<img src = 'category1/CS1.png' width = '100%;'>","null","","","","","","","","","",""
"","html-keyboard-response","172","482146","0.0-8.0-2.20","t534n560cd","many_one","0","indirect_first","0","el04ry07","0","21","1","1","1","1","null","","","<img src = 'targets/7.png' width = '100%;'>","null","","","","","","","","","",""
"","html-keyboard-response","173","483845","0.0-8.0-3.20","t534n560cd","many_one","0","indirect_first","0","el04ry07","0","21","1","1","1","1","1698","","","<img src = 'targets/mask.png' width = '100%;'>","68","pos","CS","CS","1","category1/CS1.png","targets/7.png","0","indirect","20",""
"","html-keyboard-response","174","485365","0.0-8.0-0.21","t534n560cd","many_one","0","indirect_first","0","el04ry07","0","21","1","1","1","1","null","","","<div style=""font-size:60px;"">+</div>","null","","","","","","","","","",""
"","html-keyboard-response","175","485467","0.0-8.0-1.21","t534n560cd","many_one","0","indirect_first","0","el04ry07","0","21","1","1","1","1","null","","","<img src = 'category3/CS1.png' width = '100%;'>","null","","","","","","","","","",""
"","html-keyboard-response","176","485746","0.0-8.0-2.21","t534n560cd","many_one","0","indirect_first","0","el04ry07","0","21","1","1","1","1","null","","","<img src = 'targets/1.png' width = '100%;'>","null","","","","","","","","","",""
"","html-keyboard-response","177","489253","0.0-8.0-3.21","t534n560cd","many_one","0","indirect_first","0","el04ry07","0","21","1","1","1","1","3504","","","<img src = 'targets/mask.png' width = '100%;'>","75","pos","CS","CS","3","category3/CS1.png","targets/1.png","1","indirect","21",""
"","html-keyboard-response","178","490786","0.0-8.0-0.22","t534n560cd","many_one","0","indirect_first","0","el04ry07","0","21","1","1","1","1","null","","","<div style=""font-size:60px;"">+</div>","null","","","","","","","","","",""
"","html-keyboard-response","179","490887","0.0-8.0-1.22","t534n560cd","many_one","0","indirect_first","0","el04ry07","0","21","1","1","1","1","null","","","<img src = 'category1/CS9.png' width = '100%;'>","null","","","","","","","","","",""
"","html-keyboard-response","180","491157","0.0-8.0-2.22","t534n560cd","many_one","0","indirect_first","0","el04ry07","0","21","1","1","1","1","null","","","<img src = 'targets/41.png' width = '100%;'>","null","","","","","","","","","",""
"","html-keyboard-response","181","492980","0.0-8.0-3.22","t534n560cd","many_one","0","indirect_first","0","el04ry07","0","21","1","1","1","1","1822","","","<img src = 'targets/mask.png' width = '100%;'>","75","pos","CS","CS","1","category1/CS9.png","targets/41.png","1","indirect","22",""
"","html-keyboard-response","182","494516","0.0-8.0-0.23","t534n560cd","many_one","0","indirect_first","0","el04ry07","0","21","1","1","1","1","null","","","<div style=""font-size:60px;"">+</div>","null","","","","","","","","","",""
"","html-keyboard-response","183","494617","0.0-8.0-1.23","t534n560cd","many_one","0","indirect_first","0","el04ry07","0","21","1","1","1","1","null","","","<img src = 'category3/CS8.png' width = '100%;'>","null","","","","","","","","","",""
"","html-keyboard-response","184","494896","0.0-8.0-2.23","t534n560cd","many_one","0","indirect_first","0","el04ry07","0","21","1","1","1","1","null","","","<img src = 'targets/23.png' width = '100%;'>","null","","","","","","","","","",""
"","html-keyboard-response","185","496373","0.0-8.0-3.23","t534n560cd","many_one","0","indirect_first","0","el04ry07","0","21","1","1","1","1","1475","","","<img src = 'targets/mask.png' width = '100%;'>","68","pos","GS","GSold","3","category3/CS8.png","targets/23.png","0","indirect","23",""
"","survey-html-form","186","499628","0.0-9.0","t534n560cd","many_one","0","indirect_first","0","el04ry07","0","21","1","1","1","1","2741","","{}","","","","","","","","","","","",""
"","html-keyboard-response","187","502667","0.0-10.0-0.0","t534n560cd","many_one","0","indirect_first","0","el04ry07","0","21","1","1","1","1","null","","","<div style=""font-size:60px;"">+</div>","null","","","","","","","","","",""
"","html-keyboard-response","188","502766","0.0-10.0-1.0","t534n560cd","many_one","0","indirect_first","0","el04ry07","0","21","1","1","1","1","null","","","<img src = 'category3/wang.png' width = '100%;'>","null","","","","","","","","","",""
"","html-keyboard-response","189","503047","0.0-10.0-2.0","t534n560cd","many_one","0","indirect_first","0","el04ry07","0","21","1","1","1","1","null","","","<img src = 'targets/31.png' width = '100%;'>","null","","","","","","","","","",""
"","html-keyboard-response","190","505412","0.0-10.0-3.0","t534n560cd","many_one","0","indirect_first","0","el04ry07","0","21","1","1","1","1","2365","","","<img src = 'targets/mask.png' width = '100%;'>","75","pos","GS","abstract","3","category3/wang.png","targets/31.png","1","indirect","24",""
"","html-keyboard-response","191","506926","0.0-10.0-0.1","t534n560cd","many_one","0","indirect_first","0","el04ry07","0","21","1","1","1","1","null","","","<div style=""font-size:60px;"">+</div>","null","","","","","","","","","",""
"","html-keyboard-response","192","507027","0.0-10.0-1.1","t534n560cd","many_one","0","indirect_first","0","el04ry07","0","21","1","1","1","1","null","","","<img src = 'category2/men.png' width = '100%;'>","null","","","","","","","","","",""
"","html-keyboard-response","193","507306","0.0-10.0-2.1","t534n560cd","many_one","0","indirect_first","0","el04ry07","0","21","1","1","1","1","null","","","<img src = 'targets/44.png' width = '100%;'>","null","","","","","","","","","",""
"","html-keyboard-response","194","510940","0.0-10.0-3.1","t534n560cd","many_one","0","indirect_first","0","el04ry07","0","21","1","1","1","1","3633","","","<img src = 'targets/mask.png' width = '100%;'>","68","neg","GS","abstract","2","category2/men.png","targets/44.png","0","indirect","25",""
"","html-keyboard-response","195","512467","0.0-10.0-0.2","t534n560cd","many_one","0","indirect_first","0","el04ry07","0","21","1","1","1","1","null","","","<div style=""font-size:60px;"">+</div>","null","","","","","","","","","",""
"","html-keyboard-response","196","512566","0.0-10.0-1.2","t534n560cd","many_one","0","indirect_first","0","el04ry07","0","21","1","1","1","1","null","","","<img src = 'category2/GS1.png' width = '100%;'>","null","","","","","","","","","",""
"","html-keyboard-response","197","512846","0.0-10.0-2.2","t534n560cd","many_one","0","indirect_first","0","el04ry07","0","21","1","1","1","1","null","","","<img src = 'targets/38.png' width = '100%;'>","null","","","","","","","","","",""
"","html-keyboard-response","198","513981","0.0-10.0-3.2","t534n560cd","many_one","0","indirect_first","0","el04ry07","0","21","1","1","1","1","1133","","","<img src = 'targets/mask.png' width = '100%;'>","68","neg","GS","GSnew","2","category2/GS1.png","targets/38.png","0","indirect","26",""
"","html-keyboard-response","199","515516","0.0-10.0-0.3","t534n560cd","many_one","0","indirect_first","0","el04ry07","0","21","1","1","1","1","null","","","<div style=""font-size:60px;"">+</div>","null","","","","","","","","","",""
"","html-keyboard-response","200","515617","0.0-10.0-1.3","t534n560cd","many_one","0","indirect_first","0","el04ry07","0","21","1","1","1","1","null","","","<img src = 'category4/CS5.png' width = '100%;'>","null","","","","","","","","","",""
"","html-keyboard-response","201","515897","0.0-10.0-2.3","t534n560cd","many_one","0","indirect_first","0","el04ry07","0","21","1","1","1","1","null","","","<img src = 'targets/30.png' width = '100%;'>","null","","","","","","","","","",""
"","html-keyboard-response","202","517197","0.0-10.0-3.3","t534n560cd","many_one","0","indirect_first","0","el04ry07","0","21","1","1","1","1","1299","","","<img src = 'targets/mask.png' width = '100%;'>","68","neg","GS","GSold","4","category4/CS5.png","targets/30.png","0","indirect","27",""
"","html-keyboard-response","203","518726","0.0-10.0-0.4","t534n560cd","many_one","0","indirect_first","0","el04ry07","0","21","1","1","1","1","null","","","<div style=""font-size:60px;"">+</div>","null","","","","","","","","","",""
"","html-keyboard-response","204","518827","0.0-10.0-1.4","t534n560cd","many_one","0","indirect_first","0","el04ry07","0","21","1","1","1","1","null","","","<img src = 'category2/GS3.png' width = '100%;'>","null","","","","","","","","","",""
"","html-keyboard-response","205","519106","0.0-10.0-2.4","t534n560cd","many_one","0","indirect_first","0","el04ry07","0","21","1","1","1","1","null","","","<img src = 'targets/9.png' width = '100%;'>","null","","","","","","","","","",""
"","html-keyboard-response","206","520140","0.0-10.0-3.4","t534n560cd","many_one","0","indirect_first","0","el04ry07","0","21","1","1","1","1","1033","","","<img src = 'targets/mask.png' width = '100%;'>","75","neg","GS","GSnew","2","category2/GS3.png","targets/9.png","1","indirect","28",""
"","html-keyboard-response","207","521666","0.0-10.0-0.5","t534n560cd","many_one","0","indirect_first","0","el04ry07","0","21","1","1","1","1","null","","","<div style=""font-size:60px;"">+</div>","null","","","","","","","","","",""
"","html-keyboard-response","208","521766","0.0-10.0-1.5","t534n560cd","many_one","0","indirect_first","0","el04ry07","0","21","1","1","1","1","null","","","<img src = 'category3/CS4.png' width = '100%;'>","null","","","","","","","","","",""
"","html-keyboard-response","209","522046","0.0-10.0-2.5","t534n560cd","many_one","0","indirect_first","0","el04ry07","0","21","1","1","1","1","null","","","<img src = 'targets/14.png' width = '100%;'>","null","","","","","","","","","",""
"","html-keyboard-response","210","523605","0.0-10.0-3.5","t534n560cd","many_one","0","indirect_first","0","el04ry07","0","21","1","1","1","1","1558","","","<img src = 'targets/mask.png' width = '100%;'>","68","pos","GS","GSold","3","category3/CS4.png","targets/14.png","0","indirect","29",""
"","html-keyboard-response","211","525106","0.0-10.0-0.6","t534n560cd","many_one","0","indirect_first","0","el04ry07","0","21","1","1","1","1","null","","","<div style=""font-size:60px;"">+</div>","null","","","","","","","","","",""
"","html-keyboard-response","212","525206","0.0-10.0-1.6","t534n560cd","many_one","0","indirect_first","0","el04ry07","0","21","1","1","1","1","null","","","<img src = 'category4/GS3.png' width = '100%;'>","null","","","","","","","","","",""
"","html-keyboard-response","213","525487","0.0-10.0-2.6","t534n560cd","many_one","0","indirect_first","0","el04ry07","0","21","1","1","1","1","null","","","<img src = 'targets/16.png' width = '100%;'>","null","","","","","","","","","",""
"","html-keyboard-response","214","526308","0.0-10.0-3.6","t534n560cd","many_one","0","indirect_first","0","el04ry07","0","21","1","1","1","1","821","","","<img src = 'targets/mask.png' width = '100%;'>","68","neg","GS","GSnew","4","category4/GS3.png","targets/16.png","0","indirect","30",""
"","html-keyboard-response","215","527846","0.0-10.0-0.7","t534n560cd","many_one","0","indirect_first","0","el04ry07","0","21","1","1","1","1","null","","","<div style=""font-size:60px;"">+</div>","null","","","","","","","","","",""
"","html-keyboard-response","216","527947","0.0-10.0-1.7","t534n560cd","many_one","0","indirect_first","0","el04ry07","0","21","1","1","1","1","null","","","<img src = 'category4/lin.png' width = '100%;'>","null","","","","","","","","","",""
"","html-keyboard-response","217","528226","0.0-10.0-2.7","t534n560cd","many_one","0","indirect_first","0","el04ry07","0","21","1","1","1","1","null","","","<img src = 'targets/11.png' width = '100%;'>","null","","","","","","","","","",""
"","html-keyboard-response","218","529260","0.0-10.0-3.7","t534n560cd","many_one","0","indirect_first","0","el04ry07","0","21","1","1","1","1","1033","","","<img src = 'targets/mask.png' width = '100%;'>","75","neg","GS","abstract","4","category4/lin.png","targets/11.png","1","indirect","31",""
"","html-keyboard-response","219","530786","0.0-10.0-0.8","t534n560cd","many_one","0","indirect_first","0","el04ry07","0","21","1","1","1","1","null","","","<div style=""font-size:60px;"">+</div>","null","","","","","","","","","",""
"","html-keyboard-response","220","530887","0.0-10.0-1.8","t534n560cd","many_one","0","indirect_first","0","el04ry07","0","21","1","1","1","1","null","","","<img src = 'category1/GS1.png' width = '100%;'>","null","","","","","","","","","",""
"","html-keyboard-response","221","531167","0.0-10.0-2.8","t534n560cd","many_one","0","indirect_first","0","el04ry07","0","21","1","1","1","1","null","","","<img src = 'targets/4.png' width = '100%;'>","null","","","","","","","","","",""
"","html-keyboard-response","222","532100","0.0-10.0-3.8","t534n560cd","many_one","0","indirect_first","0","el04ry07","0","21","1","1","1","1","933","","","<img src = 'targets/mask.png' width = '100%;'>","75","pos","GS","GSnew","1","category1/GS1.png","targets/4.png","1","indirect","32",""
"","html-keyboard-response","223","533626","0.0-10.0-0.9","t534n560cd","many_one","0","indirect_first","0","el04ry07","0","21","1","1","1","1","null","","","<div style=""font-size:60px;"">+</div>","null","","","","","","","","","",""
"","html-keyboard-response","224","533727","0.0-10.0-1.9","t534n560cd","many_one","0","indirect_first","0","el04ry07","0","21","1","1","1","1","null","","","<img src = 'category1/CS7.png' width = '100%;'>","null","","","","","","","","","",""
"","html-keyboard-response","225","533997","0.0-10.0-2.9","t534n560cd","many_one","0","indirect_first","0","el04ry07","0","21","1","1","1","1","null","","","<img src = 'targets/3.png' width = '100%;'>","null","","","","","","","","","",""
"","html-keyboard-response","226","534829","0.0-10.0-3.9","t534n560cd","many_one","0","indirect_first","0","el04ry07","0","21","1","1","1","1","831","","","<img src = 'targets/mask.png' width = '100%;'>","68","pos","GS","GSold","1","category1/CS7.png","targets/3.png","0","indirect","33",""
"","html-keyboard-response","227","536356","0.0-10.0-0.10","t534n560cd","many_one","0","indirect_first","0","el04ry07","0","21","1","1","1","1","null","","","<div style=""font-size:60px;"">+</div>","null","","","","","","","","","",""
"","html-keyboard-response","228","536456","0.0-10.0-1.10","t534n560cd","many_one","0","indirect_first","0","el04ry07","0","21","1","1","1","1","null","","","<img src = 'category3/GS2.png' width = '100%;'>","null","","","","","","","","","",""
"","html-keyboard-response","229","536737","0.0-10.0-2.10","t534n560cd","many_one","0","indirect_first","0","el04ry07","0","21","1","1","1","1","null","","","<img src = 'targets/2.png' width = '100%;'>","null","","","","","","","","","",""
"","html-keyboard-response","230","538244","0.0-10.0-3.10","t534n560cd","many_one","0","indirect_first","0","el04ry07","0","21","1","1","1","1","1506","","","<img src = 'targets/mask.png' width = '100%;'>","68","pos","GS","GSnew","3","category3/GS2.png","targets/2.png","0","indirect","34",""
"","html-keyboard-response","231","539766","0.0-10.0-0.11","t534n560cd","many_one","0","indirect_first","0","el04ry07","0","21","1","1","1","1","null","","","<div style=""font-size:60px;"">+</div>","null","","","","","","","","","",""
"","html-keyboard-response","232","539867","0.0-10.0-1.11","t534n560cd","many_one","0","indirect_first","0","el04ry07","0","21","1","1","1","1","null","","","<img src = 'category3/CS3.png' width = '100%;'>","null","","","","","","","","","",""
"","html-keyboard-response","233","540146","0.0-10.0-2.11","t534n560cd","many_one","0","indirect_first","0","el04ry07","0","21","1","1","1","1","null","","","<img src = 'targets/45.png' width = '100%;'>","null","","","","","","","","","",""
"","html-keyboard-response","234","540684","0.0-10.0-3.11","t534n560cd","many_one","0","indirect_first","0","el04ry07","0","21","1","1","1","1","537","","","<img src = 'targets/mask.png' width = '100%;'>","75","pos","GS","GSold","3","category3/CS3.png","targets/45.png","1","indirect","35",""
"","html-keyboard-response","235","542206","0.0-10.0-0.12","t534n560cd","many_one","0","indirect_first","0","el04ry07","0","21","1","1","1","1","null","","","<div style=""font-size:60px;"">+</div>","null","","","","","","","","","",""
"","html-keyboard-response","236","542306","0.0-10.0-1.12","t534n560cd","many_one","0","indirect_first","0","el04ry07","0","21","1","1","1","1","null","","","<img src = 'category1/GS2.png' width = '100%;'>","null","","","","","","","","","",""
"","html-keyboard-response","237","542587","0.0-10.0-2.12","t534n560cd","many_one","0","indirect_first","0","el04ry07","0","21","1","1","1","1","null","","","<img src = 'targets/40.png' width = '100%;'>","null","","","","","","","","","",""
"","html-keyboard-response","238","545972","0.0-10.0-3.12","t534n560cd","many_one","0","indirect_first","0","el04ry07","0","21","1","1","1","1","3384","","","<img src = 'targets/mask.png' width = '100%;'>","68","pos","GS","GSnew","1","category1/GS2.png","targets/40.png","0","indirect","36",""
"","html-keyboard-response","239","547506","0.0-10.0-0.13","t534n560cd","many_one","0","indirect_first","0","el04ry07","0","21","1","1","1","1","null","","","<div style=""font-size:60px;"">+</div>","null","","","","","","","","","",""
"","html-keyboard-response","240","547606","0.0-10.0-1.13","t534n560cd","many_one","0","indirect_first","0","el04ry07","0","21","1","1","1","1","null","","","<img src = 'category3/GS1.png' width = '100%;'>","null","","","","","","","","","",""
"","html-keyboard-response","241","547886","0.0-10.0-2.13","t534n560cd","many_one","0","indirect_first","0","el04ry07","0","21","1","1","1","1","null","","","<img src = 'targets/25.png' width = '100%;'>","null","","","","","","","","","",""
"","html-keyboard-response","242","548636","0.0-10.0-3.13","t534n560cd","many_one","0","indirect_first","0","el04ry07","0","21","1","1","1","1","749","","","<img src = 'targets/mask.png' width = '100%;'>","75","pos","GS","GSnew","3","category3/GS1.png","targets/25.png","1","indirect","37",""
"","html-keyboard-response","243","550146","0.0-10.0-0.14","t534n560cd","many_one","0","indirect_first","0","el04ry07","0","21","1","1","1","1","null","","","<div style=""font-size:60px;"">+</div>","null","","","","","","","","","",""
"","html-keyboard-response","244","550246","0.0-10.0-1.14","t534n560cd","many_one","0","indirect_first","0","el04ry07","0","21","1","1","1","1","null","","","<img src = 'category1/ma.png' width = '100%;'>","null","","","","","","","","","",""
"","html-keyboard-response","245","550526","0.0-10.0-2.14","t534n560cd","many_one","0","indirect_first","0","el04ry07","0","21","1","1","1","1","null","","","<img src = 'targets/36.png' width = '100%;'>","null","","","","","","","","","",""
"","html-keyboard-response","246","552252","0.0-10.0-3.14","t534n560cd","many_one","0","indirect_first","0","el04ry07","0","21","1","1","1","1","1724","","","<img src = 'targets/mask.png' width = '100%;'>","75","pos","GS","abstract","1","category1/ma.png","targets/36.png","1","indirect","38",""
"","html-keyboard-response","247","553776","0.0-10.0-0.15","t534n560cd","many_one","0","indirect_first","0","el04ry07","0","21","1","1","1","1","null","","","<div style=""font-size:60px;"">+</div>","null","","","","","","","","","",""
"","html-keyboard-response","248","553876","0.0-10.0-1.15","t534n560cd","many_one","0","indirect_first","0","el04ry07","0","21","1","1","1","1","null","","","<img src = 'category4/CS3.png' width = '100%;'>","null","","","","","","","","","",""
"","html-keyboard-response","249","554157","0.0-10.0-2.15","t534n560cd","many_one","0","indirect_first","0","el04ry07","0","21","1","1","1","1","null","","","<img src = 'targets/29.png' width = '100%;'>","null","","","","","","","","","",""
"","html-keyboard-response","250","555405","0.0-10.0-3.15","t534n560cd","many_one","0","indirect_first","0","el04ry07","0","21","1","1","1","1","1247","","","<img src = 'targets/mask.png' width = '100%;'>","75","neg","GS","GSold","4","category4/CS3.png","targets/29.png","1","indirect","39",""
"","html-keyboard-response","251","556926","0.0-10.0-0.16","t534n560cd","many_one","0","indirect_first","0","el04ry07","0","21","1","1","1","1","null","","","<div style=""font-size:60px;"">+</div>","null","","","","","","","","","",""
"","html-keyboard-response","252","557026","0.0-10.0-1.16","t534n560cd","many_one","0","indirect_first","0","el04ry07","0","21","1","1","1","1","null","","","<img src = 'category4/GS2.png' width = '100%;'>","null","","","","","","","","","",""
"","html-keyboard-response","253","557306","0.0-10.0-2.16","t534n560cd","many_one","0","indirect_first","0","el04ry07","0","21","1","1","1","1","null","","","<img src = 'targets/26.png' width = '100%;'>","null","","","","","","","","","",""
"","html-keyboard-response","254","558436","0.0-10.0-3.16","t534n560cd","many_one","0","indirect_first","0","el04ry07","0","21","1","1","1","1","1129","","","<img src = 'targets/mask.png' width = '100%;'>","68","neg","GS","GSnew","4","category4/GS2.png","targets/26.png","0","indirect","40",""
"","html-keyboard-response","255","559964","0.0-10.0-0.17","t534n560cd","many_one","0","indirect_first","0","el04ry07","0","21","1","1","1","1","null","","","<div style=""font-size:60px;"">+</div>","null","","","","","","","","","",""
"","html-keyboard-response","256","560064","0.0-10.0-1.17","t534n560cd","many_one","0","indirect_first","0","el04ry07","0","21","1","1","1","1","null","","","<img src = 'category4/CS1.png' width = '100%;'>","null","","","","","","","","","",""
"","html-keyboard-response","257","560346","0.0-10.0-2.17","t534n560cd","many_one","0","indirect_first","0","el04ry07","0","21","1","1","1","1","null","","","<img src = 'targets/43.png' width = '100%;'>","null","","","","","","","","","",""
"","html-keyboard-response","258","561700","0.0-10.0-3.17","t534n560cd","many_one","0","indirect_first","0","el04ry07","0","21","1","1","1","1","1353","","","<img src = 'targets/mask.png' width = '100%;'>","75","neg","GS","GSold","4","category4/CS1.png","targets/43.png","1","indirect","41",""
"","html-keyboard-response","259","563216","0.0-10.0-0.18","t534n560cd","many_one","0","indirect_first","0","el04ry07","0","21","1","1","1","1","null","","","<div style=""font-size:60px;"">+</div>","null","","","","","","","","","",""
"","html-keyboard-response","260","563326","0.0-10.0-1.18","t534n560cd","many_one","0","indirect_first","0","el04ry07","0","21","1","1","1","1","null","","","<img src = 'category4/GS1.png' width = '100%;'>","null","","","","","","","","","",""
"","html-keyboard-response","261","563606","0.0-10.0-2.18","t534n560cd","many_one","0","indirect_first","0","el04ry07","0","21","1","1","1","1","null","","","<img src = 'targets/6.png' width = '100%;'>","null","","","","","","","","","",""
"","html-keyboard-response","262","565908","0.0-10.0-3.18","t534n560cd","many_one","0","indirect_first","0","el04ry07","0","21","1","1","1","1","2300","","","<img src = 'targets/mask.png' width = '100%;'>","68","neg","GS","GSnew","4","category4/GS1.png","targets/6.png","0","indirect","42",""
"","html-keyboard-response","263","567445","0.0-10.0-0.19","t534n560cd","many_one","0","indirect_first","0","el04ry07","0","21","1","1","1","1","null","","","<div style=""font-size:60px;"">+</div>","null","","","","","","","","","",""
"","html-keyboard-response","264","567546","0.0-10.0-1.19","t534n560cd","many_one","0","indirect_first","0","el04ry07","0","21","1","1","1","1","null","","","<img src = 'category1/CS6.png' width = '100%;'>","null","","","","","","","","","",""
"","html-keyboard-response","265","567826","0.0-10.0-2.19","t534n560cd","many_one","0","indirect_first","0","el04ry07","0","21","1","1","1","1","null","","","<img src = 'targets/39.png' width = '100%;'>","null","","","","","","","","","",""
"","html-keyboard-response","266","569212","0.0-10.0-3.19","t534n560cd","many_one","0","indirect_first","0","el04ry07","0","21","1","1","1","1","1384","","","<img src = 'targets/mask.png' width = '100%;'>","68","pos","GS","GSold","1","category1/CS6.png","targets/39.png","0","indirect","43",""
"","html-keyboard-response","267","570726","0.0-10.0-0.20","t534n560cd","many_one","0","indirect_first","0","el04ry07","0","21","1","1","1","1","null","","","<div style=""font-size:60px;"">+</div>","null","","","","","","","","","",""
"","html-keyboard-response","268","570826","0.0-10.0-1.20","t534n560cd","many_one","0","indirect_first","0","el04ry07","0","21","1","1","1","1","null","","","<img src = 'category1/GS3.png' width = '100%;'>","null","","","","","","","","","",""
"","html-keyboard-response","269","571104","0.0-10.0-2.20","t534n560cd","many_one","0","indirect_first","0","el04ry07","0","21","1","1","1","1","null","","","<img src = 'targets/21.png' width = '100%;'>","null","","","","","","","","","",""
"","html-keyboard-response","270","573797","0.0-10.0-3.20","t534n560cd","many_one","0","indirect_first","0","el04ry07","0","21","1","1","1","1","2690","","","<img src = 'targets/mask.png' width = '100%;'>","75","pos","GS","GSnew","1","category1/GS3.png","targets/21.png","1","indirect","44",""
"","html-keyboard-response","271","575326","0.0-10.0-0.21","t534n560cd","many_one","0","indirect_first","0","el04ry07","0","21","1","1","1","1","null","","","<div style=""font-size:60px;"">+</div>","null","","","","","","","","","",""
"","html-keyboard-response","272","575426","0.0-10.0-1.21","t534n560cd","many_one","0","indirect_first","0","el04ry07","0","21","1","1","1","1","null","","","<img src = 'category1/CS2.png' width = '100%;'>","null","","","","","","","","","",""
"","html-keyboard-response","273","575706","0.0-10.0-2.21","t534n560cd","many_one","0","indirect_first","0","el04ry07","0","21","1","1","1","1","null","","","<img src = 'targets/15.png' width = '100%;'>","null","","","","","","","","","",""
"","html-keyboard-response","274","577636","0.0-10.0-3.21","t534n560cd","many_one","0","indirect_first","0","el04ry07","0","21","1","1","1","1","1929","","","<img src = 'targets/mask.png' width = '100%;'>","68","pos","GS","GSold","1","category1/CS2.png","targets/15.png","0","indirect","45",""
"","html-keyboard-response","275","579166","0.0-10.0-0.22","t534n560cd","many_one","0","indirect_first","0","el04ry07","0","21","1","1","1","1","null","","","<div style=""font-size:60px;"">+</div>","null","","","","","","","","","",""
"","html-keyboard-response","276","579266","0.0-10.0-1.22","t534n560cd","many_one","0","indirect_first","0","el04ry07","0","21","1","1","1","1","null","","","<img src = 'category2/GS2.png' width = '100%;'>","null","","","","","","","","","",""
"","html-keyboard-response","277","579546","0.0-10.0-2.22","t534n560cd","many_one","0","indirect_first","0","el04ry07","0","21","1","1","1","1","null","","","<img src = 'targets/27.png' width = '100%;'>","null","","","","","","","","","",""
"","html-keyboard-response","278","580236","0.0-10.0-3.22","t534n560cd","many_one","0","indirect_first","0","el04ry07","0","21","1","1","1","1","689","","","<img src = 'targets/mask.png' width = '100%;'>","75","neg","GS","GSnew","2","category2/GS2.png","targets/27.png","1","indirect","46",""
"","html-keyboard-response","279","581766","0.0-10.0-0.23","t534n560cd","many_one","0","indirect_first","0","el04ry07","0","21","1","1","1","1","null","","","<div style=""font-size:60px;"">+</div>","null","","","","","","","","","",""
"","html-keyboard-response","280","581867","0.0-10.0-1.23","t534n560cd","many_one","0","indirect_first","0","el04ry07","0","21","1","1","1","1","null","","","<img src = 'category3/GS3.png' width = '100%;'>","null","","","","","","","","","",""
"","html-keyboard-response","281","582146","0.0-10.0-2.23","t534n560cd","many_one","0","indirect_first","0","el04ry07","0","21","1","1","1","1","null","","","<img src = 'targets/18.png' width = '100%;'>","null","","","","","","","","","",""
"","html-keyboard-response","282","584748","0.0-10.0-3.23","t534n560cd","many_one","0","indirect_first","0","el04ry07","0","21","1","1","1","1","2600","","","<img src = 'targets/mask.png' width = '100%;'>","68","pos","GS","GSnew","3","category3/GS3.png","targets/18.png","0","indirect","47",""
"","survey-html-form","283","600980","0.0-11.0","t534n560cd","many_one","0","indirect_first","0","el04ry07","0","21","1","1","1","1","15713","","{}","","","","","","","","","","","",""
"","image-slider-response","284","611323","0.0-12.0-0.0","t534n560cd","many_one","0","indirect_first","0","el04ry07","0","21","1","1","1","1","8334","","","","","neg","GS","GSnew","2","category2/GS1.png","targets/38.png","","direct","","38"
"","image-slider-response","285","614707","0.0-12.0-0.1","t534n560cd","many_one","0","indirect_first","0","el04ry07","0","21","1","1","1","1","3382","","","","","neg","GS","GSold","4","category4/CS3.png","targets/29.png","","direct","","-27"
"","image-slider-response","286","618531","0.0-12.0-0.2","t534n560cd","many_one","0","indirect_first","0","el04ry07","0","21","1","1","1","1","3822","","","","","pos","CS","CS","3","category3/CS1.png","targets/1.png","","direct","","61"
"","image-slider-response","287","625923","0.0-12.0-0.3","t534n560cd","many_one","0","indirect_first","0","el04ry07","0","21","1","1","1","1","7391","","","","","neg","GS","GSold","4","category4/CS5.png","targets/30.png","","direct","","-15"
"","image-slider-response","288","629995","0.0-12.0-0.4","t534n560cd","many_one","0","indirect_first","0","el04ry07","0","21","1","1","1","1","4070","","","","","pos","CS","CS","3","category3/CS10.png","targets/13.png","","direct","","57"
"","image-slider-response","289","633347","0.0-12.0-0.5","t534n560cd","many_one","0","indirect_first","0","el04ry07","0","21","1","1","1","1","3351","","","","","neg","GS","GSold","2","category2/CS1.png","targets/33.png","","direct","","-62"
"","image-slider-response","290","636643","0.0-12.0-0.6","t534n560cd","many_one","0","indirect_first","0","el04ry07","0","21","1","1","1","1","3295","","","","","pos","CS","CS","1","category1/CS4.png","targets/19.png","","direct","","-39"
"","image-slider-response","291","641195","0.0-12.0-0.7","t534n560cd","many_one","0","indirect_first","0","el04ry07","0","21","1","1","1","1","4551","","","","","neg","GS","GSnew","4","category4/GS1.png","targets/6.png","","direct","","-1"
"","image-slider-response","292","644619","0.0-12.0-0.8","t534n560cd","many_one","0","indirect_first","0","el04ry07","0","21","1","1","1","1","3423","","","","","pos","GS","GSnew","1","category1/GS2.png","targets/40.png","","direct","","-15"
"","image-slider-response","293","647234","0.0-12.0-0.9","t534n560cd","many_one","0","indirect_first","0","el04ry07","0","21","1","1","1","1","2615","","","","","pos","GS","abstract","1","category1/ma.png","targets/36.png","","direct","","16"
"","image-slider-response","294","650650","0.0-12.0-0.10","t534n560cd","many_one","0","indirect_first","0","el04ry07","0","21","1","1","1","1","3414","","","","","pos","GS","abstract","3","category3/wang.png","targets/31.png","","direct","","46"
"","image-slider-response","295","653163","0.0-12.0-0.11","t534n560cd","many_one","0","indirect_first","0","el04ry07","0","21","1","1","1","1","2511","","","","","pos","CS","CS","1","category1/CS1.png","targets/7.png","","direct","","-27"
"","image-slider-response","296","659547","0.0-12.0-0.12","t534n560cd","many_one","0","indirect_first","0","el04ry07","0","21","1","1","1","1","6383","","","","","neg","CS","CS","4","category4/CS2.png","targets/8.png","","direct","","-44"
"","image-slider-response","297","663578","0.0-12.0-0.13","t534n560cd","many_one","0","indirect_first","0","el04ry07","0","21","1","1","1","1","4031","","","","","neg","CS","CS","4","category4/CS4.png","targets/46.png","","direct","","53"
"","image-slider-response","298","666331","0.0-12.0-0.14","t534n560cd","many_one","0","indirect_first","0","el04ry07","0","21","1","1","1","1","2751","","","","","neg","CS","CS","4","category4/CS8.png","targets/17.png","","direct","","22"
"","image-slider-response","299","668731","0.0-12.0-0.15","t534n560cd","many_one","0","indirect_first","0","el04ry07","0","21","1","1","1","1","2398","","","","","pos","CS","CS","3","category3/CS2.png","targets/42.png","","direct","","47"
"","image-slider-response","300","671531","0.0-12.0-0.16","t534n560cd","many_one","0","indirect_first","0","el04ry07","0","21","1","1","1","1","2798","","","","","pos","CS","CS","3","category3/CS5.png","targets/28.png","","direct","","79"
"","image-slider-response","301","676210","0.0-12.0-0.17","t534n560cd","many_one","0","indirect_first","0","el04ry07","0","21","1","1","1","1","4679","","","","","neg","GS","GSold","2","category2/CS10.png","targets/12.png","","direct","","-64"
"","image-slider-response","302","679722","0.0-12.0-0.18","t534n560cd","many_one","0","indirect_first","0","el04ry07","0","21","1","1","1","1","3511","","","","","pos","GS","GSold","3","category3/CS4.png","targets/14.png","","direct","","43"
"","image-slider-response","303","682443","0.0-12.0-0.19","t534n560cd","many_one","0","indirect_first","0","el04ry07","0","21","1","1","1","1","2719","","","","","pos","CS","CS","3","category3/CS7.png","targets/5.png","","direct","","75"
"","image-slider-response","304","685450","0.0-12.0-0.20","t534n560cd","many_one","0","indirect_first","0","el04ry07","0","21","1","1","1","1","3007","","","","","neg","CS","CS","4","category4/CS10.png","targets/24.png","","direct","","-33"
"","image-slider-response","305","687987","0.0-12.0-0.21","t534n560cd","many_one","0","indirect_first","0","el04ry07","0","21","1","1","1","1","2535","","","","","neg","CS","CS","2","category2/CS8.png","targets/37.png","","direct","","-60"
"","image-slider-response","306","691434","0.0-12.0-0.22","t534n560cd","many_one","0","indirect_first","0","el04ry07","0","21","1","1","1","1","3446","","","","","pos","GS","GSnew","3","category3/GS1.png","targets/25.png","","direct","","-18"
"","image-slider-response","307","695290","0.0-12.0-0.23","t534n560cd","many_one","0","indirect_first","0","el04ry07","0","21","1","1","1","1","3855","","","","","neg","GS","GSold","4","category4/CS1.png","targets/43.png","","direct","","18"
"","image-slider-response","308","699306","0.0-12.0-0.24","t534n560cd","many_one","0","indirect_first","0","el04ry07","0","21","1","1","1","1","4013","","","","","pos","GS","GSold","3","category3/CS8.png","targets/23.png","","direct","","-30"
"","image-slider-response","309","704586","0.0-12.0-0.25","t534n560cd","many_one","0","indirect_first","0","el04ry07","0","21","1","1","1","1","5279","","","","","pos","CS","CS","1","category1/CS8.png","targets/32.png","","direct","","15"
"","image-slider-response","310","706714","0.0-12.0-0.26","t534n560cd","many_one","0","indirect_first","0","el04ry07","0","21","1","1","1","1","2127","","","","","pos","CS","CS","1","category1/CS5.png","targets/35.png","","direct","","19"
"","image-slider-response","311","710355","0.0-12.0-0.27","t534n560cd","many_one","0","indirect_first","0","el04ry07","0","21","1","1","1","1","3639","","","","","neg","CS","CS","2","category2/CS2.png","targets/34.png","","direct","","-36"
"","image-slider-response","312","712554","0.0-12.0-0.28","t534n560cd","many_one","0","indirect_first","0","el04ry07","0","21","1","1","1","1","2199","","","","","pos","CS","CS","1","category1/CS9.png","targets/41.png","","direct","","34"
"","image-slider-response","313","714978","0.0-12.0-0.29","t534n560cd","many_one","0","indirect_first","0","el04ry07","0","21","1","1","1","1","2423","","","","","neg","CS","CS","2","category2/CS5.png","targets/22.png","","direct","","-56"
"","image-slider-response","314","718619","0.0-12.0-0.30","t534n560cd","many_one","0","indirect_first","0","el04ry07","0","21","1","1","1","1","3639","","","","","neg","CS","CS","4","category4/CS6.png","targets/20.png","","direct","","-52"
"","image-slider-response","315","723235","0.0-12.0-0.31","t534n560cd","many_one","0","indirect_first","0","el04ry07","0","21","1","1","1","1","4614","","","","","pos","GS","GSold","1","category1/CS7.png","targets/3.png","","direct","","26"
"","image-slider-response","316","726514","0.0-12.0-0.32","t534n560cd","many_one","0","indirect_first","0","el04ry07","0","21","1","1","1","1","3279","","","","","pos","GS","GSnew","1","category1/GS1.png","targets/4.png","","direct","","-33"
"","image-slider-response","317","732795","0.0-12.0-0.33","t534n560cd","many_one","0","indirect_first","0","el04ry07","0","21","1","1","1","1","6278","","","","","pos","GS","GSold","3","category3/CS3.png","targets/45.png","","direct","","-28"
"","image-slider-response","318","735002","0.0-12.0-0.34","t534n560cd","many_one","0","indirect_first","0","el04ry07","0","21","1","1","1","1","2206","","","","","neg","GS","GSnew","4","category4/GS3.png","targets/16.png","","direct","","28"
"","image-slider-response","319","737186","0.0-12.0-0.35","t534n560cd","many_one","0","indirect_first","0","el04ry07","0","21","1","1","1","1","2182","","","","","neg","CS","CS","2","category2/CS4.png","targets/47.png","","direct","","-42"
"","image-slider-response","320","741962","0.0-12.0-0.36","t534n560cd","many_one","0","indirect_first","0","el04ry07","0","21","1","1","1","1","4775","","","","","pos","GS","GSold","1","category1/CS6.png","targets/39.png","","direct","","17"
"","image-slider-response","321","747706","0.0-12.0-0.37","t534n560cd","many_one","0","indirect_first","0","el04ry07","0","21","1","1","1","1","5742","","","","","neg","GS","abstract","4","category4/lin.png","targets/11.png","","direct","","4"
"","image-slider-response","322","750242","0.0-12.0-0.38","t534n560cd","many_one","0","indirect_first","0","el04ry07","0","21","1","1","1","1","2535","","","","","neg","GS","abstract","2","category2/men.png","targets/44.png","","direct","","-27"
"","image-slider-response","323","753114","0.0-12.0-0.39","t534n560cd","many_one","0","indirect_first","0","el04ry07","0","21","1","1","1","1","2871","","","","","neg","GS","GSnew","2","category2/GS2.png","targets/27.png","","direct","","-13"
"","image-slider-response","324","756618","0.0-12.0-0.40","t534n560cd","many_one","0","indirect_first","0","el04ry07","0","21","1","1","1","1","3502","","","","","pos","GS","GSnew","3","category3/GS3.png","targets/18.png","","direct","","12"
"","image-slider-response","325","759682","0.0-12.0-0.41","t534n560cd","many_one","0","indirect_first","0","el04ry07","0","21","1","1","1","1","3063","","","","","pos","GS","GSold","1","category1/CS2.png","targets/15.png","","direct","","-16"
"","image-slider-response","326","762098","0.0-12.0-0.42","t534n560cd","many_one","0","indirect_first","0","el04ry07","0","21","1","1","1","1","2415","","","","","neg","GS","GSold","2","category2/CS7.png","targets/48.png","","direct","","-56"
"","image-slider-response","327","767346","0.0-12.0-0.43","t534n560cd","many_one","0","indirect_first","0","el04ry07","0","21","1","1","1","1","5247","","","","","pos","GS","GSnew","3","category3/GS2.png","targets/2.png","","direct","","-40"
"","image-slider-response","328","773410","0.0-12.0-0.44","t534n560cd","many_one","0","indirect_first","0","el04ry07","0","21","1","1","1","1","6063","","","","","neg","GS","GSnew","4","category4/GS2.png","targets/26.png","","direct","","27"
"","image-slider-response","329","775474","0.0-12.0-0.45","t534n560cd","many_one","0","indirect_first","0","el04ry07","0","21","1","1","1","1","2063","","","","","pos","GS","GSnew","1","category1/GS3.png","targets/21.png","","direct","","26"
"","image-slider-response","330","777666","0.0-12.0-0.46","t534n560cd","many_one","0","indirect_first","0","el04ry07","0","21","1","1","1","1","2190","","","","","neg","GS","GSnew","2","category2/GS3.png","targets/9.png","","direct","","-25"
"","image-slider-response","331","780138","0.0-12.0-0.47","t534n560cd","many_one","0","indirect_first","0","el04ry07","0","21","1","1","1","1","2471","","","","","neg","CS","CS","2","category2/CS9.png","targets/10.png","","direct","","-43"
"","survey-html-form","332","788370","0.0-13.0","t534n560cd","many_one","0","indirect_first","0","el04ry07","0","21","1","1","1","1","8233","","{}","","","","","","","","","","","",""
"","image-slider-response","333","795290","0.0-14.0-0.0","t534n560cd","many_one","0","indirect_first","0","el04ry07","0","21","1","1","1","1","5902","","","","","pos","All","all","3","category3/wang_all.png","","","all","","43"
"","image-slider-response","334","798786","0.0-14.0-0.1","t534n560cd","many_one","0","indirect_first","0","el04ry07","0","21","1","1","1","1","3494","","","","","pos","All","all","1","category1/ma_all.png","","","all","","-30"
"","image-slider-response","335","801226","0.0-14.0-0.2","t534n560cd","many_one","0","indirect_first","0","el04ry07","0","21","1","1","1","1","2439","","","","","neg","All","all","4","category4/lin_all.png","","","all","","32"
"","image-slider-response","336","804154","0.0-14.0-0.3","t534n560cd","many_one","0","indirect_first","0","el04ry07","0","21","1","1","1","1","2926","","","","","neg","All","all","2","category2/men_all.png","","","all","","-62"
"","survey-text","337","881755","0.0-15.0","t534n560cd","many_one","0","indirect_first","0","el04ry07","0","21","1","1","1","1","77598","","{""Q0"":""Es ist leichter die Zeichen nach schön oder nicht schön einzuteilen bzw. schätze ich dass bei der Aufgabe viele nicht schön und schön mit unangenehm und angenehm gleich gesetzt haben. ""}","","","","","","","","","","","",""
