"success","trial_type","trial_index","time_elapsed","internal_node_id","subject","condition","condition_code","measure","measure_code","codeword","gender","age","education","chinese","fach","handedness","comment","hinschauen","ablenkung","gewissenhaft","rt","url","responses","stimulus","key_press","val","type","type_specific","category","cs_selected","response","target","task","indirect","nr_pres"
"true","fullscreen","0","4027","0.0-0.0","b887zhcn25","many_one","0","direct_first","1","ll05ch11","1","24","2","1","3","1","","0","1","0","","","","","","","","","","","","","","",""
"","external-html","1","31249","0.0-1.0","b887zhcn25","many_one","0","direct_first","1","ll05ch11","1","24","2","1","3","1","","0","1","0","27181","text/information.html","","","","","","","","","","","","",""
"","external-html","2","41299","0.0-2.0","b887zhcn25","many_one","0","direct_first","1","ll05ch11","1","24","2","1","3","1","","0","1","0","9982","text/consent.html","","","","","","","","","","","","",""
"","survey-html-form","3","98690","0.0-3.0","b887zhcn25","many_one","0","direct_first","1","ll05ch11","1","24","2","1","3","1","","0","1","0","57386","","{""codeword_enter"":""ll05ch11""}","","","","","","","","","","","",""
"","survey-html-form","4","118023","0.0-4.0","b887zhcn25","many_one","0","direct_first","1","ll05ch11","1","24","2","1","3","1","","0","1","0","19330","","{""age"":""24"",""education"":""2"",""subject"":""3"",""gender"":""1"",""handedness"":""1"",""chinese"":""1""}","","","","","","","","","","","",""
"","survey-html-form","5","120242","0.0-5.0","b887zhcn25","many_one","0","direct_first","1","ll05ch11","1","24","2","1","3","1","","0","1","0","2216","","{}","","","","","","","","","","","",""
"","html-keyboard-response","6","124251","0.0-6.0-0.0-0.0","b887zhcn25","many_one","0","direct_first","1","ll05ch11","1","24","2","1","3","1","","0","1","0","null","","","<div class = 'row'><div class = 'column'><img src = 'category1/CS1.png' width = '70%;'></div><div class = 'column'><img src = 'usneg/9180.bmp' width = '100%;'></div></div>","null","neg","CS","CS","1","category1/CS1.png","","","","",""
"","html-keyboard-response","7","126757","0.0-6.0-0.0-0.1","b887zhcn25","many_one","0","direct_first","1","ll05ch11","1","24","2","1","3","1","","0","1","0","null","","","<div class = 'row'><div class = 'column'><img src = 'category1/CS9.png' width = '70%;'></div><div class = 'column'><img src = 'usneg/9280.bmp' width = '100%;'></div></div>","null","neg","CS","CS","1","category1/CS9.png","","","","",""
"","html-keyboard-response","8","129262","0.0-6.0-0.0-0.2","b887zhcn25","many_one","0","direct_first","1","ll05ch11","1","24","2","1","3","1","","0","1","0","null","","","<div class = 'row'><div class = 'column'><img src = 'category2/CS8.png' width = '70%;'></div><div class = 'column'><img src = 'uspos/2030.bmp' width = '100%;'></div></div>","null","pos","CS","CS","2","category2/CS8.png","","","","",""
"","html-keyboard-response","9","131768","0.0-6.0-0.0-0.3","b887zhcn25","many_one","0","direct_first","1","ll05ch11","1","24","2","1","3","1","","0","1","0","null","","","<div class = 'row'><div class = 'column'><img src = 'uspos/2165.bmp' width = '100%;'></div><div class = 'column'><img src = 'category4/CS5.png' width = '70%;'></div></div>","null","pos","CS","CS","4","category4/CS5.png","","","","",""
"","html-keyboard-response","10","134273","0.0-6.0-0.0-0.4","b887zhcn25","many_one","0","direct_first","1","ll05ch11","1","24","2","1","3","1","","0","1","0","null","","","<div class = 'row'><div class = 'column'><img src = 'category1/CS5.png' width = '70%;'></div><div class = 'column'><img src = 'usneg/9041.bmp' width = '100%;'></div></div>","null","neg","CS","CS","1","category1/CS5.png","","","","",""
"","html-keyboard-response","11","136779","0.0-6.0-0.0-0.5","b887zhcn25","many_one","0","direct_first","1","ll05ch11","1","24","2","1","3","1","","0","1","0","null","","","<div class = 'row'><div class = 'column'><img src = 'category4/CS9.png' width = '70%;'></div><div class = 'column'><img src = 'uspos/8350.bmp' width = '100%;'></div></div>","null","pos","CS","CS","4","category4/CS9.png","","","","",""
"","html-keyboard-response","12","139288","0.0-6.0-0.0-0.6","b887zhcn25","many_one","0","direct_first","1","ll05ch11","1","24","2","1","3","1","","0","1","0","null","","","<div class = 'row'><div class = 'column'><img src = 'category4/CS2.png' width = '70%;'></div><div class = 'column'><img src = 'uspos/2900.2.bmp' width = '100%;'></div></div>","null","pos","CS","CS","4","category4/CS2.png","","","","",""
"","html-keyboard-response","13","141792","0.0-6.0-0.0-0.7","b887zhcn25","many_one","0","direct_first","1","ll05ch11","1","24","2","1","3","1","","0","1","0","null","","","<div class = 'row'><div class = 'column'><img src = 'uspos/5831.bmp' width = '100%;'></div><div class = 'column'><img src = 'category2/CS4.png' width = '70%;'></div></div>","null","pos","CS","CS","2","category2/CS4.png","","","","",""
"","html-keyboard-response","14","144295","0.0-6.0-0.0-0.8","b887zhcn25","many_one","0","direct_first","1","ll05ch11","1","24","2","1","3","1","","0","1","0","null","","","<div class = 'row'><div class = 'column'><img src = 'category1/CS3.png' width = '70%;'></div><div class = 'column'><img src = 'usneg/3181.bmp' width = '100%;'></div></div>","null","neg","CS","CS","1","category1/CS3.png","","","","",""
"","html-keyboard-response","15","146800","0.0-6.0-0.0-0.9","b887zhcn25","many_one","0","direct_first","1","ll05ch11","1","24","2","1","3","1","","0","1","0","null","","","<div class = 'row'><div class = 'column'><img src = 'category3/CS7.png' width = '70%;'></div><div class = 'column'><img src = 'usneg/9435.bmp' width = '100%;'></div></div>","null","neg","CS","CS","3","category3/CS7.png","","","","",""
"","html-keyboard-response","16","149308","0.0-6.0-0.0-0.10","b887zhcn25","many_one","0","direct_first","1","ll05ch11","1","24","2","1","3","1","","0","1","0","null","","","<div class = 'row'><div class = 'column'><img src = 'uspos/4599.bmp' width = '100%;'></div><div class = 'column'><img src = 'category4/CS1.png' width = '70%;'></div></div>","null","pos","CS","CS","4","category4/CS1.png","","","","",""
"","html-keyboard-response","17","151811","0.0-6.0-0.0-0.11","b887zhcn25","many_one","0","direct_first","1","ll05ch11","1","24","2","1","3","1","","0","1","0","null","","","<div class = 'row'><div class = 'column'><img src = 'category2/CS7.png' width = '70%;'></div><div class = 'column'><img src = 'uspos/5600.bmp' width = '100%;'></div></div>","null","pos","CS","CS","2","category2/CS7.png","","","","",""
"","html-keyboard-response","18","154315","0.0-6.0-0.0-0.12","b887zhcn25","many_one","0","direct_first","1","ll05ch11","1","24","2","1","3","1","","0","1","0","null","","","<div class = 'row'><div class = 'column'><img src = 'category1/CS7.png' width = '70%;'></div><div class = 'column'><img src = 'usneg/1280.bmp' width = '100%;'></div></div>","null","neg","CS","CS","1","category1/CS7.png","","","","",""
"","html-keyboard-response","19","156817","0.0-6.0-0.0-0.13","b887zhcn25","many_one","0","direct_first","1","ll05ch11","1","24","2","1","3","1","","0","1","0","null","","","<div class = 'row'><div class = 'column'><img src = 'category4/CS7.png' width = '70%;'></div><div class = 'column'><img src = 'uspos/5470.bmp' width = '100%;'></div></div>","null","pos","CS","CS","4","category4/CS7.png","","","","",""
"","html-keyboard-response","20","159321","0.0-6.0-0.0-0.14","b887zhcn25","many_one","0","direct_first","1","ll05ch11","1","24","2","1","3","1","","0","1","0","null","","","<div class = 'row'><div class = 'column'><img src = 'uspos/2057.bmp' width = '100%;'></div><div class = 'column'><img src = 'category2/CS2.png' width = '70%;'></div></div>","null","pos","CS","CS","2","category2/CS2.png","","","","",""
"","html-keyboard-response","21","161823","0.0-6.0-0.0-0.15","b887zhcn25","many_one","0","direct_first","1","ll05ch11","1","24","2","1","3","1","","0","1","0","null","","","<div class = 'row'><div class = 'column'><img src = 'category3/CS10.png' width = '70%;'></div><div class = 'column'><img src = 'usneg/2141.bmp' width = '100%;'></div></div>","null","neg","CS","CS","3","category3/CS10.png","","","","",""
"","html-keyboard-response","22","164328","0.0-6.0-0.0-0.16","b887zhcn25","many_one","0","direct_first","1","ll05ch11","1","24","2","1","3","1","","0","1","0","null","","","<div class = 'row'><div class = 'column'><img src = 'usneg/7380.bmp' width = '100%;'></div><div class = 'column'><img src = 'category3/CS8.png' width = '70%;'></div></div>","null","neg","CS","CS","3","category3/CS8.png","","","","",""
"","html-keyboard-response","23","166831","0.0-6.0-0.0-0.17","b887zhcn25","many_one","0","direct_first","1","ll05ch11","1","24","2","1","3","1","","0","1","0","null","","","<div class = 'row'><div class = 'column'><img src = 'category3/CS2.png' width = '70%;'></div><div class = 'column'><img src = 'usneg/9220.bmp' width = '100%;'></div></div>","null","neg","CS","CS","3","category3/CS2.png","","","","",""
"","html-keyboard-response","24","169334","0.0-6.0-0.0-0.18","b887zhcn25","many_one","0","direct_first","1","ll05ch11","1","24","2","1","3","1","","0","1","0","null","","","<div class = 'row'><div class = 'column'><img src = 'uspos/8540.bmp' width = '100%;'></div><div class = 'column'><img src = 'category2/CS5.png' width = '70%;'></div></div>","null","pos","CS","CS","2","category2/CS5.png","","","","",""
"","html-keyboard-response","25","171842","0.0-6.0-0.0-0.19","b887zhcn25","many_one","0","direct_first","1","ll05ch11","1","24","2","1","3","1","","0","1","0","null","","","<div class = 'row'><div class = 'column'><img src = 'category3/CS4.png' width = '70%;'></div><div class = 'column'><img src = 'usneg/9561.bmp' width = '100%;'></div></div>","null","neg","CS","CS","3","category3/CS4.png","","","","",""
"","survey-html-form","26","174685","0.0-6.0-1.0","b887zhcn25","many_one","0","direct_first","1","ll05ch11","1","24","2","1","3","1","","0","1","0","2342","","{}","","","","","","","","","","","",""
"","html-keyboard-response","27","178691","0.0-6.0-2.0-0.0","b887zhcn25","many_one","0","direct_first","1","ll05ch11","1","24","2","1","3","1","","0","1","0","null","","","<div class = 'row'><div class = 'column'><img src = 'usneg/3181.bmp' width = '100%;'></div><div class = 'column'><img src = 'category1/CS3.png' width = '70%;'></div></div>","null","neg","CS","CS","1","category1/CS3.png","","","","",""
"","html-keyboard-response","28","181193","0.0-6.0-2.0-0.1","b887zhcn25","many_one","0","direct_first","1","ll05ch11","1","24","2","1","3","1","","0","1","0","null","","","<div class = 'row'><div class = 'column'><img src = 'category2/CS2.png' width = '70%;'></div><div class = 'column'><img src = 'uspos/2057.bmp' width = '100%;'></div></div>","null","pos","CS","CS","2","category2/CS2.png","","","","",""
"","html-keyboard-response","29","183695","0.0-6.0-2.0-0.2","b887zhcn25","many_one","0","direct_first","1","ll05ch11","1","24","2","1","3","1","","0","1","0","null","","","<div class = 'row'><div class = 'column'><img src = 'category3/CS2.png' width = '70%;'></div><div class = 'column'><img src = 'usneg/9220.bmp' width = '100%;'></div></div>","null","neg","CS","CS","3","category3/CS2.png","","","","",""
"","html-keyboard-response","30","186199","0.0-6.0-2.0-0.3","b887zhcn25","many_one","0","direct_first","1","ll05ch11","1","24","2","1","3","1","","0","1","0","null","","","<div class = 'row'><div class = 'column'><img src = 'category4/CS2.png' width = '70%;'></div><div class = 'column'><img src = 'uspos/2900.2.bmp' width = '100%;'></div></div>","null","pos","CS","CS","4","category4/CS2.png","","","","",""
"","html-keyboard-response","31","188705","0.0-6.0-2.0-0.4","b887zhcn25","many_one","0","direct_first","1","ll05ch11","1","24","2","1","3","1","","0","1","0","null","","","<div class = 'row'><div class = 'column'><img src = 'uspos/5600.bmp' width = '100%;'></div><div class = 'column'><img src = 'category2/CS7.png' width = '70%;'></div></div>","null","pos","CS","CS","2","category2/CS7.png","","","","",""
"","html-keyboard-response","32","191209","0.0-6.0-2.0-0.5","b887zhcn25","many_one","0","direct_first","1","ll05ch11","1","24","2","1","3","1","","0","1","0","null","","","<div class = 'row'><div class = 'column'><img src = 'usneg/1280.bmp' width = '100%;'></div><div class = 'column'><img src = 'category1/CS7.png' width = '70%;'></div></div>","null","neg","CS","CS","1","category1/CS7.png","","","","",""
"","html-keyboard-response","33","193712","0.0-6.0-2.0-0.6","b887zhcn25","many_one","0","direct_first","1","ll05ch11","1","24","2","1","3","1","","0","1","0","null","","","<div class = 'row'><div class = 'column'><img src = 'category1/CS1.png' width = '70%;'></div><div class = 'column'><img src = 'usneg/9180.bmp' width = '100%;'></div></div>","null","neg","CS","CS","1","category1/CS1.png","","","","",""
"","html-keyboard-response","34","196218","0.0-6.0-2.0-0.7","b887zhcn25","many_one","0","direct_first","1","ll05ch11","1","24","2","1","3","1","","0","1","0","null","","","<div class = 'row'><div class = 'column'><img src = 'category3/CS4.png' width = '70%;'></div><div class = 'column'><img src = 'usneg/9561.bmp' width = '100%;'></div></div>","null","neg","CS","CS","3","category3/CS4.png","","","","",""
"","html-keyboard-response","35","198722","0.0-6.0-2.0-0.8","b887zhcn25","many_one","0","direct_first","1","ll05ch11","1","24","2","1","3","1","","0","1","0","null","","","<div class = 'row'><div class = 'column'><img src = 'usneg/2141.bmp' width = '100%;'></div><div class = 'column'><img src = 'category3/CS10.png' width = '70%;'></div></div>","null","neg","CS","CS","3","category3/CS10.png","","","","",""
"","html-keyboard-response","36","201226","0.0-6.0-2.0-0.9","b887zhcn25","many_one","0","direct_first","1","ll05ch11","1","24","2","1","3","1","","0","1","0","null","","","<div class = 'row'><div class = 'column'><img src = 'category1/CS5.png' width = '70%;'></div><div class = 'column'><img src = 'usneg/9041.bmp' width = '100%;'></div></div>","null","neg","CS","CS","1","category1/CS5.png","","","","",""
"","html-keyboard-response","37","203732","0.0-6.0-2.0-0.10","b887zhcn25","many_one","0","direct_first","1","ll05ch11","1","24","2","1","3","1","","0","1","0","null","","","<div class = 'row'><div class = 'column'><img src = 'usneg/9280.bmp' width = '100%;'></div><div class = 'column'><img src = 'category1/CS9.png' width = '70%;'></div></div>","null","neg","CS","CS","1","category1/CS9.png","","","","",""
"","html-keyboard-response","38","206234","0.0-6.0-2.0-0.11","b887zhcn25","many_one","0","direct_first","1","ll05ch11","1","24","2","1","3","1","","0","1","0","null","","","<div class = 'row'><div class = 'column'><img src = 'usneg/9435.bmp' width = '100%;'></div><div class = 'column'><img src = 'category3/CS7.png' width = '70%;'></div></div>","null","neg","CS","CS","3","category3/CS7.png","","","","",""
"","html-keyboard-response","39","208739","0.0-6.0-2.0-0.12","b887zhcn25","many_one","0","direct_first","1","ll05ch11","1","24","2","1","3","1","","0","1","0","null","","","<div class = 'row'><div class = 'column'><img src = 'uspos/8540.bmp' width = '100%;'></div><div class = 'column'><img src = 'category2/CS5.png' width = '70%;'></div></div>","null","pos","CS","CS","2","category2/CS5.png","","","","",""
"","html-keyboard-response","40","211243","0.0-6.0-2.0-0.13","b887zhcn25","many_one","0","direct_first","1","ll05ch11","1","24","2","1","3","1","","0","1","0","null","","","<div class = 'row'><div class = 'column'><img src = 'category3/CS8.png' width = '70%;'></div><div class = 'column'><img src = 'usneg/7380.bmp' width = '100%;'></div></div>","null","neg","CS","CS","3","category3/CS8.png","","","","",""
"","html-keyboard-response","41","213746","0.0-6.0-2.0-0.14","b887zhcn25","many_one","0","direct_first","1","ll05ch11","1","24","2","1","3","1","","0","1","0","null","","","<div class = 'row'><div class = 'column'><img src = 'uspos/2030.bmp' width = '100%;'></div><div class = 'column'><img src = 'category2/CS8.png' width = '70%;'></div></div>","null","pos","CS","CS","2","category2/CS8.png","","","","",""
"","html-keyboard-response","42","216249","0.0-6.0-2.0-0.15","b887zhcn25","many_one","0","direct_first","1","ll05ch11","1","24","2","1","3","1","","0","1","0","null","","","<div class = 'row'><div class = 'column'><img src = 'category4/CS1.png' width = '70%;'></div><div class = 'column'><img src = 'uspos/4599.bmp' width = '100%;'></div></div>","null","pos","CS","CS","4","category4/CS1.png","","","","",""
"","html-keyboard-response","43","218755","0.0-6.0-2.0-0.16","b887zhcn25","many_one","0","direct_first","1","ll05ch11","1","24","2","1","3","1","","0","1","0","null","","","<div class = 'row'><div class = 'column'><img src = 'uspos/8350.bmp' width = '100%;'></div><div class = 'column'><img src = 'category4/CS9.png' width = '70%;'></div></div>","null","pos","CS","CS","4","category4/CS9.png","","","","",""
"","html-keyboard-response","44","221258","0.0-6.0-2.0-0.17","b887zhcn25","many_one","0","direct_first","1","ll05ch11","1","24","2","1","3","1","","0","1","0","null","","","<div class = 'row'><div class = 'column'><img src = 'uspos/5831.bmp' width = '100%;'></div><div class = 'column'><img src = 'category2/CS4.png' width = '70%;'></div></div>","null","pos","CS","CS","2","category2/CS4.png","","","","",""
"","html-keyboard-response","45","223759","0.0-6.0-2.0-0.18","b887zhcn25","many_one","0","direct_first","1","ll05ch11","1","24","2","1","3","1","","0","1","0","null","","","<div class = 'row'><div class = 'column'><img src = 'uspos/5470.bmp' width = '100%;'></div><div class = 'column'><img src = 'category4/CS7.png' width = '70%;'></div></div>","null","pos","CS","CS","4","category4/CS7.png","","","","",""
"","html-keyboard-response","46","226264","0.0-6.0-2.0-0.19","b887zhcn25","many_one","0","direct_first","1","ll05ch11","1","24","2","1","3","1","","0","1","0","null","","","<div class = 'row'><div class = 'column'><img src = 'category4/CS5.png' width = '70%;'></div><div class = 'column'><img src = 'uspos/2165.bmp' width = '100%;'></div></div>","null","pos","CS","CS","4","category4/CS5.png","","","","",""
"","survey-html-form","47","229083","0.0-6.0-3.0","b887zhcn25","many_one","0","direct_first","1","ll05ch11","1","24","2","1","3","1","","0","1","0","2316","","{}","","","","","","","","","","","",""
"","html-keyboard-response","48","233090","0.0-6.0-4.0-0.0","b887zhcn25","many_one","0","direct_first","1","ll05ch11","1","24","2","1","3","1","","0","1","0","null","","","<div class = 'row'><div class = 'column'><img src = 'category3/CS10.png' width = '70%;'></div><div class = 'column'><img src = 'usneg/2141.bmp' width = '100%;'></div></div>","null","neg","CS","CS","3","category3/CS10.png","","","","",""
"","html-keyboard-response","49","235597","0.0-6.0-4.0-0.1","b887zhcn25","many_one","0","direct_first","1","ll05ch11","1","24","2","1","3","1","","0","1","0","null","","","<div class = 'row'><div class = 'column'><img src = 'category3/CS4.png' width = '70%;'></div><div class = 'column'><img src = 'usneg/9561.bmp' width = '100%;'></div></div>","null","neg","CS","CS","3","category3/CS4.png","","","","",""
"","html-keyboard-response","50","238102","0.0-6.0-4.0-0.2","b887zhcn25","many_one","0","direct_first","1","ll05ch11","1","24","2","1","3","1","","0","1","0","null","","","<div class = 'row'><div class = 'column'><img src = 'uspos/2165.bmp' width = '100%;'></div><div class = 'column'><img src = 'category4/CS5.png' width = '70%;'></div></div>","null","pos","CS","CS","4","category4/CS5.png","","","","",""
"","html-keyboard-response","51","240607","0.0-6.0-4.0-0.3","b887zhcn25","many_one","0","direct_first","1","ll05ch11","1","24","2","1","3","1","","0","1","0","null","","","<div class = 'row'><div class = 'column'><img src = 'uspos/2030.bmp' width = '100%;'></div><div class = 'column'><img src = 'category2/CS8.png' width = '70%;'></div></div>","null","pos","CS","CS","2","category2/CS8.png","","","","",""
"","html-keyboard-response","52","243113","0.0-6.0-4.0-0.4","b887zhcn25","many_one","0","direct_first","1","ll05ch11","1","24","2","1","3","1","","0","1","0","null","","","<div class = 'row'><div class = 'column'><img src = 'uspos/5600.bmp' width = '100%;'></div><div class = 'column'><img src = 'category2/CS7.png' width = '70%;'></div></div>","null","pos","CS","CS","2","category2/CS7.png","","","","",""
"","html-keyboard-response","53","245619","0.0-6.0-4.0-0.5","b887zhcn25","many_one","0","direct_first","1","ll05ch11","1","24","2","1","3","1","","0","1","0","null","","","<div class = 'row'><div class = 'column'><img src = 'category1/CS3.png' width = '70%;'></div><div class = 'column'><img src = 'usneg/3181.bmp' width = '100%;'></div></div>","null","neg","CS","CS","1","category1/CS3.png","","","","",""
"","html-keyboard-response","54","248126","0.0-6.0-4.0-0.6","b887zhcn25","many_one","0","direct_first","1","ll05ch11","1","24","2","1","3","1","","0","1","0","null","","","<div class = 'row'><div class = 'column'><img src = 'uspos/8350.bmp' width = '100%;'></div><div class = 'column'><img src = 'category4/CS9.png' width = '70%;'></div></div>","null","pos","CS","CS","4","category4/CS9.png","","","","",""
"","html-keyboard-response","55","250630","0.0-6.0-4.0-0.7","b887zhcn25","many_one","0","direct_first","1","ll05ch11","1","24","2","1","3","1","","0","1","0","null","","","<div class = 'row'><div class = 'column'><img src = 'usneg/9435.bmp' width = '100%;'></div><div class = 'column'><img src = 'category3/CS7.png' width = '70%;'></div></div>","null","neg","CS","CS","3","category3/CS7.png","","","","",""
"","html-keyboard-response","56","253135","0.0-6.0-4.0-0.8","b887zhcn25","many_one","0","direct_first","1","ll05ch11","1","24","2","1","3","1","","0","1","0","null","","","<div class = 'row'><div class = 'column'><img src = 'category1/CS9.png' width = '70%;'></div><div class = 'column'><img src = 'usneg/9280.bmp' width = '100%;'></div></div>","null","neg","CS","CS","1","category1/CS9.png","","","","",""
"","html-keyboard-response","57","255640","0.0-6.0-4.0-0.9","b887zhcn25","many_one","0","direct_first","1","ll05ch11","1","24","2","1","3","1","","0","1","0","null","","","<div class = 'row'><div class = 'column'><img src = 'category1/CS7.png' width = '70%;'></div><div class = 'column'><img src = 'usneg/1280.bmp' width = '100%;'></div></div>","null","neg","CS","CS","1","category1/CS7.png","","","","",""
"","html-keyboard-response","58","258146","0.0-6.0-4.0-0.10","b887zhcn25","many_one","0","direct_first","1","ll05ch11","1","24","2","1","3","1","","0","1","0","null","","","<div class = 'row'><div class = 'column'><img src = 'uspos/5831.bmp' width = '100%;'></div><div class = 'column'><img src = 'category2/CS4.png' width = '70%;'></div></div>","null","pos","CS","CS","2","category2/CS4.png","","","","",""
"","html-keyboard-response","59","260653","0.0-6.0-4.0-0.11","b887zhcn25","many_one","0","direct_first","1","ll05ch11","1","24","2","1","3","1","","0","1","0","null","","","<div class = 'row'><div class = 'column'><img src = 'uspos/2900.2.bmp' width = '100%;'></div><div class = 'column'><img src = 'category4/CS2.png' width = '70%;'></div></div>","null","pos","CS","CS","4","category4/CS2.png","","","","",""
"","html-keyboard-response","60","263159","0.0-6.0-4.0-0.12","b887zhcn25","many_one","0","direct_first","1","ll05ch11","1","24","2","1","3","1","","0","1","0","null","","","<div class = 'row'><div class = 'column'><img src = 'category4/CS7.png' width = '70%;'></div><div class = 'column'><img src = 'uspos/5470.bmp' width = '100%;'></div></div>","null","pos","CS","CS","4","category4/CS7.png","","","","",""
"","html-keyboard-response","61","265662","0.0-6.0-4.0-0.13","b887zhcn25","many_one","0","direct_first","1","ll05ch11","1","24","2","1","3","1","","0","1","0","null","","","<div class = 'row'><div class = 'column'><img src = 'usneg/9220.bmp' width = '100%;'></div><div class = 'column'><img src = 'category3/CS2.png' width = '70%;'></div></div>","null","neg","CS","CS","3","category3/CS2.png","","","","",""
"","html-keyboard-response","62","268167","0.0-6.0-4.0-0.14","b887zhcn25","many_one","0","direct_first","1","ll05ch11","1","24","2","1","3","1","","0","1","0","null","","","<div class = 'row'><div class = 'column'><img src = 'usneg/7380.bmp' width = '100%;'></div><div class = 'column'><img src = 'category3/CS8.png' width = '70%;'></div></div>","null","neg","CS","CS","3","category3/CS8.png","","","","",""
"","html-keyboard-response","63","270671","0.0-6.0-4.0-0.15","b887zhcn25","many_one","0","direct_first","1","ll05ch11","1","24","2","1","3","1","","0","1","0","null","","","<div class = 'row'><div class = 'column'><img src = 'uspos/2057.bmp' width = '100%;'></div><div class = 'column'><img src = 'category2/CS2.png' width = '70%;'></div></div>","null","pos","CS","CS","2","category2/CS2.png","","","","",""
"","html-keyboard-response","64","273176","0.0-6.0-4.0-0.16","b887zhcn25","many_one","0","direct_first","1","ll05ch11","1","24","2","1","3","1","","0","1","0","null","","","<div class = 'row'><div class = 'column'><img src = 'category2/CS5.png' width = '70%;'></div><div class = 'column'><img src = 'uspos/8540.bmp' width = '100%;'></div></div>","null","pos","CS","CS","2","category2/CS5.png","","","","",""
"","html-keyboard-response","65","275681","0.0-6.0-4.0-0.17","b887zhcn25","many_one","0","direct_first","1","ll05ch11","1","24","2","1","3","1","","0","1","0","null","","","<div class = 'row'><div class = 'column'><img src = 'usneg/9180.bmp' width = '100%;'></div><div class = 'column'><img src = 'category1/CS1.png' width = '70%;'></div></div>","null","neg","CS","CS","1","category1/CS1.png","","","","",""
"","html-keyboard-response","66","278187","0.0-6.0-4.0-0.18","b887zhcn25","many_one","0","direct_first","1","ll05ch11","1","24","2","1","3","1","","0","1","0","null","","","<div class = 'row'><div class = 'column'><img src = 'category1/CS5.png' width = '70%;'></div><div class = 'column'><img src = 'usneg/9041.bmp' width = '100%;'></div></div>","null","neg","CS","CS","1","category1/CS5.png","","","","",""
"","html-keyboard-response","67","280692","0.0-6.0-4.0-0.19","b887zhcn25","many_one","0","direct_first","1","ll05ch11","1","24","2","1","3","1","","0","1","0","null","","","<div class = 'row'><div class = 'column'><img src = 'category4/CS1.png' width = '70%;'></div><div class = 'column'><img src = 'uspos/4599.bmp' width = '100%;'></div></div>","null","pos","CS","CS","4","category4/CS1.png","","","","",""
"","survey-html-form","68","287740","0.0-6.0-5.0","b887zhcn25","many_one","0","direct_first","1","ll05ch11","1","24","2","1","3","1","","0","1","0","6547","","{}","","","","","","","","","","","",""
"","html-keyboard-response","69","291746","0.0-6.0-6.0-0.0","b887zhcn25","many_one","0","direct_first","1","ll05ch11","1","24","2","1","3","1","","0","1","0","null","","","<div class = 'row'><div class = 'column'><img src = 'category3/CS2.png' width = '70%;'></div><div class = 'column'><img src = 'usneg/9220.bmp' width = '100%;'></div></div>","null","neg","CS","CS","3","category3/CS2.png","","","","",""
"","html-keyboard-response","70","294252","0.0-6.0-6.0-0.1","b887zhcn25","many_one","0","direct_first","1","ll05ch11","1","24","2","1","3","1","","0","1","0","null","","","<div class = 'row'><div class = 'column'><img src = 'category1/CS7.png' width = '70%;'></div><div class = 'column'><img src = 'usneg/1280.bmp' width = '100%;'></div></div>","null","neg","CS","CS","1","category1/CS7.png","","","","",""
"","html-keyboard-response","71","296758","0.0-6.0-6.0-0.2","b887zhcn25","many_one","0","direct_first","1","ll05ch11","1","24","2","1","3","1","","0","1","0","null","","","<div class = 'row'><div class = 'column'><img src = 'usneg/3181.bmp' width = '100%;'></div><div class = 'column'><img src = 'category1/CS3.png' width = '70%;'></div></div>","null","neg","CS","CS","1","category1/CS3.png","","","","",""
"","html-keyboard-response","72","299261","0.0-6.0-6.0-0.3","b887zhcn25","many_one","0","direct_first","1","ll05ch11","1","24","2","1","3","1","","0","1","0","null","","","<div class = 'row'><div class = 'column'><img src = 'category3/CS7.png' width = '70%;'></div><div class = 'column'><img src = 'usneg/9435.bmp' width = '100%;'></div></div>","null","neg","CS","CS","3","category3/CS7.png","","","","",""
"","html-keyboard-response","73","301767","0.0-6.0-6.0-0.4","b887zhcn25","many_one","0","direct_first","1","ll05ch11","1","24","2","1","3","1","","0","1","0","null","","","<div class = 'row'><div class = 'column'><img src = 'uspos/8540.bmp' width = '100%;'></div><div class = 'column'><img src = 'category2/CS5.png' width = '70%;'></div></div>","null","pos","CS","CS","2","category2/CS5.png","","","","",""
"","html-keyboard-response","74","304270","0.0-6.0-6.0-0.5","b887zhcn25","many_one","0","direct_first","1","ll05ch11","1","24","2","1","3","1","","0","1","0","null","","","<div class = 'row'><div class = 'column'><img src = 'category1/CS9.png' width = '70%;'></div><div class = 'column'><img src = 'usneg/9280.bmp' width = '100%;'></div></div>","null","neg","CS","CS","1","category1/CS9.png","","","","",""
"","html-keyboard-response","75","306776","0.0-6.0-6.0-0.6","b887zhcn25","many_one","0","direct_first","1","ll05ch11","1","24","2","1","3","1","","0","1","0","null","","","<div class = 'row'><div class = 'column'><img src = 'category4/CS5.png' width = '70%;'></div><div class = 'column'><img src = 'uspos/2165.bmp' width = '100%;'></div></div>","null","pos","CS","CS","4","category4/CS5.png","","","","",""
"","html-keyboard-response","76","309278","0.0-6.0-6.0-0.7","b887zhcn25","many_one","0","direct_first","1","ll05ch11","1","24","2","1","3","1","","0","1","0","null","","","<div class = 'row'><div class = 'column'><img src = 'category2/CS7.png' width = '70%;'></div><div class = 'column'><img src = 'uspos/5600.bmp' width = '100%;'></div></div>","null","pos","CS","CS","2","category2/CS7.png","","","","",""
"","html-keyboard-response","77","311781","0.0-6.0-6.0-0.8","b887zhcn25","many_one","0","direct_first","1","ll05ch11","1","24","2","1","3","1","","0","1","0","null","","","<div class = 'row'><div class = 'column'><img src = 'category4/CS1.png' width = '70%;'></div><div class = 'column'><img src = 'uspos/4599.bmp' width = '100%;'></div></div>","null","pos","CS","CS","4","category4/CS1.png","","","","",""
"","html-keyboard-response","78","314284","0.0-6.0-6.0-0.9","b887zhcn25","many_one","0","direct_first","1","ll05ch11","1","24","2","1","3","1","","0","1","0","null","","","<div class = 'row'><div class = 'column'><img src = 'uspos/2030.bmp' width = '100%;'></div><div class = 'column'><img src = 'category2/CS8.png' width = '70%;'></div></div>","null","pos","CS","CS","2","category2/CS8.png","","","","",""
"","html-keyboard-response","79","316789","0.0-6.0-6.0-0.10","b887zhcn25","many_one","0","direct_first","1","ll05ch11","1","24","2","1","3","1","","0","1","0","null","","","<div class = 'row'><div class = 'column'><img src = 'category3/CS8.png' width = '70%;'></div><div class = 'column'><img src = 'usneg/7380.bmp' width = '100%;'></div></div>","null","neg","CS","CS","3","category3/CS8.png","","","","",""
"","html-keyboard-response","80","319291","0.0-6.0-6.0-0.11","b887zhcn25","many_one","0","direct_first","1","ll05ch11","1","24","2","1","3","1","","0","1","0","null","","","<div class = 'row'><div class = 'column'><img src = 'uspos/5470.bmp' width = '100%;'></div><div class = 'column'><img src = 'category4/CS7.png' width = '70%;'></div></div>","null","pos","CS","CS","4","category4/CS7.png","","","","",""
"","html-keyboard-response","81","321796","0.0-6.0-6.0-0.12","b887zhcn25","many_one","0","direct_first","1","ll05ch11","1","24","2","1","3","1","","0","1","0","null","","","<div class = 'row'><div class = 'column'><img src = 'usneg/9561.bmp' width = '100%;'></div><div class = 'column'><img src = 'category3/CS4.png' width = '70%;'></div></div>","null","neg","CS","CS","3","category3/CS4.png","","","","",""
"","html-keyboard-response","82","324298","0.0-6.0-6.0-0.13","b887zhcn25","many_one","0","direct_first","1","ll05ch11","1","24","2","1","3","1","","0","1","0","null","","","<div class = 'row'><div class = 'column'><img src = 'category2/CS2.png' width = '70%;'></div><div class = 'column'><img src = 'uspos/2057.bmp' width = '100%;'></div></div>","null","pos","CS","CS","2","category2/CS2.png","","","","",""
"","html-keyboard-response","83","326801","0.0-6.0-6.0-0.14","b887zhcn25","many_one","0","direct_first","1","ll05ch11","1","24","2","1","3","1","","0","1","0","null","","","<div class = 'row'><div class = 'column'><img src = 'category4/CS2.png' width = '70%;'></div><div class = 'column'><img src = 'uspos/2900.2.bmp' width = '100%;'></div></div>","null","pos","CS","CS","4","category4/CS2.png","","","","",""
"","html-keyboard-response","84","329308","0.0-6.0-6.0-0.15","b887zhcn25","many_one","0","direct_first","1","ll05ch11","1","24","2","1","3","1","","0","1","0","null","","","<div class = 'row'><div class = 'column'><img src = 'category4/CS9.png' width = '70%;'></div><div class = 'column'><img src = 'uspos/8350.bmp' width = '100%;'></div></div>","null","pos","CS","CS","4","category4/CS9.png","","","","",""
"","html-keyboard-response","85","331812","0.0-6.0-6.0-0.16","b887zhcn25","many_one","0","direct_first","1","ll05ch11","1","24","2","1","3","1","","0","1","0","null","","","<div class = 'row'><div class = 'column'><img src = 'usneg/9180.bmp' width = '100%;'></div><div class = 'column'><img src = 'category1/CS1.png' width = '70%;'></div></div>","null","neg","CS","CS","1","category1/CS1.png","","","","",""
"","html-keyboard-response","86","334316","0.0-6.0-6.0-0.17","b887zhcn25","many_one","0","direct_first","1","ll05ch11","1","24","2","1","3","1","","0","1","0","null","","","<div class = 'row'><div class = 'column'><img src = 'category3/CS10.png' width = '70%;'></div><div class = 'column'><img src = 'usneg/2141.bmp' width = '100%;'></div></div>","null","neg","CS","CS","3","category3/CS10.png","","","","",""
"","html-keyboard-response","87","336823","0.0-6.0-6.0-0.18","b887zhcn25","many_one","0","direct_first","1","ll05ch11","1","24","2","1","3","1","","0","1","0","null","","","<div class = 'row'><div class = 'column'><img src = 'usneg/9041.bmp' width = '100%;'></div><div class = 'column'><img src = 'category1/CS5.png' width = '70%;'></div></div>","null","neg","CS","CS","1","category1/CS5.png","","","","",""
"","html-keyboard-response","88","339329","0.0-6.0-6.0-0.19","b887zhcn25","many_one","0","direct_first","1","ll05ch11","1","24","2","1","3","1","","0","1","0","null","","","<div class = 'row'><div class = 'column'><img src = 'uspos/5831.bmp' width = '100%;'></div><div class = 'column'><img src = 'category2/CS4.png' width = '70%;'></div></div>","null","pos","CS","CS","2","category2/CS4.png","","","","",""
"","survey-html-form","89","348425","0.0-7.0","b887zhcn25","many_one","0","direct_first","1","ll05ch11","1","24","2","1","3","1","","0","1","0","8595","","{}","","","","","","","","","","","",""
"","image-slider-response","90","357170","0.0-8.0-0.0","b887zhcn25","many_one","0","direct_first","1","ll05ch11","1","24","2","1","3","1","","0","1","0","6727","","","","","neg","GS","GSold","1","category1/CS2.png","-89","targets/14.png","direct","",""
"","image-slider-response","91","363036","0.0-8.0-0.1","b887zhcn25","many_one","0","direct_first","1","ll05ch11","1","24","2","1","3","1","","0","1","0","5863","","","","","pos","CS","CS","2","category2/CS5.png","-10","targets/33.png","direct","",""
"","image-slider-response","92","368175","0.0-8.0-0.2","b887zhcn25","many_one","0","direct_first","1","ll05ch11","1","24","2","1","3","1","","0","1","0","5135","","","","","pos","GS","GSold","2","category2/CS1.png","68","targets/28.png","direct","",""
"","image-slider-response","93","372154","0.0-8.0-0.3","b887zhcn25","many_one","0","direct_first","1","ll05ch11","1","24","2","1","3","1","","0","1","0","3977","","","","","pos","CS","CS","4","category4/CS1.png","100","targets/17.png","direct","",""
"","image-slider-response","94","376340","0.0-8.0-0.4","b887zhcn25","many_one","0","direct_first","1","ll05ch11","1","24","2","1","3","1","","0","1","0","4182","","","","","neg","GS","GSnew","1","category1/GS1.png","26","targets/32.png","direct","",""
"","image-slider-response","95","380960","0.0-8.0-0.5","b887zhcn25","many_one","0","direct_first","1","ll05ch11","1","24","2","1","3","1","","0","1","0","4616","","","","","pos","GS","abstract","2","category2/men.png","-69","targets/21.png","direct","",""
"","image-slider-response","96","386801","0.0-8.0-0.6","b887zhcn25","many_one","0","direct_first","1","ll05ch11","1","24","2","1","3","1","","0","1","0","5837","","","","","pos","GS","GSnew","2","category2/GS1.png","-26","targets/8.png","direct","",""
"","image-slider-response","97","389790","0.0-8.0-0.7","b887zhcn25","many_one","0","direct_first","1","ll05ch11","1","24","2","1","3","1","","0","1","0","2985","","","","","pos","CS","CS","2","category2/CS2.png","-21","targets/11.png","direct","",""
"","image-slider-response","98","395360","0.0-8.0-0.8","b887zhcn25","many_one","0","direct_first","1","ll05ch11","1","24","2","1","3","1","","0","1","0","5566","","","","","neg","GS","GSnew","1","category1/GS2.png","-45","targets/7.png","direct","",""
"","image-slider-response","99","398700","0.0-8.0-0.9","b887zhcn25","many_one","0","direct_first","1","ll05ch11","1","24","2","1","3","1","","0","1","0","3334","","","","","pos","CS","CS","2","category2/CS8.png","51","targets/44.png","direct","",""
"","image-slider-response","100","403905","0.0-8.0-0.10","b887zhcn25","many_one","0","direct_first","1","ll05ch11","1","24","2","1","3","1","","0","1","0","5203","","","","","neg","GS","GSold","1","category1/CS10.png","-48","targets/39.png","direct","",""
"","image-slider-response","101","407462","0.0-8.0-0.11","b887zhcn25","many_one","0","direct_first","1","ll05ch11","1","24","2","1","3","1","","0","1","0","3554","","","","","pos","CS","CS","4","category4/CS2.png","62","targets/29.png","direct","",""
"","image-slider-response","102","411429","0.0-8.0-0.12","b887zhcn25","many_one","0","direct_first","1","ll05ch11","1","24","2","1","3","1","","0","1","0","3964","","","","","pos","GS","GSnew","4","category4/GS3.png","89","targets/20.png","direct","",""
"","image-slider-response","103","415517","0.0-8.0-0.13","b887zhcn25","many_one","0","direct_first","1","ll05ch11","1","24","2","1","3","1","","0","1","0","4085","","","","","neg","CS","CS","1","category1/CS3.png","-59","targets/41.png","direct","",""
"","image-slider-response","104","420093","0.0-8.0-0.14","b887zhcn25","many_one","0","direct_first","1","ll05ch11","1","24","2","1","3","1","","0","1","0","4573","","","","","pos","CS","CS","4","category4/CS9.png","-70","targets/36.png","direct","",""
"","image-slider-response","105","424783","0.0-8.0-0.15","b887zhcn25","many_one","0","direct_first","1","ll05ch11","1","24","2","1","3","1","","0","1","0","4687","","","","","neg","GS","GSnew","3","category3/GS1.png","-61","targets/13.png","direct","",""
"","image-slider-response","106","428777","0.0-8.0-0.16","b887zhcn25","many_one","0","direct_first","1","ll05ch11","1","24","2","1","3","1","","0","1","0","3990","","","","","neg","CS","CS","1","category1/CS5.png","-37","targets/27.png","direct","",""
"","image-slider-response","107","432283","0.0-8.0-0.17","b887zhcn25","many_one","0","direct_first","1","ll05ch11","1","24","2","1","3","1","","0","1","0","3503","","","","","pos","GS","abstract","4","category4/lin.png","100","targets/43.png","direct","",""
"","image-slider-response","108","436780","0.0-8.0-0.18","b887zhcn25","many_one","0","direct_first","1","ll05ch11","1","24","2","1","3","1","","0","1","0","4495","","","","","pos","GS","GSold","4","category4/CS4.png","76","targets/4.png","direct","",""
"","image-slider-response","109","440441","0.0-8.0-0.19","b887zhcn25","many_one","0","direct_first","1","ll05ch11","1","24","2","1","3","1","","0","1","0","3658","","","","","neg","GS","GSold","3","category3/CS1.png","-22","targets/3.png","direct","",""
"","image-slider-response","110","443427","0.0-8.0-0.20","b887zhcn25","many_one","0","direct_first","1","ll05ch11","1","24","2","1","3","1","","0","1","0","2983","","","","","neg","GS","abstract","1","category1/ma.png","21","targets/40.png","direct","",""
"","image-slider-response","111","447088","0.0-8.0-0.21","b887zhcn25","many_one","0","direct_first","1","ll05ch11","1","24","2","1","3","1","","0","1","0","3657","","","","","neg","CS","CS","3","category3/CS4.png","-50","targets/23.png","direct","",""
"","image-slider-response","112","450118","0.0-8.0-0.22","b887zhcn25","many_one","0","direct_first","1","ll05ch11","1","24","2","1","3","1","","0","1","0","3028","","","","","pos","GS","GSnew","2","category2/GS2.png","-29","targets/16.png","direct","",""
"","image-slider-response","113","453573","0.0-8.0-0.23","b887zhcn25","many_one","0","direct_first","1","ll05ch11","1","24","2","1","3","1","","0","1","0","3452","","","","","neg","CS","CS","1","category1/CS9.png","65","targets/31.png","direct","",""
"","image-slider-response","114","457793","0.0-8.0-0.24","b887zhcn25","many_one","0","direct_first","1","ll05ch11","1","24","2","1","3","1","","0","1","0","4216","","","","","pos","GS","GSold","2","category2/CS9.png","43","targets/1.png","direct","",""
"","image-slider-response","115","460576","0.0-8.0-0.25","b887zhcn25","many_one","0","direct_first","1","ll05ch11","1","24","2","1","3","1","","0","1","0","2779","","","","","pos","GS","GSnew","2","category2/GS3.png","29","targets/25.png","direct","",""
"","image-slider-response","116","468047","0.0-8.0-0.26","b887zhcn25","many_one","0","direct_first","1","ll05ch11","1","24","2","1","3","1","","0","1","0","7468","","","","","neg","GS","GSold","3","category3/CS3.png","0","targets/26.png","direct","",""
"","image-slider-response","117","471613","0.0-8.0-0.27","b887zhcn25","many_one","0","direct_first","1","ll05ch11","1","24","2","1","3","1","","0","1","0","3564","","","","","pos","CS","CS","2","category2/CS4.png","21","targets/9.png","direct","",""
"","image-slider-response","118","475480","0.0-8.0-0.28","b887zhcn25","many_one","0","direct_first","1","ll05ch11","1","24","2","1","3","1","","0","1","0","3864","","","","","pos","GS","GSold","4","category4/CS8.png","-67","targets/12.png","direct","",""
"","image-slider-response","119","480144","0.0-8.0-0.29","b887zhcn25","many_one","0","direct_first","1","ll05ch11","1","24","2","1","3","1","","0","1","0","4660","","","","","pos","GS","GSold","2","category2/CS6.png","-16","targets/47.png","direct","",""
"","image-slider-response","120","485241","0.0-8.0-0.30","b887zhcn25","many_one","0","direct_first","1","ll05ch11","1","24","2","1","3","1","","0","1","0","5093","","","","","neg","CS","CS","3","category3/CS10.png","-21","targets/46.png","direct","",""
"","image-slider-response","121","488824","0.0-8.0-0.31","b887zhcn25","many_one","0","direct_first","1","ll05ch11","1","24","2","1","3","1","","0","1","0","3580","","","","","neg","CS","CS","3","category3/CS7.png","-52","targets/37.png","direct","",""
"","image-slider-response","122","492696","0.0-8.0-0.32","b887zhcn25","many_one","0","direct_first","1","ll05ch11","1","24","2","1","3","1","","0","1","0","3868","","","","","pos","CS","CS","2","category2/CS7.png","-6","targets/30.png","direct","",""
"","image-slider-response","123","496042","0.0-8.0-0.33","b887zhcn25","many_one","0","direct_first","1","ll05ch11","1","24","2","1","3","1","","0","1","0","3343","","","","","neg","GS","GSold","1","category1/CS6.png","-48","targets/6.png","direct","",""
"","image-slider-response","124","500682","0.0-8.0-0.34","b887zhcn25","many_one","0","direct_first","1","ll05ch11","1","24","2","1","3","1","","0","1","0","4638","","","","","pos","CS","CS","4","category4/CS7.png","-16","targets/5.png","direct","",""
"","image-slider-response","125","503636","0.0-8.0-0.35","b887zhcn25","many_one","0","direct_first","1","ll05ch11","1","24","2","1","3","1","","0","1","0","2951","","","","","pos","GS","GSold","4","category4/CS3.png","70","targets/18.png","direct","",""
"","image-slider-response","126","508618","0.0-8.0-0.36","b887zhcn25","many_one","0","direct_first","1","ll05ch11","1","24","2","1","3","1","","0","1","0","4978","","","","","pos","GS","GSnew","4","category4/GS1.png","36","targets/42.png","direct","",""
"","image-slider-response","127","513383","0.0-8.0-0.37","b887zhcn25","many_one","0","direct_first","1","ll05ch11","1","24","2","1","3","1","","0","1","0","4762","","","","","pos","CS","CS","4","category4/CS5.png","-24","targets/48.png","direct","",""
"","image-slider-response","128","517214","0.0-8.0-0.38","b887zhcn25","many_one","0","direct_first","1","ll05ch11","1","24","2","1","3","1","","0","1","0","3829","","","","","neg","CS","CS","3","category3/CS8.png","22","targets/2.png","direct","",""
"","image-slider-response","129","524396","0.0-8.0-0.39","b887zhcn25","many_one","0","direct_first","1","ll05ch11","1","24","2","1","3","1","","0","1","0","7180","","","","","pos","GS","GSnew","4","category4/GS2.png","-87","targets/35.png","direct","",""
"","image-slider-response","130","530598","0.0-8.0-0.40","b887zhcn25","many_one","0","direct_first","1","ll05ch11","1","24","2","1","3","1","","0","1","0","6200","","","","","neg","GS","GSold","3","category3/CS9.png","85","targets/22.png","direct","",""
"","image-slider-response","131","534430","0.0-8.0-0.41","b887zhcn25","many_one","0","direct_first","1","ll05ch11","1","24","2","1","3","1","","0","1","0","3829","","","","","neg","CS","CS","1","category1/CS1.png","-34","targets/19.png","direct","",""
"","image-slider-response","132","537202","0.0-8.0-0.42","b887zhcn25","many_one","0","direct_first","1","ll05ch11","1","24","2","1","3","1","","0","1","0","2768","","","","","neg","GS","GSnew","3","category3/GS2.png","19","targets/34.png","direct","",""
"","image-slider-response","133","539576","0.0-8.0-0.43","b887zhcn25","many_one","0","direct_first","1","ll05ch11","1","24","2","1","3","1","","0","1","0","2369","","","","","neg","GS","GSnew","3","category3/GS3.png","34","targets/24.png","direct","",""
"","image-slider-response","134","543255","0.0-8.0-0.44","b887zhcn25","many_one","0","direct_first","1","ll05ch11","1","24","2","1","3","1","","0","1","0","3675","","","","","neg","GS","GSnew","1","category1/GS3.png","-50","targets/10.png","direct","",""
"","image-slider-response","135","546582","0.0-8.0-0.45","b887zhcn25","many_one","0","direct_first","1","ll05ch11","1","24","2","1","3","1","","0","1","0","3324","","","","","neg","CS","CS","3","category3/CS2.png","-69","targets/45.png","direct","",""
"","image-slider-response","136","550148","0.0-8.0-0.46","b887zhcn25","many_one","0","direct_first","1","ll05ch11","1","24","2","1","3","1","","0","1","0","3562","","","","","neg","GS","abstract","3","category3/wang.png","17","targets/38.png","direct","",""
"","image-slider-response","137","553041","0.0-8.0-0.47","b887zhcn25","many_one","0","direct_first","1","ll05ch11","1","24","2","1","3","1","","0","1","0","2887","","","","","neg","CS","CS","1","category1/CS7.png","-34","targets/15.png","direct","",""
"","html-keyboard-response","138","590722","0.0-9.0","b887zhcn25","many_one","0","direct_first","1","ll05ch11","1","24","2","1","3","1","","0","1","0","37677","","","<p>Sie sehen nun die chinesischen Zeichen nur ganz kurz. Danach sehen Sie die jeweilige Aussprache der Zeichen als Silbe auf dem Bildschrim. Ihre Aufgabe ist es, für jede Silbe anzugeben, ob diese etwas angenehmes, oder unangenehmes bedeuten könnte. Verlassen Sie sich hier vor allem auf Ihre Intuition.<br><br>Die Zeichen werden nur zur Orientierung dargestellt, beachten Sie sie deshalb nicht. Konzentrieren Sie sich vor allem auf die Silben. <br>Reagieren Sie mit folgenden zwei Tasten: <br><br><b>'D' </b> wenn die Silbe etwas <b>unangenehmes</b> bedeuten könnte. <br><b>'K'</b> wenn die Silbe etwas <b>angenehmes</b> bedeuten könnte. <br><br>Bitte legen Sie nun den Zeigefinger der linken Hand auf die Taste 'D' und den Zeigefinger der rechten Hand auf die Taste 'K'. <br>Reagieren Sie auf jede Silbe so schnell wie möglich. Uns interessiert Ihre spontane Reaktion. <br> <br> <br>Drücken Sie 'D' oder 'K', um die nächste Aufgabe zu starten. </p>","75","","","","","","","","","",""
"","html-keyboard-response","139","593726","0.0-10.0-0.0","b887zhcn25","many_one","0","direct_first","1","ll05ch11","1","24","2","1","3","1","","0","1","0","null","","","<div style=""font-size:60px;"">+</div>","null","","","","","","","","","",""
"","html-keyboard-response","140","593819","0.0-10.0-1.0","b887zhcn25","many_one","0","direct_first","1","ll05ch11","1","24","2","1","3","1","","0","1","0","null","","","<img src = 'category1/CS6.png' width = '100%;'>","null","","","","","","","","","",""
"","html-keyboard-response","141","594073","0.0-10.0-2.0","b887zhcn25","many_one","0","direct_first","1","ll05ch11","1","24","2","1","3","1","","0","1","0","null","","","<img src = 'targets/6.png' width = '100%;'>","null","","","","","","","","","",""
"","html-keyboard-response","142","598544","0.0-10.0-3.0","b887zhcn25","many_one","0","direct_first","1","ll05ch11","1","24","2","1","3","1","","0","1","0","4470","","","<img src = 'targets/mask.png' width = '100%;'>","75","neg","GS","GSold","1","category1/CS6.png","","targets/6.png","indirect","1","0"
"","html-keyboard-response","143","600048","0.0-10.0-0.1","b887zhcn25","many_one","0","direct_first","1","ll05ch11","1","24","2","1","3","1","","0","1","0","null","","","<div style=""font-size:60px;"">+</div>","null","","","","","","","","","",""
"","html-keyboard-response","144","600141","0.0-10.0-1.1","b887zhcn25","many_one","0","direct_first","1","ll05ch11","1","24","2","1","3","1","","0","1","0","null","","","<img src = 'category2/CS5.png' width = '100%;'>","null","","","","","","","","","",""
"","html-keyboard-response","145","600396","0.0-10.0-2.1","b887zhcn25","many_one","0","direct_first","1","ll05ch11","1","24","2","1","3","1","","0","1","0","null","","","<img src = 'targets/33.png' width = '100%;'>","null","","","","","","","","","",""
"","html-keyboard-response","146","603185","0.0-10.0-3.1","b887zhcn25","many_one","0","direct_first","1","ll05ch11","1","24","2","1","3","1","","0","1","0","2787","","","<img src = 'targets/mask.png' width = '100%;'>","75","pos","CS","CS","2","category2/CS5.png","","targets/33.png","indirect","1","1"
"","html-keyboard-response","147","604689","0.0-10.0-0.2","b887zhcn25","many_one","0","direct_first","1","ll05ch11","1","24","2","1","3","1","","0","1","0","null","","","<div style=""font-size:60px;"">+</div>","null","","","","","","","","","",""
"","html-keyboard-response","148","604781","0.0-10.0-1.2","b887zhcn25","many_one","0","direct_first","1","ll05ch11","1","24","2","1","3","1","","0","1","0","null","","","<img src = 'category4/CS5.png' width = '100%;'>","null","","","","","","","","","",""
"","html-keyboard-response","149","605036","0.0-10.0-2.2","b887zhcn25","many_one","0","direct_first","1","ll05ch11","1","24","2","1","3","1","","0","1","0","null","","","<img src = 'targets/48.png' width = '100%;'>","null","","","","","","","","","",""
"","html-keyboard-response","150","606585","0.0-10.0-3.2","b887zhcn25","many_one","0","direct_first","1","ll05ch11","1","24","2","1","3","1","","0","1","0","1547","","","<img src = 'targets/mask.png' width = '100%;'>","75","pos","CS","CS","4","category4/CS5.png","","targets/48.png","indirect","1","2"
"","html-keyboard-response","151","608087","0.0-10.0-0.3","b887zhcn25","many_one","0","direct_first","1","ll05ch11","1","24","2","1","3","1","","0","1","0","null","","","<div style=""font-size:60px;"">+</div>","null","","","","","","","","","",""
"","html-keyboard-response","152","608180","0.0-10.0-1.3","b887zhcn25","many_one","0","direct_first","1","ll05ch11","1","24","2","1","3","1","","0","1","0","null","","","<img src = 'category3/CS4.png' width = '100%;'>","null","","","","","","","","","",""
"","html-keyboard-response","153","608436","0.0-10.0-2.3","b887zhcn25","many_one","0","direct_first","1","ll05ch11","1","24","2","1","3","1","","0","1","0","null","","","<img src = 'targets/23.png' width = '100%;'>","null","","","","","","","","","",""
"","html-keyboard-response","154","609567","0.0-10.0-3.3","b887zhcn25","many_one","0","direct_first","1","ll05ch11","1","24","2","1","3","1","","0","1","0","1130","","","<img src = 'targets/mask.png' width = '100%;'>","68","neg","CS","CS","3","category3/CS4.png","","targets/23.png","indirect","0","3"
"","html-keyboard-response","155","611071","0.0-10.0-0.4","b887zhcn25","many_one","0","direct_first","1","ll05ch11","1","24","2","1","3","1","","0","1","0","null","","","<div style=""font-size:60px;"">+</div>","null","","","","","","","","","",""
"","html-keyboard-response","156","611162","0.0-10.0-1.4","b887zhcn25","many_one","0","direct_first","1","ll05ch11","1","24","2","1","3","1","","0","1","0","null","","","<img src = 'category1/CS1.png' width = '100%;'>","null","","","","","","","","","",""
"","html-keyboard-response","157","611417","0.0-10.0-2.4","b887zhcn25","many_one","0","direct_first","1","ll05ch11","1","24","2","1","3","1","","0","1","0","null","","","<img src = 'targets/19.png' width = '100%;'>","null","","","","","","","","","",""
"","html-keyboard-response","158","612796","0.0-10.0-3.4","b887zhcn25","many_one","0","direct_first","1","ll05ch11","1","24","2","1","3","1","","0","1","0","1379","","","<img src = 'targets/mask.png' width = '100%;'>","68","neg","CS","CS","1","category1/CS1.png","","targets/19.png","indirect","0","4"
"","html-keyboard-response","159","614302","0.0-10.0-0.5","b887zhcn25","many_one","0","direct_first","1","ll05ch11","1","24","2","1","3","1","","0","1","0","null","","","<div style=""font-size:60px;"">+</div>","null","","","","","","","","","",""
"","html-keyboard-response","160","614393","0.0-10.0-1.5","b887zhcn25","many_one","0","direct_first","1","ll05ch11","1","24","2","1","3","1","","0","1","0","null","","","<img src = 'category4/CS9.png' width = '100%;'>","null","","","","","","","","","",""
"","html-keyboard-response","161","614646","0.0-10.0-2.5","b887zhcn25","many_one","0","direct_first","1","ll05ch11","1","24","2","1","3","1","","0","1","0","null","","","<img src = 'targets/36.png' width = '100%;'>","null","","","","","","","","","",""
"","html-keyboard-response","162","615786","0.0-10.0-3.5","b887zhcn25","many_one","0","direct_first","1","ll05ch11","1","24","2","1","3","1","","0","1","0","1138","","","<img src = 'targets/mask.png' width = '100%;'>","75","pos","CS","CS","4","category4/CS9.png","","targets/36.png","indirect","1","5"
"","html-keyboard-response","163","617291","0.0-10.0-0.6","b887zhcn25","many_one","0","direct_first","1","ll05ch11","1","24","2","1","3","1","","0","1","0","null","","","<div style=""font-size:60px;"">+</div>","null","","","","","","","","","",""
"","html-keyboard-response","164","617384","0.0-10.0-1.6","b887zhcn25","many_one","0","direct_first","1","ll05ch11","1","24","2","1","3","1","","0","1","0","null","","","<img src = 'category4/CS7.png' width = '100%;'>","null","","","","","","","","","",""
"","html-keyboard-response","165","617637","0.0-10.0-2.6","b887zhcn25","many_one","0","direct_first","1","ll05ch11","1","24","2","1","3","1","","0","1","0","null","","","<img src = 'targets/5.png' width = '100%;'>","null","","","","","","","","","",""
"","html-keyboard-response","166","618354","0.0-10.0-3.6","b887zhcn25","many_one","0","direct_first","1","ll05ch11","1","24","2","1","3","1","","0","1","0","716","","","<img src = 'targets/mask.png' width = '100%;'>","75","pos","CS","CS","4","category4/CS7.png","","targets/5.png","indirect","1","6"
"","html-keyboard-response","167","619860","0.0-10.0-0.7","b887zhcn25","many_one","0","direct_first","1","ll05ch11","1","24","2","1","3","1","","0","1","0","null","","","<div style=""font-size:60px;"">+</div>","null","","","","","","","","","",""
"","html-keyboard-response","168","619951","0.0-10.0-1.7","b887zhcn25","many_one","0","direct_first","1","ll05ch11","1","24","2","1","3","1","","0","1","0","null","","","<img src = 'category1/CS5.png' width = '100%;'>","null","","","","","","","","","",""
"","html-keyboard-response","169","620206","0.0-10.0-2.7","b887zhcn25","many_one","0","direct_first","1","ll05ch11","1","24","2","1","3","1","","0","1","0","null","","","<img src = 'targets/27.png' width = '100%;'>","null","","","","","","","","","",""
"","html-keyboard-response","170","621354","0.0-10.0-3.7","b887zhcn25","many_one","0","direct_first","1","ll05ch11","1","24","2","1","3","1","","0","1","0","1149","","","<img src = 'targets/mask.png' width = '100%;'>","68","neg","CS","CS","1","category1/CS5.png","","targets/27.png","indirect","0","7"
"","html-keyboard-response","171","622859","0.0-10.0-0.8","b887zhcn25","many_one","0","direct_first","1","ll05ch11","1","24","2","1","3","1","","0","1","0","null","","","<div style=""font-size:60px;"">+</div>","null","","","","","","","","","",""
"","html-keyboard-response","172","622950","0.0-10.0-1.8","b887zhcn25","many_one","0","direct_first","1","ll05ch11","1","24","2","1","3","1","","0","1","0","null","","","<img src = 'category3/CS10.png' width = '100%;'>","null","","","","","","","","","",""
"","html-keyboard-response","173","623205","0.0-10.0-2.8","b887zhcn25","many_one","0","direct_first","1","ll05ch11","1","24","2","1","3","1","","0","1","0","null","","","<img src = 'targets/46.png' width = '100%;'>","null","","","","","","","","","",""
"","html-keyboard-response","174","625345","0.0-10.0-3.8","b887zhcn25","many_one","0","direct_first","1","ll05ch11","1","24","2","1","3","1","","0","1","0","2139","","","<img src = 'targets/mask.png' width = '100%;'>","68","neg","CS","CS","3","category3/CS10.png","","targets/46.png","indirect","0","8"
"","html-keyboard-response","175","626848","0.0-10.0-0.9","b887zhcn25","many_one","0","direct_first","1","ll05ch11","1","24","2","1","3","1","","0","1","0","null","","","<div style=""font-size:60px;"">+</div>","null","","","","","","","","","",""
"","html-keyboard-response","176","626941","0.0-10.0-1.9","b887zhcn25","many_one","0","direct_first","1","ll05ch11","1","24","2","1","3","1","","0","1","0","null","","","<img src = 'category1/CS9.png' width = '100%;'>","null","","","","","","","","","",""
"","html-keyboard-response","177","627196","0.0-10.0-2.9","b887zhcn25","many_one","0","direct_first","1","ll05ch11","1","24","2","1","3","1","","0","1","0","null","","","<img src = 'targets/31.png' width = '100%;'>","null","","","","","","","","","",""
"","html-keyboard-response","178","628230","0.0-10.0-3.9","b887zhcn25","many_one","0","direct_first","1","ll05ch11","1","24","2","1","3","1","","0","1","0","1031","","","<img src = 'targets/mask.png' width = '100%;'>","75","neg","CS","CS","1","category1/CS9.png","","targets/31.png","indirect","1","9"
"","html-keyboard-response","179","629736","0.0-10.0-0.10","b887zhcn25","many_one","0","direct_first","1","ll05ch11","1","24","2","1","3","1","","0","1","0","null","","","<div style=""font-size:60px;"">+</div>","null","","","","","","","","","",""
"","html-keyboard-response","180","629828","0.0-10.0-1.10","b887zhcn25","many_one","0","direct_first","1","ll05ch11","1","24","2","1","3","1","","0","1","0","null","","","<img src = 'category3/CS2.png' width = '100%;'>","null","","","","","","","","","",""
"","html-keyboard-response","181","630080","0.0-10.0-2.10","b887zhcn25","many_one","0","direct_first","1","ll05ch11","1","24","2","1","3","1","","0","1","0","null","","","<img src = 'targets/45.png' width = '100%;'>","null","","","","","","","","","",""
"","html-keyboard-response","182","630982","0.0-10.0-3.10","b887zhcn25","many_one","0","direct_first","1","ll05ch11","1","24","2","1","3","1","","0","1","0","900","","","<img src = 'targets/mask.png' width = '100%;'>","75","neg","CS","CS","3","category3/CS2.png","","targets/45.png","indirect","1","10"
"","html-keyboard-response","183","632487","0.0-10.0-0.11","b887zhcn25","many_one","0","direct_first","1","ll05ch11","1","24","2","1","3","1","","0","1","0","null","","","<div style=""font-size:60px;"">+</div>","null","","","","","","","","","",""
"","html-keyboard-response","184","632578","0.0-10.0-1.11","b887zhcn25","many_one","0","direct_first","1","ll05ch11","1","24","2","1","3","1","","0","1","0","null","","","<img src = 'category1/CS10.png' width = '100%;'>","null","","","","","","","","","",""
"","html-keyboard-response","185","632832","0.0-10.0-2.11","b887zhcn25","many_one","0","direct_first","1","ll05ch11","1","24","2","1","3","1","","0","1","0","null","","","<img src = 'targets/39.png' width = '100%;'>","null","","","","","","","","","",""
"","html-keyboard-response","186","635057","0.0-10.0-3.11","b887zhcn25","many_one","0","direct_first","1","ll05ch11","1","24","2","1","3","1","","0","1","0","2222","","","<img src = 'targets/mask.png' width = '100%;'>","75","neg","GS","GSold","1","category1/CS10.png","","targets/39.png","indirect","1","11"
"","html-keyboard-response","187","636561","0.0-10.0-0.12","b887zhcn25","many_one","0","direct_first","1","ll05ch11","1","24","2","1","3","1","","0","1","0","null","","","<div style=""font-size:60px;"">+</div>","null","","","","","","","","","",""
"","html-keyboard-response","188","636654","0.0-10.0-1.12","b887zhcn25","many_one","0","direct_first","1","ll05ch11","1","24","2","1","3","1","","0","1","0","null","","","<img src = 'category2/CS2.png' width = '100%;'>","null","","","","","","","","","",""
"","html-keyboard-response","189","636909","0.0-10.0-2.12","b887zhcn25","many_one","0","direct_first","1","ll05ch11","1","24","2","1","3","1","","0","1","0","null","","","<img src = 'targets/11.png' width = '100%;'>","null","","","","","","","","","",""
"","html-keyboard-response","190","637849","0.0-10.0-3.12","b887zhcn25","many_one","0","direct_first","1","ll05ch11","1","24","2","1","3","1","","0","1","0","939","","","<img src = 'targets/mask.png' width = '100%;'>","68","pos","CS","CS","2","category2/CS2.png","","targets/11.png","indirect","0","12"
"","html-keyboard-response","191","639357","0.0-10.0-0.13","b887zhcn25","many_one","0","direct_first","1","ll05ch11","1","24","2","1","3","1","","0","1","0","null","","","<div style=""font-size:60px;"">+</div>","null","","","","","","","","","",""
"","html-keyboard-response","192","639449","0.0-10.0-1.13","b887zhcn25","many_one","0","direct_first","1","ll05ch11","1","24","2","1","3","1","","0","1","0","null","","","<img src = 'category2/CS4.png' width = '100%;'>","null","","","","","","","","","",""
"","html-keyboard-response","193","639703","0.0-10.0-2.13","b887zhcn25","many_one","0","direct_first","1","ll05ch11","1","24","2","1","3","1","","0","1","0","null","","","<img src = 'targets/9.png' width = '100%;'>","null","","","","","","","","","",""
"","html-keyboard-response","194","640472","0.0-10.0-3.13","b887zhcn25","many_one","0","direct_first","1","ll05ch11","1","24","2","1","3","1","","0","1","0","769","","","<img src = 'targets/mask.png' width = '100%;'>","68","pos","CS","CS","2","category2/CS4.png","","targets/9.png","indirect","0","13"
"","html-keyboard-response","195","641976","0.0-10.0-0.14","b887zhcn25","many_one","0","direct_first","1","ll05ch11","1","24","2","1","3","1","","0","1","0","null","","","<div style=""font-size:60px;"">+</div>","null","","","","","","","","","",""
"","html-keyboard-response","196","642070","0.0-10.0-1.14","b887zhcn25","many_one","0","direct_first","1","ll05ch11","1","24","2","1","3","1","","0","1","0","null","","","<img src = 'category3/CS7.png' width = '100%;'>","null","","","","","","","","","",""
"","html-keyboard-response","197","642323","0.0-10.0-2.14","b887zhcn25","many_one","0","direct_first","1","ll05ch11","1","24","2","1","3","1","","0","1","0","null","","","<img src = 'targets/37.png' width = '100%;'>","null","","","","","","","","","",""
"","html-keyboard-response","198","643035","0.0-10.0-3.14","b887zhcn25","many_one","0","direct_first","1","ll05ch11","1","24","2","1","3","1","","0","1","0","711","","","<img src = 'targets/mask.png' width = '100%;'>","75","neg","CS","CS","3","category3/CS7.png","","targets/37.png","indirect","1","14"
"","html-keyboard-response","199","644538","0.0-10.0-0.15","b887zhcn25","many_one","0","direct_first","1","ll05ch11","1","24","2","1","3","1","","0","1","0","null","","","<div style=""font-size:60px;"">+</div>","null","","","","","","","","","",""
"","html-keyboard-response","200","644631","0.0-10.0-1.15","b887zhcn25","many_one","0","direct_first","1","ll05ch11","1","24","2","1","3","1","","0","1","0","null","","","<img src = 'category2/CS6.png' width = '100%;'>","null","","","","","","","","","",""
"","html-keyboard-response","201","644887","0.0-10.0-2.15","b887zhcn25","many_one","0","direct_first","1","ll05ch11","1","24","2","1","3","1","","0","1","0","null","","","<img src = 'targets/47.png' width = '100%;'>","null","","","","","","","","","",""
"","html-keyboard-response","202","645477","0.0-10.0-3.15","b887zhcn25","many_one","0","direct_first","1","ll05ch11","1","24","2","1","3","1","","0","1","0","590","","","<img src = 'targets/mask.png' width = '100%;'>","75","pos","GS","GSold","2","category2/CS6.png","","targets/47.png","indirect","1","15"
"","html-keyboard-response","203","646981","0.0-10.0-0.16","b887zhcn25","many_one","0","direct_first","1","ll05ch11","1","24","2","1","3","1","","0","1","0","null","","","<div style=""font-size:60px;"">+</div>","null","","","","","","","","","",""
"","html-keyboard-response","204","647075","0.0-10.0-1.16","b887zhcn25","many_one","0","direct_first","1","ll05ch11","1","24","2","1","3","1","","0","1","0","null","","","<img src = 'category2/CS7.png' width = '100%;'>","null","","","","","","","","","",""
"","html-keyboard-response","205","647329","0.0-10.0-2.16","b887zhcn25","many_one","0","direct_first","1","ll05ch11","1","24","2","1","3","1","","0","1","0","null","","","<img src = 'targets/30.png' width = '100%;'>","null","","","","","","","","","",""
"","html-keyboard-response","206","647567","0.0-10.0-3.16","b887zhcn25","many_one","0","direct_first","1","ll05ch11","1","24","2","1","3","1","","0","1","0","238","","","<img src = 'targets/mask.png' width = '100%;'>","68","pos","CS","CS","2","category2/CS7.png","","targets/30.png","indirect","0","16"
"","html-keyboard-response","207","649071","0.0-10.0-0.17","b887zhcn25","many_one","0","direct_first","1","ll05ch11","1","24","2","1","3","1","","0","1","0","null","","","<div style=""font-size:60px;"">+</div>","null","","","","","","","","","",""
"","html-keyboard-response","208","649166","0.0-10.0-1.17","b887zhcn25","many_one","0","direct_first","1","ll05ch11","1","24","2","1","3","1","","0","1","0","null","","","<img src = 'category1/CS2.png' width = '100%;'>","null","","","","","","","","","",""
"","html-keyboard-response","209","649419","0.0-10.0-2.17","b887zhcn25","many_one","0","direct_first","1","ll05ch11","1","24","2","1","3","1","","0","1","0","null","","","<img src = 'targets/14.png' width = '100%;'>","null","","","","","","","","","",""
"","html-keyboard-response","210","649856","0.0-10.0-3.17","b887zhcn25","many_one","0","direct_first","1","ll05ch11","1","24","2","1","3","1","","0","1","0","435","","","<img src = 'targets/mask.png' width = '100%;'>","68","neg","GS","GSold","1","category1/CS2.png","","targets/14.png","indirect","0","17"
"","html-keyboard-response","211","651358","0.0-10.0-0.18","b887zhcn25","many_one","0","direct_first","1","ll05ch11","1","24","2","1","3","1","","0","1","0","null","","","<div style=""font-size:60px;"">+</div>","null","","","","","","","","","",""
"","html-keyboard-response","212","651452","0.0-10.0-1.18","b887zhcn25","many_one","0","direct_first","1","ll05ch11","1","24","2","1","3","1","","0","1","0","null","","","<img src = 'category3/CS8.png' width = '100%;'>","null","","","","","","","","","",""
"","html-keyboard-response","213","651706","0.0-10.0-2.18","b887zhcn25","many_one","0","direct_first","1","ll05ch11","1","24","2","1","3","1","","0","1","0","null","","","<img src = 'targets/2.png' width = '100%;'>","null","","","","","","","","","",""
"","html-keyboard-response","214","651993","0.0-10.0-3.18","b887zhcn25","many_one","0","direct_first","1","ll05ch11","1","24","2","1","3","1","","0","1","0","286","","","<img src = 'targets/mask.png' width = '100%;'>","75","neg","CS","CS","3","category3/CS8.png","","targets/2.png","indirect","1","18"
"","html-keyboard-response","215","653498","0.0-10.0-0.19","b887zhcn25","many_one","0","direct_first","1","ll05ch11","1","24","2","1","3","1","","0","1","0","null","","","<div style=""font-size:60px;"">+</div>","null","","","","","","","","","",""
"","html-keyboard-response","216","653592","0.0-10.0-1.19","b887zhcn25","many_one","0","direct_first","1","ll05ch11","1","24","2","1","3","1","","0","1","0","null","","","<img src = 'category4/CS2.png' width = '100%;'>","null","","","","","","","","","",""
"","html-keyboard-response","217","653846","0.0-10.0-2.19","b887zhcn25","many_one","0","direct_first","1","ll05ch11","1","24","2","1","3","1","","0","1","0","null","","","<img src = 'targets/29.png' width = '100%;'>","null","","","","","","","","","",""
"","html-keyboard-response","218","654104","0.0-10.0-3.19","b887zhcn25","many_one","0","direct_first","1","ll05ch11","1","24","2","1","3","1","","0","1","0","257","","","<img src = 'targets/mask.png' width = '100%;'>","68","pos","CS","CS","4","category4/CS2.png","","targets/29.png","indirect","0","19"
"","html-keyboard-response","219","655609","0.0-10.0-0.20","b887zhcn25","many_one","0","direct_first","1","ll05ch11","1","24","2","1","3","1","","0","1","0","null","","","<div style=""font-size:60px;"">+</div>","null","","","","","","","","","",""
"","html-keyboard-response","220","655700","0.0-10.0-1.20","b887zhcn25","many_one","0","direct_first","1","ll05ch11","1","24","2","1","3","1","","0","1","0","null","","","<img src = 'category1/CS7.png' width = '100%;'>","null","","","","","","","","","",""
"","html-keyboard-response","221","655953","0.0-10.0-2.20","b887zhcn25","many_one","0","direct_first","1","ll05ch11","1","24","2","1","3","1","","0","1","0","null","","","<img src = 'targets/15.png' width = '100%;'>","null","","","","","","","","","",""
"","html-keyboard-response","222","656133","0.0-10.0-3.20","b887zhcn25","many_one","0","direct_first","1","ll05ch11","1","24","2","1","3","1","","0","1","0","180","","","<img src = 'targets/mask.png' width = '100%;'>","68","neg","CS","CS","1","category1/CS7.png","","targets/15.png","indirect","0","20"
"","html-keyboard-response","223","657638","0.0-10.0-0.21","b887zhcn25","many_one","0","direct_first","1","ll05ch11","1","24","2","1","3","1","","0","1","0","null","","","<div style=""font-size:60px;"">+</div>","null","","","","","","","","","",""
"","html-keyboard-response","224","657731","0.0-10.0-1.21","b887zhcn25","many_one","0","direct_first","1","ll05ch11","1","24","2","1","3","1","","0","1","0","null","","","<img src = 'category1/CS3.png' width = '100%;'>","null","","","","","","","","","",""
"","html-keyboard-response","225","657986","0.0-10.0-2.21","b887zhcn25","many_one","0","direct_first","1","ll05ch11","1","24","2","1","3","1","","0","1","0","null","","","<img src = 'targets/41.png' width = '100%;'>","null","","","","","","","","","",""
"","html-keyboard-response","226","658447","0.0-10.0-3.21","b887zhcn25","many_one","0","direct_first","1","ll05ch11","1","24","2","1","3","1","","0","1","0","459","","","<img src = 'targets/mask.png' width = '100%;'>","68","neg","CS","CS","1","category1/CS3.png","","targets/41.png","indirect","0","21"
"","html-keyboard-response","227","659950","0.0-10.0-0.22","b887zhcn25","many_one","0","direct_first","1","ll05ch11","1","24","2","1","3","1","","0","1","0","null","","","<div style=""font-size:60px;"">+</div>","null","","","","","","","","","",""
"","html-keyboard-response","228","660042","0.0-10.0-1.22","b887zhcn25","many_one","0","direct_first","1","ll05ch11","1","24","2","1","3","1","","0","1","0","null","","","<img src = 'category2/CS8.png' width = '100%;'>","null","","","","","","","","","",""
"","html-keyboard-response","229","660299","0.0-10.0-2.22","b887zhcn25","many_one","0","direct_first","1","ll05ch11","1","24","2","1","3","1","","0","1","0","null","","","<img src = 'targets/44.png' width = '100%;'>","null","","","","","","","","","",""
"","html-keyboard-response","230","660495","0.0-10.0-3.22","b887zhcn25","many_one","0","direct_first","1","ll05ch11","1","24","2","1","3","1","","0","1","0","193","","","<img src = 'targets/mask.png' width = '100%;'>","68","pos","CS","CS","2","category2/CS8.png","","targets/44.png","indirect","0","22"
"","html-keyboard-response","231","661999","0.0-10.0-0.23","b887zhcn25","many_one","0","direct_first","1","ll05ch11","1","24","2","1","3","1","","0","1","0","null","","","<div style=""font-size:60px;"">+</div>","null","","","","","","","","","",""
"","html-keyboard-response","232","662091","0.0-10.0-1.23","b887zhcn25","many_one","0","direct_first","1","ll05ch11","1","24","2","1","3","1","","0","1","0","null","","","<img src = 'category4/CS1.png' width = '100%;'>","null","","","","","","","","","",""
"","html-keyboard-response","233","662344","0.0-10.0-2.23","b887zhcn25","many_one","0","direct_first","1","ll05ch11","1","24","2","1","3","1","","0","1","0","null","","","<img src = 'targets/17.png' width = '100%;'>","null","","","","","","","","","",""
"","html-keyboard-response","234","662771","0.0-10.0-3.23","b887zhcn25","many_one","0","direct_first","1","ll05ch11","1","24","2","1","3","1","","0","1","0","426","","","<img src = 'targets/mask.png' width = '100%;'>","68","pos","CS","CS","4","category4/CS1.png","","targets/17.png","indirect","0","23"
"","survey-html-form","235","667334","0.0-11.0","b887zhcn25","many_one","0","direct_first","1","ll05ch11","1","24","2","1","3","1","","0","1","0","4061","","{}","","","","","","","","","","","",""
"","html-keyboard-response","236","670340","0.0-12.0-0.0","b887zhcn25","many_one","0","direct_first","1","ll05ch11","1","24","2","1","3","1","","0","1","0","null","","","<div style=""font-size:60px;"">+</div>","null","","","","","","","","","",""
"","html-keyboard-response","237","670431","0.0-12.0-1.0","b887zhcn25","many_one","0","direct_first","1","ll05ch11","1","24","2","1","3","1","","0","1","0","null","","","<img src = 'category1/ma.png' width = '100%;'>","null","","","","","","","","","",""
"","html-keyboard-response","238","670682","0.0-12.0-2.0","b887zhcn25","many_one","0","direct_first","1","ll05ch11","1","24","2","1","3","1","","0","1","0","null","","","<img src = 'targets/40.png' width = '100%;'>","null","","","","","","","","","",""
"","html-keyboard-response","239","671404","0.0-12.0-3.0","b887zhcn25","many_one","0","direct_first","1","ll05ch11","1","24","2","1","3","1","","0","1","0","721","","","<img src = 'targets/mask.png' width = '100%;'>","75","neg","GS","abstract","1","category1/ma.png","","targets/40.png","indirect","1","24"
"","html-keyboard-response","240","672906","0.0-12.0-0.1","b887zhcn25","many_one","0","direct_first","1","ll05ch11","1","24","2","1","3","1","","0","1","0","null","","","<div style=""font-size:60px;"">+</div>","null","","","","","","","","","",""
"","html-keyboard-response","241","672998","0.0-12.0-1.1","b887zhcn25","many_one","0","direct_first","1","ll05ch11","1","24","2","1","3","1","","0","1","0","null","","","<img src = 'category4/GS3.png' width = '100%;'>","null","","","","","","","","","",""
"","html-keyboard-response","242","673255","0.0-12.0-2.1","b887zhcn25","many_one","0","direct_first","1","ll05ch11","1","24","2","1","3","1","","0","1","0","null","","","<img src = 'targets/20.png' width = '100%;'>","null","","","","","","","","","",""
"","html-keyboard-response","243","673899","0.0-12.0-3.1","b887zhcn25","many_one","0","direct_first","1","ll05ch11","1","24","2","1","3","1","","0","1","0","643","","","<img src = 'targets/mask.png' width = '100%;'>","75","pos","GS","GSnew","4","category4/GS3.png","","targets/20.png","indirect","1","25"
"","html-keyboard-response","244","675401","0.0-12.0-0.2","b887zhcn25","many_one","0","direct_first","1","ll05ch11","1","24","2","1","3","1","","0","1","0","null","","","<div style=""font-size:60px;"">+</div>","null","","","","","","","","","",""
"","html-keyboard-response","245","675493","0.0-12.0-1.2","b887zhcn25","many_one","0","direct_first","1","ll05ch11","1","24","2","1","3","1","","0","1","0","null","","","<img src = 'category2/CS9.png' width = '100%;'>","null","","","","","","","","","",""
"","html-keyboard-response","246","675749","0.0-12.0-2.2","b887zhcn25","many_one","0","direct_first","1","ll05ch11","1","24","2","1","3","1","","0","1","0","null","","","<img src = 'targets/1.png' width = '100%;'>","null","","","","","","","","","",""
"","html-keyboard-response","247","676388","0.0-12.0-3.2","b887zhcn25","many_one","0","direct_first","1","ll05ch11","1","24","2","1","3","1","","0","1","0","639","","","<img src = 'targets/mask.png' width = '100%;'>","75","pos","GS","GSold","2","category2/CS9.png","","targets/1.png","indirect","1","26"
"","html-keyboard-response","248","677891","0.0-12.0-0.3","b887zhcn25","many_one","0","direct_first","1","ll05ch11","1","24","2","1","3","1","","0","1","0","null","","","<div style=""font-size:60px;"">+</div>","null","","","","","","","","","",""
"","html-keyboard-response","249","677986","0.0-12.0-1.3","b887zhcn25","many_one","0","direct_first","1","ll05ch11","1","24","2","1","3","1","","0","1","0","null","","","<img src = 'category3/GS1.png' width = '100%;'>","null","","","","","","","","","",""
"","html-keyboard-response","250","678242","0.0-12.0-2.3","b887zhcn25","many_one","0","direct_first","1","ll05ch11","1","24","2","1","3","1","","0","1","0","null","","","<img src = 'targets/13.png' width = '100%;'>","null","","","","","","","","","",""
"","html-keyboard-response","251","678863","0.0-12.0-3.3","b887zhcn25","many_one","0","direct_first","1","ll05ch11","1","24","2","1","3","1","","0","1","0","621","","","<img src = 'targets/mask.png' width = '100%;'>","68","neg","GS","GSnew","3","category3/GS1.png","","targets/13.png","indirect","0","27"
"","html-keyboard-response","252","680370","0.0-12.0-0.4","b887zhcn25","many_one","0","direct_first","1","ll05ch11","1","24","2","1","3","1","","0","1","0","null","","","<div style=""font-size:60px;"">+</div>","null","","","","","","","","","",""
"","html-keyboard-response","253","680463","0.0-12.0-1.4","b887zhcn25","many_one","0","direct_first","1","ll05ch11","1","24","2","1","3","1","","0","1","0","null","","","<img src = 'category2/GS3.png' width = '100%;'>","null","","","","","","","","","",""
"","html-keyboard-response","254","680715","0.0-12.0-2.4","b887zhcn25","many_one","0","direct_first","1","ll05ch11","1","24","2","1","3","1","","0","1","0","null","","","<img src = 'targets/25.png' width = '100%;'>","null","","","","","","","","","",""
"","html-keyboard-response","255","681895","0.0-12.0-3.4","b887zhcn25","many_one","0","direct_first","1","ll05ch11","1","24","2","1","3","1","","0","1","0","1177","","","<img src = 'targets/mask.png' width = '100%;'>","68","pos","GS","GSnew","2","category2/GS3.png","","targets/25.png","indirect","0","28"
"","html-keyboard-response","256","683397","0.0-12.0-0.5","b887zhcn25","many_one","0","direct_first","1","ll05ch11","1","24","2","1","3","1","","0","1","0","null","","","<div style=""font-size:60px;"">+</div>","null","","","","","","","","","",""
"","html-keyboard-response","257","683490","0.0-12.0-1.5","b887zhcn25","many_one","0","direct_first","1","ll05ch11","1","24","2","1","3","1","","0","1","0","null","","","<img src = 'category4/GS2.png' width = '100%;'>","null","","","","","","","","","",""
"","html-keyboard-response","258","683746","0.0-12.0-2.5","b887zhcn25","many_one","0","direct_first","1","ll05ch11","1","24","2","1","3","1","","0","1","0","null","","","<img src = 'targets/35.png' width = '100%;'>","null","","","","","","","","","",""
"","html-keyboard-response","259","684304","0.0-12.0-3.5","b887zhcn25","many_one","0","direct_first","1","ll05ch11","1","24","2","1","3","1","","0","1","0","556","","","<img src = 'targets/mask.png' width = '100%;'>","75","pos","GS","GSnew","4","category4/GS2.png","","targets/35.png","indirect","1","29"
"","html-keyboard-response","260","685806","0.0-12.0-0.6","b887zhcn25","many_one","0","direct_first","1","ll05ch11","1","24","2","1","3","1","","0","1","0","null","","","<div style=""font-size:60px;"">+</div>","null","","","","","","","","","",""
"","html-keyboard-response","261","685897","0.0-12.0-1.6","b887zhcn25","many_one","0","direct_first","1","ll05ch11","1","24","2","1","3","1","","0","1","0","null","","","<img src = 'category3/CS3.png' width = '100%;'>","null","","","","","","","","","",""
"","html-keyboard-response","262","686154","0.0-12.0-2.6","b887zhcn25","many_one","0","direct_first","1","ll05ch11","1","24","2","1","3","1","","0","1","0","null","","","<img src = 'targets/26.png' width = '100%;'>","null","","","","","","","","","",""
"","html-keyboard-response","263","686617","0.0-12.0-3.6","b887zhcn25","many_one","0","direct_first","1","ll05ch11","1","24","2","1","3","1","","0","1","0","462","","","<img src = 'targets/mask.png' width = '100%;'>","75","neg","GS","GSold","3","category3/CS3.png","","targets/26.png","indirect","1","30"
"","html-keyboard-response","264","688119","0.0-12.0-0.7","b887zhcn25","many_one","0","direct_first","1","ll05ch11","1","24","2","1","3","1","","0","1","0","null","","","<div style=""font-size:60px;"">+</div>","null","","","","","","","","","",""
"","html-keyboard-response","265","688212","0.0-12.0-1.7","b887zhcn25","many_one","0","direct_first","1","ll05ch11","1","24","2","1","3","1","","0","1","0","null","","","<img src = 'category3/CS1.png' width = '100%;'>","null","","","","","","","","","",""
"","html-keyboard-response","266","688466","0.0-12.0-2.7","b887zhcn25","many_one","0","direct_first","1","ll05ch11","1","24","2","1","3","1","","0","1","0","null","","","<img src = 'targets/3.png' width = '100%;'>","null","","","","","","","","","",""
"","html-keyboard-response","267","689309","0.0-12.0-3.7","b887zhcn25","many_one","0","direct_first","1","ll05ch11","1","24","2","1","3","1","","0","1","0","841","","","<img src = 'targets/mask.png' width = '100%;'>","68","neg","GS","GSold","3","category3/CS1.png","","targets/3.png","indirect","0","31"
"","html-keyboard-response","268","690811","0.0-12.0-0.8","b887zhcn25","many_one","0","direct_first","1","ll05ch11","1","24","2","1","3","1","","0","1","0","null","","","<div style=""font-size:60px;"">+</div>","null","","","","","","","","","",""
"","html-keyboard-response","269","690903","0.0-12.0-1.8","b887zhcn25","many_one","0","direct_first","1","ll05ch11","1","24","2","1","3","1","","0","1","0","null","","","<img src = 'category3/CS9.png' width = '100%;'>","null","","","","","","","","","",""
"","html-keyboard-response","270","691158","0.0-12.0-2.8","b887zhcn25","many_one","0","direct_first","1","ll05ch11","1","24","2","1","3","1","","0","1","0","null","","","<img src = 'targets/22.png' width = '100%;'>","null","","","","","","","","","",""
"","html-keyboard-response","271","692026","0.0-12.0-3.8","b887zhcn25","many_one","0","direct_first","1","ll05ch11","1","24","2","1","3","1","","0","1","0","867","","","<img src = 'targets/mask.png' width = '100%;'>","68","neg","GS","GSold","3","category3/CS9.png","","targets/22.png","indirect","0","32"
"","html-keyboard-response","272","693527","0.0-12.0-0.9","b887zhcn25","many_one","0","direct_first","1","ll05ch11","1","24","2","1","3","1","","0","1","0","null","","","<div style=""font-size:60px;"">+</div>","null","","","","","","","","","",""
"","html-keyboard-response","273","693621","0.0-12.0-1.9","b887zhcn25","many_one","0","direct_first","1","ll05ch11","1","24","2","1","3","1","","0","1","0","null","","","<img src = 'category4/CS4.png' width = '100%;'>","null","","","","","","","","","",""
"","html-keyboard-response","274","693876","0.0-12.0-2.9","b887zhcn25","many_one","0","direct_first","1","ll05ch11","1","24","2","1","3","1","","0","1","0","null","","","<img src = 'targets/4.png' width = '100%;'>","null","","","","","","","","","",""
"","html-keyboard-response","275","694410","0.0-12.0-3.9","b887zhcn25","many_one","0","direct_first","1","ll05ch11","1","24","2","1","3","1","","0","1","0","532","","","<img src = 'targets/mask.png' width = '100%;'>","68","pos","GS","GSold","4","category4/CS4.png","","targets/4.png","indirect","0","33"
"","html-keyboard-response","276","695916","0.0-12.0-0.10","b887zhcn25","many_one","0","direct_first","1","ll05ch11","1","24","2","1","3","1","","0","1","0","null","","","<div style=""font-size:60px;"">+</div>","null","","","","","","","","","",""
"","html-keyboard-response","277","696008","0.0-12.0-1.10","b887zhcn25","many_one","0","direct_first","1","ll05ch11","1","24","2","1","3","1","","0","1","0","null","","","<img src = 'category1/GS3.png' width = '100%;'>","null","","","","","","","","","",""
"","html-keyboard-response","278","696264","0.0-12.0-2.10","b887zhcn25","many_one","0","direct_first","1","ll05ch11","1","24","2","1","3","1","","0","1","0","null","","","<img src = 'targets/10.png' width = '100%;'>","null","","","","","","","","","",""
"","html-keyboard-response","279","696884","0.0-12.0-3.10","b887zhcn25","many_one","0","direct_first","1","ll05ch11","1","24","2","1","3","1","","0","1","0","618","","","<img src = 'targets/mask.png' width = '100%;'>","68","neg","GS","GSnew","1","category1/GS3.png","","targets/10.png","indirect","0","34"
"","html-keyboard-response","280","698387","0.0-12.0-0.11","b887zhcn25","many_one","0","direct_first","1","ll05ch11","1","24","2","1","3","1","","0","1","0","null","","","<div style=""font-size:60px;"">+</div>","null","","","","","","","","","",""
"","html-keyboard-response","281","698479","0.0-12.0-1.11","b887zhcn25","many_one","0","direct_first","1","ll05ch11","1","24","2","1","3","1","","0","1","0","null","","","<img src = 'category4/CS3.png' width = '100%;'>","null","","","","","","","","","",""
"","html-keyboard-response","282","698732","0.0-12.0-2.11","b887zhcn25","many_one","0","direct_first","1","ll05ch11","1","24","2","1","3","1","","0","1","0","null","","","<img src = 'targets/18.png' width = '100%;'>","null","","","","","","","","","",""
"","html-keyboard-response","283","699147","0.0-12.0-3.11","b887zhcn25","many_one","0","direct_first","1","ll05ch11","1","24","2","1","3","1","","0","1","0","413","","","<img src = 'targets/mask.png' width = '100%;'>","75","pos","GS","GSold","4","category4/CS3.png","","targets/18.png","indirect","1","35"
"","html-keyboard-response","284","700649","0.0-12.0-0.12","b887zhcn25","many_one","0","direct_first","1","ll05ch11","1","24","2","1","3","1","","0","1","0","null","","","<div style=""font-size:60px;"">+</div>","null","","","","","","","","","",""
"","html-keyboard-response","285","700742","0.0-12.0-1.12","b887zhcn25","many_one","0","direct_first","1","ll05ch11","1","24","2","1","3","1","","0","1","0","null","","","<img src = 'category2/GS2.png' width = '100%;'>","null","","","","","","","","","",""
"","html-keyboard-response","286","700998","0.0-12.0-2.12","b887zhcn25","many_one","0","direct_first","1","ll05ch11","1","24","2","1","3","1","","0","1","0","null","","","<img src = 'targets/16.png' width = '100%;'>","null","","","","","","","","","",""
"","html-keyboard-response","287","701692","0.0-12.0-3.12","b887zhcn25","many_one","0","direct_first","1","ll05ch11","1","24","2","1","3","1","","0","1","0","693","","","<img src = 'targets/mask.png' width = '100%;'>","68","pos","GS","GSnew","2","category2/GS2.png","","targets/16.png","indirect","0","36"
"","html-keyboard-response","288","703196","0.0-12.0-0.13","b887zhcn25","many_one","0","direct_first","1","ll05ch11","1","24","2","1","3","1","","0","1","0","null","","","<div style=""font-size:60px;"">+</div>","null","","","","","","","","","",""
"","html-keyboard-response","289","703288","0.0-12.0-1.13","b887zhcn25","many_one","0","direct_first","1","ll05ch11","1","24","2","1","3","1","","0","1","0","null","","","<img src = 'category3/GS2.png' width = '100%;'>","null","","","","","","","","","",""
"","html-keyboard-response","290","703543","0.0-12.0-2.13","b887zhcn25","many_one","0","direct_first","1","ll05ch11","1","24","2","1","3","1","","0","1","0","null","","","<img src = 'targets/34.png' width = '100%;'>","null","","","","","","","","","",""
"","html-keyboard-response","291","704429","0.0-12.0-3.13","b887zhcn25","many_one","0","direct_first","1","ll05ch11","1","24","2","1","3","1","","0","1","0","886","","","<img src = 'targets/mask.png' width = '100%;'>","75","neg","GS","GSnew","3","category3/GS2.png","","targets/34.png","indirect","1","37"
"","html-keyboard-response","292","705935","0.0-12.0-0.14","b887zhcn25","many_one","0","direct_first","1","ll05ch11","1","24","2","1","3","1","","0","1","0","null","","","<div style=""font-size:60px;"">+</div>","null","","","","","","","","","",""
"","html-keyboard-response","293","706029","0.0-12.0-1.14","b887zhcn25","many_one","0","direct_first","1","ll05ch11","1","24","2","1","3","1","","0","1","0","null","","","<img src = 'category3/wang.png' width = '100%;'>","null","","","","","","","","","",""
"","html-keyboard-response","294","706286","0.0-12.0-2.14","b887zhcn25","many_one","0","direct_first","1","ll05ch11","1","24","2","1","3","1","","0","1","0","null","","","<img src = 'targets/38.png' width = '100%;'>","null","","","","","","","","","",""
"","html-keyboard-response","295","706951","0.0-12.0-3.14","b887zhcn25","many_one","0","direct_first","1","ll05ch11","1","24","2","1","3","1","","0","1","0","664","","","<img src = 'targets/mask.png' width = '100%;'>","68","neg","GS","abstract","3","category3/wang.png","","targets/38.png","indirect","0","38"
"","html-keyboard-response","296","708456","0.0-12.0-0.15","b887zhcn25","many_one","0","direct_first","1","ll05ch11","1","24","2","1","3","1","","0","1","0","null","","","<div style=""font-size:60px;"">+</div>","null","","","","","","","","","",""
"","html-keyboard-response","297","708551","0.0-12.0-1.15","b887zhcn25","many_one","0","direct_first","1","ll05ch11","1","24","2","1","3","1","","0","1","0","null","","","<img src = 'category2/men.png' width = '100%;'>","null","","","","","","","","","",""
"","html-keyboard-response","298","708807","0.0-12.0-2.15","b887zhcn25","many_one","0","direct_first","1","ll05ch11","1","24","2","1","3","1","","0","1","0","null","","","<img src = 'targets/21.png' width = '100%;'>","null","","","","","","","","","",""
"","html-keyboard-response","299","709541","0.0-12.0-3.15","b887zhcn25","many_one","0","direct_first","1","ll05ch11","1","24","2","1","3","1","","0","1","0","733","","","<img src = 'targets/mask.png' width = '100%;'>","75","pos","GS","abstract","2","category2/men.png","","targets/21.png","indirect","1","39"
"","html-keyboard-response","300","711045","0.0-12.0-0.16","b887zhcn25","many_one","0","direct_first","1","ll05ch11","1","24","2","1","3","1","","0","1","0","null","","","<div style=""font-size:60px;"">+</div>","null","","","","","","","","","",""
"","html-keyboard-response","301","711139","0.0-12.0-1.16","b887zhcn25","many_one","0","direct_first","1","ll05ch11","1","24","2","1","3","1","","0","1","0","null","","","<img src = 'category2/CS1.png' width = '100%;'>","null","","","","","","","","","",""
"","html-keyboard-response","302","711396","0.0-12.0-2.16","b887zhcn25","many_one","0","direct_first","1","ll05ch11","1","24","2","1","3","1","","0","1","0","null","","","<img src = 'targets/28.png' width = '100%;'>","null","","","","","","","","","",""
"","html-keyboard-response","303","711905","0.0-12.0-3.16","b887zhcn25","many_one","0","direct_first","1","ll05ch11","1","24","2","1","3","1","","0","1","0","508","","","<img src = 'targets/mask.png' width = '100%;'>","68","pos","GS","GSold","2","category2/CS1.png","","targets/28.png","indirect","0","40"
"","html-keyboard-response","304","713409","0.0-12.0-0.17","b887zhcn25","many_one","0","direct_first","1","ll05ch11","1","24","2","1","3","1","","0","1","0","null","","","<div style=""font-size:60px;"">+</div>","null","","","","","","","","","",""
"","html-keyboard-response","305","713501","0.0-12.0-1.17","b887zhcn25","many_one","0","direct_first","1","ll05ch11","1","24","2","1","3","1","","0","1","0","null","","","<img src = 'category4/CS8.png' width = '100%;'>","null","","","","","","","","","",""
"","html-keyboard-response","306","713756","0.0-12.0-2.17","b887zhcn25","many_one","0","direct_first","1","ll05ch11","1","24","2","1","3","1","","0","1","0","null","","","<img src = 'targets/12.png' width = '100%;'>","null","","","","","","","","","",""
"","html-keyboard-response","307","714134","0.0-12.0-3.17","b887zhcn25","many_one","0","direct_first","1","ll05ch11","1","24","2","1","3","1","","0","1","0","376","","","<img src = 'targets/mask.png' width = '100%;'>","75","pos","GS","GSold","4","category4/CS8.png","","targets/12.png","indirect","1","41"
"","html-keyboard-response","308","715637","0.0-12.0-0.18","b887zhcn25","many_one","0","direct_first","1","ll05ch11","1","24","2","1","3","1","","0","1","0","null","","","<div style=""font-size:60px;"">+</div>","null","","","","","","","","","",""
"","html-keyboard-response","309","715728","0.0-12.0-1.18","b887zhcn25","many_one","0","direct_first","1","ll05ch11","1","24","2","1","3","1","","0","1","0","null","","","<img src = 'category1/GS1.png' width = '100%;'>","null","","","","","","","","","",""
"","html-keyboard-response","310","715981","0.0-12.0-2.18","b887zhcn25","many_one","0","direct_first","1","ll05ch11","1","24","2","1","3","1","","0","1","0","null","","","<img src = 'targets/32.png' width = '100%;'>","null","","","","","","","","","",""
"","html-keyboard-response","311","716179","0.0-12.0-3.18","b887zhcn25","many_one","0","direct_first","1","ll05ch11","1","24","2","1","3","1","","0","1","0","197","","","<img src = 'targets/mask.png' width = '100%;'>","75","neg","GS","GSnew","1","category1/GS1.png","","targets/32.png","indirect","1","42"
"","html-keyboard-response","312","717686","0.0-12.0-0.19","b887zhcn25","many_one","0","direct_first","1","ll05ch11","1","24","2","1","3","1","","0","1","0","null","","","<div style=""font-size:60px;"">+</div>","null","","","","","","","","","",""
"","html-keyboard-response","313","717778","0.0-12.0-1.19","b887zhcn25","many_one","0","direct_first","1","ll05ch11","1","24","2","1","3","1","","0","1","0","null","","","<img src = 'category1/GS2.png' width = '100%;'>","null","","","","","","","","","",""
"","html-keyboard-response","314","718032","0.0-12.0-2.19","b887zhcn25","many_one","0","direct_first","1","ll05ch11","1","24","2","1","3","1","","0","1","0","null","","","<img src = 'targets/7.png' width = '100%;'>","null","","","","","","","","","",""
"","html-keyboard-response","315","718195","0.0-12.0-3.19","b887zhcn25","many_one","0","direct_first","1","ll05ch11","1","24","2","1","3","1","","0","1","0","160","","","<img src = 'targets/mask.png' width = '100%;'>","68","neg","GS","GSnew","1","category1/GS2.png","","targets/7.png","indirect","0","43"
"","html-keyboard-response","316","719700","0.0-12.0-0.20","b887zhcn25","many_one","0","direct_first","1","ll05ch11","1","24","2","1","3","1","","0","1","0","null","","","<div style=""font-size:60px;"">+</div>","null","","","","","","","","","",""
"","html-keyboard-response","317","719791","0.0-12.0-1.20","b887zhcn25","many_one","0","direct_first","1","ll05ch11","1","24","2","1","3","1","","0","1","0","null","","","<img src = 'category2/GS1.png' width = '100%;'>","null","","","","","","","","","",""
"","html-keyboard-response","318","720048","0.0-12.0-2.20","b887zhcn25","many_one","0","direct_first","1","ll05ch11","1","24","2","1","3","1","","0","1","0","null","","","<img src = 'targets/8.png' width = '100%;'>","null","","","","","","","","","",""
"","html-keyboard-response","319","720215","0.0-12.0-3.20","b887zhcn25","many_one","0","direct_first","1","ll05ch11","1","24","2","1","3","1","","0","1","0","166","","","<img src = 'targets/mask.png' width = '100%;'>","75","pos","GS","GSnew","2","category2/GS1.png","","targets/8.png","indirect","1","44"
"","html-keyboard-response","320","721718","0.0-12.0-0.21","b887zhcn25","many_one","0","direct_first","1","ll05ch11","1","24","2","1","3","1","","0","1","0","null","","","<div style=""font-size:60px;"">+</div>","null","","","","","","","","","",""
"","html-keyboard-response","321","721811","0.0-12.0-1.21","b887zhcn25","many_one","0","direct_first","1","ll05ch11","1","24","2","1","3","1","","0","1","0","null","","","<img src = 'category3/GS3.png' width = '100%;'>","null","","","","","","","","","",""
"","html-keyboard-response","322","722065","0.0-12.0-2.21","b887zhcn25","many_one","0","direct_first","1","ll05ch11","1","24","2","1","3","1","","0","1","0","null","","","<img src = 'targets/24.png' width = '100%;'>","null","","","","","","","","","",""
"","html-keyboard-response","323","722067","0.0-12.0-3.21","b887zhcn25","many_one","0","direct_first","1","ll05ch11","1","24","2","1","3","1","","0","1","0","1","","","<img src = 'targets/mask.png' width = '100%;'>","68","neg","GS","GSnew","3","category3/GS3.png","","targets/24.png","indirect","0","45"
"","html-keyboard-response","324","723571","0.0-12.0-0.22","b887zhcn25","many_one","0","direct_first","1","ll05ch11","1","24","2","1","3","1","","0","1","0","null","","","<div style=""font-size:60px;"">+</div>","null","","","","","","","","","",""
"","html-keyboard-response","325","723661","0.0-12.0-1.22","b887zhcn25","many_one","0","direct_first","1","ll05ch11","1","24","2","1","3","1","","0","1","0","null","","","<img src = 'category4/lin.png' width = '100%;'>","null","","","","","","","","","",""
"","html-keyboard-response","326","723916","0.0-12.0-2.22","b887zhcn25","many_one","0","direct_first","1","ll05ch11","1","24","2","1","3","1","","0","1","0","null","","","<img src = 'targets/43.png' width = '100%;'>","null","","","","","","","","","",""
"","html-keyboard-response","327","724645","0.0-12.0-3.22","b887zhcn25","many_one","0","direct_first","1","ll05ch11","1","24","2","1","3","1","","0","1","0","729","","","<img src = 'targets/mask.png' width = '100%;'>","75","pos","GS","abstract","4","category4/lin.png","","targets/43.png","indirect","1","46"
"","html-keyboard-response","328","726148","0.0-12.0-0.23","b887zhcn25","many_one","0","direct_first","1","ll05ch11","1","24","2","1","3","1","","0","1","0","null","","","<div style=""font-size:60px;"">+</div>","null","","","","","","","","","",""
"","html-keyboard-response","329","726240","0.0-12.0-1.23","b887zhcn25","many_one","0","direct_first","1","ll05ch11","1","24","2","1","3","1","","0","1","0","null","","","<img src = 'category4/GS1.png' width = '100%;'>","null","","","","","","","","","",""
"","html-keyboard-response","330","726492","0.0-12.0-2.23","b887zhcn25","many_one","0","direct_first","1","ll05ch11","1","24","2","1","3","1","","0","1","0","null","","","<img src = 'targets/42.png' width = '100%;'>","null","","","","","","","","","",""
"","html-keyboard-response","331","726948","0.0-12.0-3.23","b887zhcn25","many_one","0","direct_first","1","ll05ch11","1","24","2","1","3","1","","0","1","0","454","","","<img src = 'targets/mask.png' width = '100%;'>","68","pos","GS","GSnew","4","category4/GS1.png","","targets/42.png","indirect","0","47"
"","survey-html-form","332","731192","0.0-13.0","b887zhcn25","many_one","0","direct_first","1","ll05ch11","1","24","2","1","3","1","","0","1","0","3743","","{}","","","","","","","","","","","",""
