"success","trial_type","trial_index","time_elapsed","internal_node_id","subject","condition","condition_code","measure","measure_code","codeword","gender","age","education","chinese","fach","handedness","comment","hinschauen","ablenkung","gewissenhaft","rt","url","responses","stimulus","key_press","val","type","type_specific","category","cs_selected","target","indirect","task","nr_pres","response"
"true","fullscreen","0","6402","0.0-0.0","pasy3nj0f2","many_one","0","indirect_first","0","neiako08","0","24","1","1","4","1","Ich hätte es schön gefunden, wenn der Bearbeitungsfortschritt in Prozent angezeigt worden wäre.","0","1","0","","","","","","","","","","","","","","",""
"","external-html","1","31266","0.0-1.0","pasy3nj0f2","many_one","0","indirect_first","0","neiako08","0","24","1","1","4","1","Ich hätte es schön gefunden, wenn der Bearbeitungsfortschritt in Prozent angezeigt worden wäre.","0","1","0","24769","text/information.html","","","","","","","","","","","","",""
"","external-html","2","41896","0.0-2.0","pasy3nj0f2","many_one","0","indirect_first","0","neiako08","0","24","1","1","4","1","Ich hätte es schön gefunden, wenn der Bearbeitungsfortschritt in Prozent angezeigt worden wäre.","0","1","0","10492","text/consent.html","","","","","","","","","","","","",""
"","survey-html-form","3","66703","0.0-3.0","pasy3nj0f2","many_one","0","indirect_first","0","neiako08","0","24","1","1","4","1","Ich hätte es schön gefunden, wenn der Bearbeitungsfortschritt in Prozent angezeigt worden wäre.","0","1","0","24779","","{""codeword_enter"":""neiako08""}","","","","","","","","","","","",""
"","survey-html-form","4","83663","0.0-4.0","pasy3nj0f2","many_one","0","indirect_first","0","neiako08","0","24","1","1","4","1","Ich hätte es schön gefunden, wenn der Bearbeitungsfortschritt in Prozent angezeigt worden wäre.","0","1","0","16933","","{""age"":""24"",""education"":""1"",""subject"":""4"",""gender"":""0"",""handedness"":""1"",""chinese"":""1""}","","","","","","","","","","","",""
"","survey-html-form","5","97506","0.0-5.0","pasy3nj0f2","many_one","0","indirect_first","0","neiako08","0","24","1","1","4","1","Ich hätte es schön gefunden, wenn der Bearbeitungsfortschritt in Prozent angezeigt worden wäre.","0","1","0","13816","","{}","","","","","","","","","","","",""
"","html-keyboard-response","6","101522","0.0-6.0-0.0-0.0","pasy3nj0f2","many_one","0","indirect_first","0","neiako08","0","24","1","1","4","1","Ich hätte es schön gefunden, wenn der Bearbeitungsfortschritt in Prozent angezeigt worden wäre.","0","1","0","null","","","<div class = 'row'><div class = 'column'><img src = 'usneg/9830.bmp' width = '100%;'></div><div class = 'column'><img src = 'category3/CS3.png' width = '70%;'></div></div>","null","neg","CS","CS","3","category3/CS3.png","","","","",""
"","html-keyboard-response","7","104043","0.0-6.0-0.0-0.1","pasy3nj0f2","many_one","0","indirect_first","0","neiako08","0","24","1","1","4","1","Ich hätte es schön gefunden, wenn der Bearbeitungsfortschritt in Prozent angezeigt worden wäre.","0","1","0","null","","","<div class = 'row'><div class = 'column'><img src = 'category2/CS8.png' width = '70%;'></div><div class = 'column'><img src = 'usneg/9180.bmp' width = '100%;'></div></div>","null","neg","CS","CS","2","category2/CS8.png","","","","",""
"","html-keyboard-response","8","106572","0.0-6.0-0.0-0.2","pasy3nj0f2","many_one","0","indirect_first","0","neiako08","0","24","1","1","4","1","Ich hätte es schön gefunden, wenn der Bearbeitungsfortschritt in Prozent angezeigt worden wäre.","0","1","0","null","","","<div class = 'row'><div class = 'column'><img src = 'category3/CS6.png' width = '70%;'></div><div class = 'column'><img src = 'usneg/9330.bmp' width = '100%;'></div></div>","null","neg","CS","CS","3","category3/CS6.png","","","","",""
"","html-keyboard-response","9","109092","0.0-6.0-0.0-0.3","pasy3nj0f2","many_one","0","indirect_first","0","neiako08","0","24","1","1","4","1","Ich hätte es schön gefunden, wenn der Bearbeitungsfortschritt in Prozent angezeigt worden wäre.","0","1","0","null","","","<div class = 'row'><div class = 'column'><img src = 'usneg/2750.bmp' width = '100%;'></div><div class = 'column'><img src = 'category3/CS5.png' width = '70%;'></div></div>","null","neg","CS","CS","3","category3/CS5.png","","","","",""
"","html-keyboard-response","10","111633","0.0-6.0-0.0-0.4","pasy3nj0f2","many_one","0","indirect_first","0","neiako08","0","24","1","1","4","1","Ich hätte es schön gefunden, wenn der Bearbeitungsfortschritt in Prozent angezeigt worden wäre.","0","1","0","null","","","<div class = 'row'><div class = 'column'><img src = 'uspos/1460.bmp' width = '100%;'></div><div class = 'column'><img src = 'category4/CS3.png' width = '70%;'></div></div>","null","pos","CS","CS","4","category4/CS3.png","","","","",""
"","html-keyboard-response","11","114162","0.0-6.0-0.0-0.5","pasy3nj0f2","many_one","0","indirect_first","0","neiako08","0","24","1","1","4","1","Ich hätte es schön gefunden, wenn der Bearbeitungsfortschritt in Prozent angezeigt worden wäre.","0","1","0","null","","","<div class = 'row'><div class = 'column'><img src = 'category2/CS6.png' width = '70%;'></div><div class = 'column'><img src = 'usneg/9421.bmp' width = '100%;'></div></div>","null","neg","CS","CS","2","category2/CS6.png","","","","",""
"","html-keyboard-response","12","116682","0.0-6.0-0.0-0.6","pasy3nj0f2","many_one","0","indirect_first","0","neiako08","0","24","1","1","4","1","Ich hätte es schön gefunden, wenn der Bearbeitungsfortschritt in Prozent angezeigt worden wäre.","0","1","0","null","","","<div class = 'row'><div class = 'column'><img src = 'category2/CS4.png' width = '70%;'></div><div class = 'column'><img src = 'usneg/2900.bmp' width = '100%;'></div></div>","null","neg","CS","CS","2","category2/CS4.png","","","","",""
"","html-keyboard-response","13","119202","0.0-6.0-0.0-0.7","pasy3nj0f2","many_one","0","indirect_first","0","neiako08","0","24","1","1","4","1","Ich hätte es schön gefunden, wenn der Bearbeitungsfortschritt in Prozent angezeigt worden wäre.","0","1","0","null","","","<div class = 'row'><div class = 'column'><img src = 'category4/CS9.png' width = '70%;'></div><div class = 'column'><img src = 'uspos/1710.bmp' width = '100%;'></div></div>","null","pos","CS","CS","4","category4/CS9.png","","","","",""
"","html-keyboard-response","14","121722","0.0-6.0-0.0-0.8","pasy3nj0f2","many_one","0","indirect_first","0","neiako08","0","24","1","1","4","1","Ich hätte es schön gefunden, wenn der Bearbeitungsfortschritt in Prozent angezeigt worden wäre.","0","1","0","null","","","<div class = 'row'><div class = 'column'><img src = 'usneg/8485.bmp' width = '100%;'></div><div class = 'column'><img src = 'category2/CS5.png' width = '70%;'></div></div>","null","neg","CS","CS","2","category2/CS5.png","","","","",""
"","html-keyboard-response","15","124253","0.0-6.0-0.0-0.9","pasy3nj0f2","many_one","0","indirect_first","0","neiako08","0","24","1","1","4","1","Ich hätte es schön gefunden, wenn der Bearbeitungsfortschritt in Prozent angezeigt worden wäre.","0","1","0","null","","","<div class = 'row'><div class = 'column'><img src = 'uspos/5700.bmp' width = '100%;'></div><div class = 'column'><img src = 'category1/CS1.png' width = '70%;'></div></div>","null","pos","CS","CS","1","category1/CS1.png","","","","",""
"","html-keyboard-response","16","126782","0.0-6.0-0.0-0.10","pasy3nj0f2","many_one","0","indirect_first","0","neiako08","0","24","1","1","4","1","Ich hätte es schön gefunden, wenn der Bearbeitungsfortschritt in Prozent angezeigt worden wäre.","0","1","0","null","","","<div class = 'row'><div class = 'column'><img src = 'usneg/3160.bmp' width = '100%;'></div><div class = 'column'><img src = 'category3/CS7.png' width = '70%;'></div></div>","null","neg","CS","CS","3","category3/CS7.png","","","","",""
"","html-keyboard-response","17","129302","0.0-6.0-0.0-0.11","pasy3nj0f2","many_one","0","indirect_first","0","neiako08","0","24","1","1","4","1","Ich hätte es schön gefunden, wenn der Bearbeitungsfortschritt in Prozent angezeigt worden wäre.","0","1","0","null","","","<div class = 'row'><div class = 'column'><img src = 'uspos/5831.bmp' width = '100%;'></div><div class = 'column'><img src = 'category4/CS4.png' width = '70%;'></div></div>","null","pos","CS","CS","4","category4/CS4.png","","","","",""
"","html-keyboard-response","18","131832","0.0-6.0-0.0-0.12","pasy3nj0f2","many_one","0","indirect_first","0","neiako08","0","24","1","1","4","1","Ich hätte es schön gefunden, wenn der Bearbeitungsfortschritt in Prozent angezeigt worden wäre.","0","1","0","null","","","<div class = 'row'><div class = 'column'><img src = 'category3/CS4.png' width = '70%;'></div><div class = 'column'><img src = 'usneg/9181.bmp' width = '100%;'></div></div>","null","neg","CS","CS","3","category3/CS4.png","","","","",""
"","html-keyboard-response","19","134362","0.0-6.0-0.0-0.13","pasy3nj0f2","many_one","0","indirect_first","0","neiako08","0","24","1","1","4","1","Ich hätte es schön gefunden, wenn der Bearbeitungsfortschritt in Prozent angezeigt worden wäre.","0","1","0","null","","","<div class = 'row'><div class = 'column'><img src = 'uspos/1463.bmp' width = '100%;'></div><div class = 'column'><img src = 'category4/CS6.png' width = '70%;'></div></div>","null","pos","CS","CS","4","category4/CS6.png","","","","",""
"","html-keyboard-response","20","136902","0.0-6.0-0.0-0.14","pasy3nj0f2","many_one","0","indirect_first","0","neiako08","0","24","1","1","4","1","Ich hätte es schön gefunden, wenn der Bearbeitungsfortschritt in Prozent angezeigt worden wäre.","0","1","0","null","","","<div class = 'row'><div class = 'column'><img src = 'category4/CS7.png' width = '70%;'></div><div class = 'column'><img src = 'uspos/2340.bmp' width = '100%;'></div></div>","null","pos","CS","CS","4","category4/CS7.png","","","","",""
"","html-keyboard-response","21","139432","0.0-6.0-0.0-0.15","pasy3nj0f2","many_one","0","indirect_first","0","neiako08","0","24","1","1","4","1","Ich hätte es schön gefunden, wenn der Bearbeitungsfortschritt in Prozent angezeigt worden wäre.","0","1","0","null","","","<div class = 'row'><div class = 'column'><img src = 'category1/CS5.png' width = '70%;'></div><div class = 'column'><img src = 'uspos/8350.bmp' width = '100%;'></div></div>","null","pos","CS","CS","1","category1/CS5.png","","","","",""
"","html-keyboard-response","22","141962","0.0-6.0-0.0-0.16","pasy3nj0f2","many_one","0","indirect_first","0","neiako08","0","24","1","1","4","1","Ich hätte es schön gefunden, wenn der Bearbeitungsfortschritt in Prozent angezeigt worden wäre.","0","1","0","null","","","<div class = 'row'><div class = 'column'><img src = 'usneg/2205.bmp' width = '100%;'></div><div class = 'column'><img src = 'category2/CS2.png' width = '70%;'></div></div>","null","neg","CS","CS","2","category2/CS2.png","","","","",""
"","html-keyboard-response","23","144492","0.0-6.0-0.0-0.17","pasy3nj0f2","many_one","0","indirect_first","0","neiako08","0","24","1","1","4","1","Ich hätte es schön gefunden, wenn der Bearbeitungsfortschritt in Prozent angezeigt worden wäre.","0","1","0","null","","","<div class = 'row'><div class = 'column'><img src = 'category1/CS3.png' width = '70%;'></div><div class = 'column'><img src = 'uspos/2341.bmp' width = '100%;'></div></div>","null","pos","CS","CS","1","category1/CS3.png","","","","",""
"","html-keyboard-response","24","147032","0.0-6.0-0.0-0.18","pasy3nj0f2","many_one","0","indirect_first","0","neiako08","0","24","1","1","4","1","Ich hätte es schön gefunden, wenn der Bearbeitungsfortschritt in Prozent angezeigt worden wäre.","0","1","0","null","","","<div class = 'row'><div class = 'column'><img src = 'uspos/2360.bmp' width = '100%;'></div><div class = 'column'><img src = 'category1/CS7.png' width = '70%;'></div></div>","null","pos","CS","CS","1","category1/CS7.png","","","","",""
"","html-keyboard-response","25","149562","0.0-6.0-0.0-0.19","pasy3nj0f2","many_one","0","indirect_first","0","neiako08","0","24","1","1","4","1","Ich hätte es schön gefunden, wenn der Bearbeitungsfortschritt in Prozent angezeigt worden wäre.","0","1","0","null","","","<div class = 'row'><div class = 'column'><img src = 'category1/CS4.png' width = '70%;'></div><div class = 'column'><img src = 'uspos/2040.bmp' width = '100%;'></div></div>","null","pos","CS","CS","1","category1/CS4.png","","","","",""
"","survey-html-form","26","152387","0.0-6.0-1.0","pasy3nj0f2","many_one","0","indirect_first","0","neiako08","0","24","1","1","4","1","Ich hätte es schön gefunden, wenn der Bearbeitungsfortschritt in Prozent angezeigt worden wäre.","0","1","0","2313","","{}","","","","","","","","","","","",""
"","html-keyboard-response","27","156413","0.0-6.0-2.0-0.0","pasy3nj0f2","many_one","0","indirect_first","0","neiako08","0","24","1","1","4","1","Ich hätte es schön gefunden, wenn der Bearbeitungsfortschritt in Prozent angezeigt worden wäre.","0","1","0","null","","","<div class = 'row'><div class = 'column'><img src = 'uspos/1463.bmp' width = '100%;'></div><div class = 'column'><img src = 'category4/CS6.png' width = '70%;'></div></div>","null","pos","CS","CS","4","category4/CS6.png","","","","",""
"","html-keyboard-response","28","158933","0.0-6.0-2.0-0.1","pasy3nj0f2","many_one","0","indirect_first","0","neiako08","0","24","1","1","4","1","Ich hätte es schön gefunden, wenn der Bearbeitungsfortschritt in Prozent angezeigt worden wäre.","0","1","0","null","","","<div class = 'row'><div class = 'column'><img src = 'usneg/2900.bmp' width = '100%;'></div><div class = 'column'><img src = 'category2/CS4.png' width = '70%;'></div></div>","null","neg","CS","CS","2","category2/CS4.png","","","","",""
"","html-keyboard-response","29","161453","0.0-6.0-2.0-0.2","pasy3nj0f2","many_one","0","indirect_first","0","neiako08","0","24","1","1","4","1","Ich hätte es schön gefunden, wenn der Bearbeitungsfortschritt in Prozent angezeigt worden wäre.","0","1","0","null","","","<div class = 'row'><div class = 'column'><img src = 'usneg/9180.bmp' width = '100%;'></div><div class = 'column'><img src = 'category2/CS8.png' width = '70%;'></div></div>","null","neg","CS","CS","2","category2/CS8.png","","","","",""
"","html-keyboard-response","30","163993","0.0-6.0-2.0-0.3","pasy3nj0f2","many_one","0","indirect_first","0","neiako08","0","24","1","1","4","1","Ich hätte es schön gefunden, wenn der Bearbeitungsfortschritt in Prozent angezeigt worden wäre.","0","1","0","null","","","<div class = 'row'><div class = 'column'><img src = 'category4/CS4.png' width = '70%;'></div><div class = 'column'><img src = 'uspos/5831.bmp' width = '100%;'></div></div>","null","pos","CS","CS","4","category4/CS4.png","","","","",""
"","html-keyboard-response","31","166512","0.0-6.0-2.0-0.4","pasy3nj0f2","many_one","0","indirect_first","0","neiako08","0","24","1","1","4","1","Ich hätte es schön gefunden, wenn der Bearbeitungsfortschritt in Prozent angezeigt worden wäre.","0","1","0","null","","","<div class = 'row'><div class = 'column'><img src = 'usneg/3160.bmp' width = '100%;'></div><div class = 'column'><img src = 'category3/CS7.png' width = '70%;'></div></div>","null","neg","CS","CS","3","category3/CS7.png","","","","",""
"","html-keyboard-response","32","169053","0.0-6.0-2.0-0.5","pasy3nj0f2","many_one","0","indirect_first","0","neiako08","0","24","1","1","4","1","Ich hätte es schön gefunden, wenn der Bearbeitungsfortschritt in Prozent angezeigt worden wäre.","0","1","0","null","","","<div class = 'row'><div class = 'column'><img src = 'category2/CS5.png' width = '70%;'></div><div class = 'column'><img src = 'usneg/8485.bmp' width = '100%;'></div></div>","null","neg","CS","CS","2","category2/CS5.png","","","","",""
"","html-keyboard-response","33","171572","0.0-6.0-2.0-0.6","pasy3nj0f2","many_one","0","indirect_first","0","neiako08","0","24","1","1","4","1","Ich hätte es schön gefunden, wenn der Bearbeitungsfortschritt in Prozent angezeigt worden wäre.","0","1","0","null","","","<div class = 'row'><div class = 'column'><img src = 'usneg/9330.bmp' width = '100%;'></div><div class = 'column'><img src = 'category3/CS6.png' width = '70%;'></div></div>","null","neg","CS","CS","3","category3/CS6.png","","","","",""
"","html-keyboard-response","34","174102","0.0-6.0-2.0-0.7","pasy3nj0f2","many_one","0","indirect_first","0","neiako08","0","24","1","1","4","1","Ich hätte es schön gefunden, wenn der Bearbeitungsfortschritt in Prozent angezeigt worden wäre.","0","1","0","null","","","<div class = 'row'><div class = 'column'><img src = 'uspos/8350.bmp' width = '100%;'></div><div class = 'column'><img src = 'category1/CS5.png' width = '70%;'></div></div>","null","pos","CS","CS","1","category1/CS5.png","","","","",""
"","html-keyboard-response","35","176623","0.0-6.0-2.0-0.8","pasy3nj0f2","many_one","0","indirect_first","0","neiako08","0","24","1","1","4","1","Ich hätte es schön gefunden, wenn der Bearbeitungsfortschritt in Prozent angezeigt worden wäre.","0","1","0","null","","","<div class = 'row'><div class = 'column'><img src = 'category3/CS4.png' width = '70%;'></div><div class = 'column'><img src = 'usneg/9181.bmp' width = '100%;'></div></div>","null","neg","CS","CS","3","category3/CS4.png","","","","",""
"","html-keyboard-response","36","179152","0.0-6.0-2.0-0.9","pasy3nj0f2","many_one","0","indirect_first","0","neiako08","0","24","1","1","4","1","Ich hätte es schön gefunden, wenn der Bearbeitungsfortschritt in Prozent angezeigt worden wäre.","0","1","0","null","","","<div class = 'row'><div class = 'column'><img src = 'uspos/2360.bmp' width = '100%;'></div><div class = 'column'><img src = 'category1/CS7.png' width = '70%;'></div></div>","null","pos","CS","CS","1","category1/CS7.png","","","","",""
"","html-keyboard-response","37","181682","0.0-6.0-2.0-0.10","pasy3nj0f2","many_one","0","indirect_first","0","neiako08","0","24","1","1","4","1","Ich hätte es schön gefunden, wenn der Bearbeitungsfortschritt in Prozent angezeigt worden wäre.","0","1","0","null","","","<div class = 'row'><div class = 'column'><img src = 'uspos/5700.bmp' width = '100%;'></div><div class = 'column'><img src = 'category1/CS1.png' width = '70%;'></div></div>","null","pos","CS","CS","1","category1/CS1.png","","","","",""
"","html-keyboard-response","38","184212","0.0-6.0-2.0-0.11","pasy3nj0f2","many_one","0","indirect_first","0","neiako08","0","24","1","1","4","1","Ich hätte es schön gefunden, wenn der Bearbeitungsfortschritt in Prozent angezeigt worden wäre.","0","1","0","null","","","<div class = 'row'><div class = 'column'><img src = 'uspos/1710.bmp' width = '100%;'></div><div class = 'column'><img src = 'category4/CS9.png' width = '70%;'></div></div>","null","pos","CS","CS","4","category4/CS9.png","","","","",""
"","html-keyboard-response","39","186753","0.0-6.0-2.0-0.12","pasy3nj0f2","many_one","0","indirect_first","0","neiako08","0","24","1","1","4","1","Ich hätte es schön gefunden, wenn der Bearbeitungsfortschritt in Prozent angezeigt worden wäre.","0","1","0","null","","","<div class = 'row'><div class = 'column'><img src = 'usneg/9830.bmp' width = '100%;'></div><div class = 'column'><img src = 'category3/CS3.png' width = '70%;'></div></div>","null","neg","CS","CS","3","category3/CS3.png","","","","",""
"","html-keyboard-response","40","189282","0.0-6.0-2.0-0.13","pasy3nj0f2","many_one","0","indirect_first","0","neiako08","0","24","1","1","4","1","Ich hätte es schön gefunden, wenn der Bearbeitungsfortschritt in Prozent angezeigt worden wäre.","0","1","0","null","","","<div class = 'row'><div class = 'column'><img src = 'usneg/2750.bmp' width = '100%;'></div><div class = 'column'><img src = 'category3/CS5.png' width = '70%;'></div></div>","null","neg","CS","CS","3","category3/CS5.png","","","","",""
"","html-keyboard-response","41","191812","0.0-6.0-2.0-0.14","pasy3nj0f2","many_one","0","indirect_first","0","neiako08","0","24","1","1","4","1","Ich hätte es schön gefunden, wenn der Bearbeitungsfortschritt in Prozent angezeigt worden wäre.","0","1","0","null","","","<div class = 'row'><div class = 'column'><img src = 'uspos/2340.bmp' width = '100%;'></div><div class = 'column'><img src = 'category4/CS7.png' width = '70%;'></div></div>","null","pos","CS","CS","4","category4/CS7.png","","","","",""
"","html-keyboard-response","42","194342","0.0-6.0-2.0-0.15","pasy3nj0f2","many_one","0","indirect_first","0","neiako08","0","24","1","1","4","1","Ich hätte es schön gefunden, wenn der Bearbeitungsfortschritt in Prozent angezeigt worden wäre.","0","1","0","null","","","<div class = 'row'><div class = 'column'><img src = 'uspos/2341.bmp' width = '100%;'></div><div class = 'column'><img src = 'category1/CS3.png' width = '70%;'></div></div>","null","pos","CS","CS","1","category1/CS3.png","","","","",""
"","html-keyboard-response","43","196882","0.0-6.0-2.0-0.16","pasy3nj0f2","many_one","0","indirect_first","0","neiako08","0","24","1","1","4","1","Ich hätte es schön gefunden, wenn der Bearbeitungsfortschritt in Prozent angezeigt worden wäre.","0","1","0","null","","","<div class = 'row'><div class = 'column'><img src = 'category2/CS6.png' width = '70%;'></div><div class = 'column'><img src = 'usneg/9421.bmp' width = '100%;'></div></div>","null","neg","CS","CS","2","category2/CS6.png","","","","",""
"","html-keyboard-response","44","199402","0.0-6.0-2.0-0.17","pasy3nj0f2","many_one","0","indirect_first","0","neiako08","0","24","1","1","4","1","Ich hätte es schön gefunden, wenn der Bearbeitungsfortschritt in Prozent angezeigt worden wäre.","0","1","0","null","","","<div class = 'row'><div class = 'column'><img src = 'uspos/1460.bmp' width = '100%;'></div><div class = 'column'><img src = 'category4/CS3.png' width = '70%;'></div></div>","null","pos","CS","CS","4","category4/CS3.png","","","","",""
"","html-keyboard-response","45","201932","0.0-6.0-2.0-0.18","pasy3nj0f2","many_one","0","indirect_first","0","neiako08","0","24","1","1","4","1","Ich hätte es schön gefunden, wenn der Bearbeitungsfortschritt in Prozent angezeigt worden wäre.","0","1","0","null","","","<div class = 'row'><div class = 'column'><img src = 'category1/CS4.png' width = '70%;'></div><div class = 'column'><img src = 'uspos/2040.bmp' width = '100%;'></div></div>","null","pos","CS","CS","1","category1/CS4.png","","","","",""
"","html-keyboard-response","46","204463","0.0-6.0-2.0-0.19","pasy3nj0f2","many_one","0","indirect_first","0","neiako08","0","24","1","1","4","1","Ich hätte es schön gefunden, wenn der Bearbeitungsfortschritt in Prozent angezeigt worden wäre.","0","1","0","null","","","<div class = 'row'><div class = 'column'><img src = 'usneg/2205.bmp' width = '100%;'></div><div class = 'column'><img src = 'category2/CS2.png' width = '70%;'></div></div>","null","neg","CS","CS","2","category2/CS2.png","","","","",""
"","survey-html-form","47","211454","0.0-6.0-3.0","pasy3nj0f2","many_one","0","indirect_first","0","neiako08","0","24","1","1","4","1","Ich hätte es schön gefunden, wenn der Bearbeitungsfortschritt in Prozent angezeigt worden wäre.","0","1","0","6472","","{}","","","","","","","","","","","",""
"","html-keyboard-response","48","215485","0.0-6.0-4.0-0.0","pasy3nj0f2","many_one","0","indirect_first","0","neiako08","0","24","1","1","4","1","Ich hätte es schön gefunden, wenn der Bearbeitungsfortschritt in Prozent angezeigt worden wäre.","0","1","0","null","","","<div class = 'row'><div class = 'column'><img src = 'usneg/3160.bmp' width = '100%;'></div><div class = 'column'><img src = 'category3/CS7.png' width = '70%;'></div></div>","null","neg","CS","CS","3","category3/CS7.png","","","","",""
"","html-keyboard-response","49","218001","0.0-6.0-4.0-0.1","pasy3nj0f2","many_one","0","indirect_first","0","neiako08","0","24","1","1","4","1","Ich hätte es schön gefunden, wenn der Bearbeitungsfortschritt in Prozent angezeigt worden wäre.","0","1","0","null","","","<div class = 'row'><div class = 'column'><img src = 'uspos/5831.bmp' width = '100%;'></div><div class = 'column'><img src = 'category4/CS4.png' width = '70%;'></div></div>","null","pos","CS","CS","4","category4/CS4.png","","","","",""
"","html-keyboard-response","50","220520","0.0-6.0-4.0-0.2","pasy3nj0f2","many_one","0","indirect_first","0","neiako08","0","24","1","1","4","1","Ich hätte es schön gefunden, wenn der Bearbeitungsfortschritt in Prozent angezeigt worden wäre.","0","1","0","null","","","<div class = 'row'><div class = 'column'><img src = 'category1/CS4.png' width = '70%;'></div><div class = 'column'><img src = 'uspos/2040.bmp' width = '100%;'></div></div>","null","pos","CS","CS","1","category1/CS4.png","","","","",""
"","html-keyboard-response","51","223042","0.0-6.0-4.0-0.3","pasy3nj0f2","many_one","0","indirect_first","0","neiako08","0","24","1","1","4","1","Ich hätte es schön gefunden, wenn der Bearbeitungsfortschritt in Prozent angezeigt worden wäre.","0","1","0","null","","","<div class = 'row'><div class = 'column'><img src = 'category4/CS3.png' width = '70%;'></div><div class = 'column'><img src = 'uspos/1460.bmp' width = '100%;'></div></div>","null","pos","CS","CS","4","category4/CS3.png","","","","",""
"","html-keyboard-response","52","225563","0.0-6.0-4.0-0.4","pasy3nj0f2","many_one","0","indirect_first","0","neiako08","0","24","1","1","4","1","Ich hätte es schön gefunden, wenn der Bearbeitungsfortschritt in Prozent angezeigt worden wäre.","0","1","0","null","","","<div class = 'row'><div class = 'column'><img src = 'category3/CS6.png' width = '70%;'></div><div class = 'column'><img src = 'usneg/9330.bmp' width = '100%;'></div></div>","null","neg","CS","CS","3","category3/CS6.png","","","","",""
"","html-keyboard-response","53","228072","0.0-6.0-4.0-0.5","pasy3nj0f2","many_one","0","indirect_first","0","neiako08","0","24","1","1","4","1","Ich hätte es schön gefunden, wenn der Bearbeitungsfortschritt in Prozent angezeigt worden wäre.","0","1","0","null","","","<div class = 'row'><div class = 'column'><img src = 'category2/CS2.png' width = '70%;'></div><div class = 'column'><img src = 'usneg/2205.bmp' width = '100%;'></div></div>","null","neg","CS","CS","2","category2/CS2.png","","","","",""
"","html-keyboard-response","54","230613","0.0-6.0-4.0-0.6","pasy3nj0f2","many_one","0","indirect_first","0","neiako08","0","24","1","1","4","1","Ich hätte es schön gefunden, wenn der Bearbeitungsfortschritt in Prozent angezeigt worden wäre.","0","1","0","null","","","<div class = 'row'><div class = 'column'><img src = 'uspos/5700.bmp' width = '100%;'></div><div class = 'column'><img src = 'category1/CS1.png' width = '70%;'></div></div>","null","pos","CS","CS","1","category1/CS1.png","","","","",""
"","html-keyboard-response","55","233132","0.0-6.0-4.0-0.7","pasy3nj0f2","many_one","0","indirect_first","0","neiako08","0","24","1","1","4","1","Ich hätte es schön gefunden, wenn der Bearbeitungsfortschritt in Prozent angezeigt worden wäre.","0","1","0","null","","","<div class = 'row'><div class = 'column'><img src = 'usneg/9830.bmp' width = '100%;'></div><div class = 'column'><img src = 'category3/CS3.png' width = '70%;'></div></div>","null","neg","CS","CS","3","category3/CS3.png","","","","",""
"","html-keyboard-response","56","235672","0.0-6.0-4.0-0.8","pasy3nj0f2","many_one","0","indirect_first","0","neiako08","0","24","1","1","4","1","Ich hätte es schön gefunden, wenn der Bearbeitungsfortschritt in Prozent angezeigt worden wäre.","0","1","0","null","","","<div class = 'row'><div class = 'column'><img src = 'category3/CS5.png' width = '70%;'></div><div class = 'column'><img src = 'usneg/2750.bmp' width = '100%;'></div></div>","null","neg","CS","CS","3","category3/CS5.png","","","","",""
"","html-keyboard-response","57","238203","0.0-6.0-4.0-0.9","pasy3nj0f2","many_one","0","indirect_first","0","neiako08","0","24","1","1","4","1","Ich hätte es schön gefunden, wenn der Bearbeitungsfortschritt in Prozent angezeigt worden wäre.","0","1","0","null","","","<div class = 'row'><div class = 'column'><img src = 'usneg/8485.bmp' width = '100%;'></div><div class = 'column'><img src = 'category2/CS5.png' width = '70%;'></div></div>","null","neg","CS","CS","2","category2/CS5.png","","","","",""
"","html-keyboard-response","58","240732","0.0-6.0-4.0-0.10","pasy3nj0f2","many_one","0","indirect_first","0","neiako08","0","24","1","1","4","1","Ich hätte es schön gefunden, wenn der Bearbeitungsfortschritt in Prozent angezeigt worden wäre.","0","1","0","null","","","<div class = 'row'><div class = 'column'><img src = 'usneg/9180.bmp' width = '100%;'></div><div class = 'column'><img src = 'category2/CS8.png' width = '70%;'></div></div>","null","neg","CS","CS","2","category2/CS8.png","","","","",""
"","html-keyboard-response","59","243262","0.0-6.0-4.0-0.11","pasy3nj0f2","many_one","0","indirect_first","0","neiako08","0","24","1","1","4","1","Ich hätte es schön gefunden, wenn der Bearbeitungsfortschritt in Prozent angezeigt worden wäre.","0","1","0","null","","","<div class = 'row'><div class = 'column'><img src = 'uspos/1710.bmp' width = '100%;'></div><div class = 'column'><img src = 'category4/CS9.png' width = '70%;'></div></div>","null","pos","CS","CS","4","category4/CS9.png","","","","",""
"","html-keyboard-response","60","245772","0.0-6.0-4.0-0.12","pasy3nj0f2","many_one","0","indirect_first","0","neiako08","0","24","1","1","4","1","Ich hätte es schön gefunden, wenn der Bearbeitungsfortschritt in Prozent angezeigt worden wäre.","0","1","0","null","","","<div class = 'row'><div class = 'column'><img src = 'uspos/2360.bmp' width = '100%;'></div><div class = 'column'><img src = 'category1/CS7.png' width = '70%;'></div></div>","null","pos","CS","CS","1","category1/CS7.png","","","","",""
"","html-keyboard-response","61","248292","0.0-6.0-4.0-0.13","pasy3nj0f2","many_one","0","indirect_first","0","neiako08","0","24","1","1","4","1","Ich hätte es schön gefunden, wenn der Bearbeitungsfortschritt in Prozent angezeigt worden wäre.","0","1","0","null","","","<div class = 'row'><div class = 'column'><img src = 'usneg/9421.bmp' width = '100%;'></div><div class = 'column'><img src = 'category2/CS6.png' width = '70%;'></div></div>","null","neg","CS","CS","2","category2/CS6.png","","","","",""
"","html-keyboard-response","62","250822","0.0-6.0-4.0-0.14","pasy3nj0f2","many_one","0","indirect_first","0","neiako08","0","24","1","1","4","1","Ich hätte es schön gefunden, wenn der Bearbeitungsfortschritt in Prozent angezeigt worden wäre.","0","1","0","null","","","<div class = 'row'><div class = 'column'><img src = 'usneg/9181.bmp' width = '100%;'></div><div class = 'column'><img src = 'category3/CS4.png' width = '70%;'></div></div>","null","neg","CS","CS","3","category3/CS4.png","","","","",""
"","html-keyboard-response","63","253342","0.0-6.0-4.0-0.15","pasy3nj0f2","many_one","0","indirect_first","0","neiako08","0","24","1","1","4","1","Ich hätte es schön gefunden, wenn der Bearbeitungsfortschritt in Prozent angezeigt worden wäre.","0","1","0","null","","","<div class = 'row'><div class = 'column'><img src = 'category4/CS7.png' width = '70%;'></div><div class = 'column'><img src = 'uspos/2340.bmp' width = '100%;'></div></div>","null","pos","CS","CS","4","category4/CS7.png","","","","",""
"","html-keyboard-response","64","255853","0.0-6.0-4.0-0.16","pasy3nj0f2","many_one","0","indirect_first","0","neiako08","0","24","1","1","4","1","Ich hätte es schön gefunden, wenn der Bearbeitungsfortschritt in Prozent angezeigt worden wäre.","0","1","0","null","","","<div class = 'row'><div class = 'column'><img src = 'category1/CS5.png' width = '70%;'></div><div class = 'column'><img src = 'uspos/8350.bmp' width = '100%;'></div></div>","null","pos","CS","CS","1","category1/CS5.png","","","","",""
"","html-keyboard-response","65","258382","0.0-6.0-4.0-0.17","pasy3nj0f2","many_one","0","indirect_first","0","neiako08","0","24","1","1","4","1","Ich hätte es schön gefunden, wenn der Bearbeitungsfortschritt in Prozent angezeigt worden wäre.","0","1","0","null","","","<div class = 'row'><div class = 'column'><img src = 'category2/CS4.png' width = '70%;'></div><div class = 'column'><img src = 'usneg/2900.bmp' width = '100%;'></div></div>","null","neg","CS","CS","2","category2/CS4.png","","","","",""
"","html-keyboard-response","66","260913","0.0-6.0-4.0-0.18","pasy3nj0f2","many_one","0","indirect_first","0","neiako08","0","24","1","1","4","1","Ich hätte es schön gefunden, wenn der Bearbeitungsfortschritt in Prozent angezeigt worden wäre.","0","1","0","null","","","<div class = 'row'><div class = 'column'><img src = 'uspos/2341.bmp' width = '100%;'></div><div class = 'column'><img src = 'category1/CS3.png' width = '70%;'></div></div>","null","pos","CS","CS","1","category1/CS3.png","","","","",""
"","html-keyboard-response","67","263442","0.0-6.0-4.0-0.19","pasy3nj0f2","many_one","0","indirect_first","0","neiako08","0","24","1","1","4","1","Ich hätte es schön gefunden, wenn der Bearbeitungsfortschritt in Prozent angezeigt worden wäre.","0","1","0","null","","","<div class = 'row'><div class = 'column'><img src = 'uspos/1463.bmp' width = '100%;'></div><div class = 'column'><img src = 'category4/CS6.png' width = '70%;'></div></div>","null","pos","CS","CS","4","category4/CS6.png","","","","",""
"","survey-html-form","68","270123","0.0-6.0-5.0","pasy3nj0f2","many_one","0","indirect_first","0","neiako08","0","24","1","1","4","1","Ich hätte es schön gefunden, wenn der Bearbeitungsfortschritt in Prozent angezeigt worden wäre.","0","1","0","6181","","{}","","","","","","","","","","","",""
"","html-keyboard-response","69","274143","0.0-6.0-6.0-0.0","pasy3nj0f2","many_one","0","indirect_first","0","neiako08","0","24","1","1","4","1","Ich hätte es schön gefunden, wenn der Bearbeitungsfortschritt in Prozent angezeigt worden wäre.","0","1","0","null","","","<div class = 'row'><div class = 'column'><img src = 'usneg/3160.bmp' width = '100%;'></div><div class = 'column'><img src = 'category3/CS7.png' width = '70%;'></div></div>","null","neg","CS","CS","3","category3/CS7.png","","","","",""
"","html-keyboard-response","70","276673","0.0-6.0-6.0-0.1","pasy3nj0f2","many_one","0","indirect_first","0","neiako08","0","24","1","1","4","1","Ich hätte es schön gefunden, wenn der Bearbeitungsfortschritt in Prozent angezeigt worden wäre.","0","1","0","null","","","<div class = 'row'><div class = 'column'><img src = 'usneg/2750.bmp' width = '100%;'></div><div class = 'column'><img src = 'category3/CS5.png' width = '70%;'></div></div>","null","neg","CS","CS","3","category3/CS5.png","","","","",""
"","html-keyboard-response","71","279192","0.0-6.0-6.0-0.2","pasy3nj0f2","many_one","0","indirect_first","0","neiako08","0","24","1","1","4","1","Ich hätte es schön gefunden, wenn der Bearbeitungsfortschritt in Prozent angezeigt worden wäre.","0","1","0","null","","","<div class = 'row'><div class = 'column'><img src = 'uspos/1710.bmp' width = '100%;'></div><div class = 'column'><img src = 'category4/CS9.png' width = '70%;'></div></div>","null","pos","CS","CS","4","category4/CS9.png","","","","",""
"","html-keyboard-response","72","281733","0.0-6.0-6.0-0.3","pasy3nj0f2","many_one","0","indirect_first","0","neiako08","0","24","1","1","4","1","Ich hätte es schön gefunden, wenn der Bearbeitungsfortschritt in Prozent angezeigt worden wäre.","0","1","0","null","","","<div class = 'row'><div class = 'column'><img src = 'category4/CS6.png' width = '70%;'></div><div class = 'column'><img src = 'uspos/1463.bmp' width = '100%;'></div></div>","null","pos","CS","CS","4","category4/CS6.png","","","","",""
"","html-keyboard-response","73","284263","0.0-6.0-6.0-0.4","pasy3nj0f2","many_one","0","indirect_first","0","neiako08","0","24","1","1","4","1","Ich hätte es schön gefunden, wenn der Bearbeitungsfortschritt in Prozent angezeigt worden wäre.","0","1","0","null","","","<div class = 'row'><div class = 'column'><img src = 'usneg/2900.bmp' width = '100%;'></div><div class = 'column'><img src = 'category2/CS4.png' width = '70%;'></div></div>","null","neg","CS","CS","2","category2/CS4.png","","","","",""
"","html-keyboard-response","74","286792","0.0-6.0-6.0-0.5","pasy3nj0f2","many_one","0","indirect_first","0","neiako08","0","24","1","1","4","1","Ich hätte es schön gefunden, wenn der Bearbeitungsfortschritt in Prozent angezeigt worden wäre.","0","1","0","null","","","<div class = 'row'><div class = 'column'><img src = 'usneg/9180.bmp' width = '100%;'></div><div class = 'column'><img src = 'category2/CS8.png' width = '70%;'></div></div>","null","neg","CS","CS","2","category2/CS8.png","","","","",""
"","html-keyboard-response","75","289312","0.0-6.0-6.0-0.6","pasy3nj0f2","many_one","0","indirect_first","0","neiako08","0","24","1","1","4","1","Ich hätte es schön gefunden, wenn der Bearbeitungsfortschritt in Prozent angezeigt worden wäre.","0","1","0","null","","","<div class = 'row'><div class = 'column'><img src = 'category1/CS1.png' width = '70%;'></div><div class = 'column'><img src = 'uspos/5700.bmp' width = '100%;'></div></div>","null","pos","CS","CS","1","category1/CS1.png","","","","",""
"","html-keyboard-response","76","291842","0.0-6.0-6.0-0.7","pasy3nj0f2","many_one","0","indirect_first","0","neiako08","0","24","1","1","4","1","Ich hätte es schön gefunden, wenn der Bearbeitungsfortschritt in Prozent angezeigt worden wäre.","0","1","0","null","","","<div class = 'row'><div class = 'column'><img src = 'category1/CS3.png' width = '70%;'></div><div class = 'column'><img src = 'uspos/2341.bmp' width = '100%;'></div></div>","null","pos","CS","CS","1","category1/CS3.png","","","","",""
"","html-keyboard-response","77","294372","0.0-6.0-6.0-0.8","pasy3nj0f2","many_one","0","indirect_first","0","neiako08","0","24","1","1","4","1","Ich hätte es schön gefunden, wenn der Bearbeitungsfortschritt in Prozent angezeigt worden wäre.","0","1","0","null","","","<div class = 'row'><div class = 'column'><img src = 'usneg/9421.bmp' width = '100%;'></div><div class = 'column'><img src = 'category2/CS6.png' width = '70%;'></div></div>","null","neg","CS","CS","2","category2/CS6.png","","","","",""
"","html-keyboard-response","78","296893","0.0-6.0-6.0-0.9","pasy3nj0f2","many_one","0","indirect_first","0","neiako08","0","24","1","1","4","1","Ich hätte es schön gefunden, wenn der Bearbeitungsfortschritt in Prozent angezeigt worden wäre.","0","1","0","null","","","<div class = 'row'><div class = 'column'><img src = 'uspos/1460.bmp' width = '100%;'></div><div class = 'column'><img src = 'category4/CS3.png' width = '70%;'></div></div>","null","pos","CS","CS","4","category4/CS3.png","","","","",""
"","html-keyboard-response","79","299422","0.0-6.0-6.0-0.10","pasy3nj0f2","many_one","0","indirect_first","0","neiako08","0","24","1","1","4","1","Ich hätte es schön gefunden, wenn der Bearbeitungsfortschritt in Prozent angezeigt worden wäre.","0","1","0","null","","","<div class = 'row'><div class = 'column'><img src = 'category4/CS4.png' width = '70%;'></div><div class = 'column'><img src = 'uspos/5831.bmp' width = '100%;'></div></div>","null","pos","CS","CS","4","category4/CS4.png","","","","",""
"","html-keyboard-response","80","301952","0.0-6.0-6.0-0.11","pasy3nj0f2","many_one","0","indirect_first","0","neiako08","0","24","1","1","4","1","Ich hätte es schön gefunden, wenn der Bearbeitungsfortschritt in Prozent angezeigt worden wäre.","0","1","0","null","","","<div class = 'row'><div class = 'column'><img src = 'category1/CS4.png' width = '70%;'></div><div class = 'column'><img src = 'uspos/2040.bmp' width = '100%;'></div></div>","null","pos","CS","CS","1","category1/CS4.png","","","","",""
"","html-keyboard-response","81","304472","0.0-6.0-6.0-0.12","pasy3nj0f2","many_one","0","indirect_first","0","neiako08","0","24","1","1","4","1","Ich hätte es schön gefunden, wenn der Bearbeitungsfortschritt in Prozent angezeigt worden wäre.","0","1","0","null","","","<div class = 'row'><div class = 'column'><img src = 'usneg/9830.bmp' width = '100%;'></div><div class = 'column'><img src = 'category3/CS3.png' width = '70%;'></div></div>","null","neg","CS","CS","3","category3/CS3.png","","","","",""
"","html-keyboard-response","82","307003","0.0-6.0-6.0-0.13","pasy3nj0f2","many_one","0","indirect_first","0","neiako08","0","24","1","1","4","1","Ich hätte es schön gefunden, wenn der Bearbeitungsfortschritt in Prozent angezeigt worden wäre.","0","1","0","null","","","<div class = 'row'><div class = 'column'><img src = 'usneg/8485.bmp' width = '100%;'></div><div class = 'column'><img src = 'category2/CS5.png' width = '70%;'></div></div>","null","neg","CS","CS","2","category2/CS5.png","","","","",""
"","html-keyboard-response","83","309533","0.0-6.0-6.0-0.14","pasy3nj0f2","many_one","0","indirect_first","0","neiako08","0","24","1","1","4","1","Ich hätte es schön gefunden, wenn der Bearbeitungsfortschritt in Prozent angezeigt worden wäre.","0","1","0","null","","","<div class = 'row'><div class = 'column'><img src = 'uspos/8350.bmp' width = '100%;'></div><div class = 'column'><img src = 'category1/CS5.png' width = '70%;'></div></div>","null","pos","CS","CS","1","category1/CS5.png","","","","",""
"","html-keyboard-response","84","312048","0.0-6.0-6.0-0.15","pasy3nj0f2","many_one","0","indirect_first","0","neiako08","0","24","1","1","4","1","Ich hätte es schön gefunden, wenn der Bearbeitungsfortschritt in Prozent angezeigt worden wäre.","0","1","0","null","","","<div class = 'row'><div class = 'column'><img src = 'usneg/2205.bmp' width = '100%;'></div><div class = 'column'><img src = 'category2/CS2.png' width = '70%;'></div></div>","null","neg","CS","CS","2","category2/CS2.png","","","","",""
"","html-keyboard-response","85","314553","0.0-6.0-6.0-0.16","pasy3nj0f2","many_one","0","indirect_first","0","neiako08","0","24","1","1","4","1","Ich hätte es schön gefunden, wenn der Bearbeitungsfortschritt in Prozent angezeigt worden wäre.","0","1","0","null","","","<div class = 'row'><div class = 'column'><img src = 'uspos/2340.bmp' width = '100%;'></div><div class = 'column'><img src = 'category4/CS7.png' width = '70%;'></div></div>","null","pos","CS","CS","4","category4/CS7.png","","","","",""
"","html-keyboard-response","86","317083","0.0-6.0-6.0-0.17","pasy3nj0f2","many_one","0","indirect_first","0","neiako08","0","24","1","1","4","1","Ich hätte es schön gefunden, wenn der Bearbeitungsfortschritt in Prozent angezeigt worden wäre.","0","1","0","null","","","<div class = 'row'><div class = 'column'><img src = 'category3/CS4.png' width = '70%;'></div><div class = 'column'><img src = 'usneg/9181.bmp' width = '100%;'></div></div>","null","neg","CS","CS","3","category3/CS4.png","","","","",""
"","html-keyboard-response","87","319612","0.0-6.0-6.0-0.18","pasy3nj0f2","many_one","0","indirect_first","0","neiako08","0","24","1","1","4","1","Ich hätte es schön gefunden, wenn der Bearbeitungsfortschritt in Prozent angezeigt worden wäre.","0","1","0","null","","","<div class = 'row'><div class = 'column'><img src = 'uspos/2360.bmp' width = '100%;'></div><div class = 'column'><img src = 'category1/CS7.png' width = '70%;'></div></div>","null","pos","CS","CS","1","category1/CS7.png","","","","",""
"","html-keyboard-response","88","322152","0.0-6.0-6.0-0.19","pasy3nj0f2","many_one","0","indirect_first","0","neiako08","0","24","1","1","4","1","Ich hätte es schön gefunden, wenn der Bearbeitungsfortschritt in Prozent angezeigt worden wäre.","0","1","0","null","","","<div class = 'row'><div class = 'column'><img src = 'usneg/9330.bmp' width = '100%;'></div><div class = 'column'><img src = 'category3/CS6.png' width = '70%;'></div></div>","null","neg","CS","CS","3","category3/CS6.png","","","","",""
"","html-keyboard-response","89","336066","0.0-7.0","pasy3nj0f2","many_one","0","indirect_first","0","neiako08","0","24","1","1","4","1","Ich hätte es schön gefunden, wenn der Bearbeitungsfortschritt in Prozent angezeigt worden wäre.","0","1","0","13402","","","<p>Sie sehen nun die chinesischen Zeichen nur ganz kurz. Danach sehen Sie die jeweilige Aussprache der Zeichen als Silbe auf dem Bildschrim. Ihre Aufgabe ist es, für jede Silbe anzugeben, ob diese etwas angenehmes, oder unangenehmes bedeuten könnte. Verlassen Sie sich hier vor allem auf Ihre Intuition.<br><br>Die Zeichen werden nur zur Orientierung dargestellt, beachten Sie sie deshalb nicht. Konzentrieren Sie sich vor allem auf die Silben. <br>Reagieren Sie mit folgenden zwei Tasten: <br><br><b>'D' </b> wenn die Silbe etwas <b>unangenehmes</b> bedeuten könnte. <br><b>'K'</b> wenn die Silbe etwas <b>angenehmes</b> bedeuten könnte. <br><br>Bitte legen Sie nun den Zeigefinger der linken Hand auf die Taste 'D' und den Zeigefinger der rechten Hand auf die Taste 'K'. <br>Reagieren Sie auf jede Silbe so schnell wie möglich. Uns interessiert Ihre spontane Reaktion. <br> <br> <br>Drücken Sie 'D' oder 'K', um die nächste Aufgabe zu starten. </p>","68","","","","","","","","","",""
"","html-keyboard-response","90","339083","0.0-8.0-0.0","pasy3nj0f2","many_one","0","indirect_first","0","neiako08","0","24","1","1","4","1","Ich hätte es schön gefunden, wenn der Bearbeitungsfortschritt in Prozent angezeigt worden wäre.","0","1","0","null","","","<div style=""font-size:60px;"">+</div>","null","","","","","","","","","",""
"","html-keyboard-response","91","339190","0.0-8.0-1.0","pasy3nj0f2","many_one","0","indirect_first","0","neiako08","0","24","1","1","4","1","Ich hätte es schön gefunden, wenn der Bearbeitungsfortschritt in Prozent angezeigt worden wäre.","0","1","0","null","","","<img src = 'category2/CS4.png' width = '100%;'>","null","","","","","","","","","",""
"","html-keyboard-response","92","339452","0.0-8.0-2.0","pasy3nj0f2","many_one","0","indirect_first","0","neiako08","0","24","1","1","4","1","Ich hätte es schön gefunden, wenn der Bearbeitungsfortschritt in Prozent angezeigt worden wäre.","0","1","0","null","","","<img src = 'targets/2.png' width = '100%;'>","null","","","","","","","","","",""
"","html-keyboard-response","93","342085","0.0-8.0-3.0","pasy3nj0f2","many_one","0","indirect_first","0","neiako08","0","24","1","1","4","1","Ich hätte es schön gefunden, wenn der Bearbeitungsfortschritt in Prozent angezeigt worden wäre.","0","1","0","2630","","","<img src = 'targets/mask.png' width = '100%;'>","68","neg","CS","CS","2","category2/CS4.png","targets/2.png","0","indirect","0",""
"","html-keyboard-response","94","343603","0.0-8.0-0.1","pasy3nj0f2","many_one","0","indirect_first","0","neiako08","0","24","1","1","4","1","Ich hätte es schön gefunden, wenn der Bearbeitungsfortschritt in Prozent angezeigt worden wäre.","0","1","0","null","","","<div style=""font-size:60px;"">+</div>","null","","","","","","","","","",""
"","html-keyboard-response","95","343705","0.0-8.0-1.1","pasy3nj0f2","many_one","0","indirect_first","0","neiako08","0","24","1","1","4","1","Ich hätte es schön gefunden, wenn der Bearbeitungsfortschritt in Prozent angezeigt worden wäre.","0","1","0","null","","","<img src = 'category2/CS2.png' width = '100%;'>","null","","","","","","","","","",""
"","html-keyboard-response","96","343972","0.0-8.0-2.1","pasy3nj0f2","many_one","0","indirect_first","0","neiako08","0","24","1","1","4","1","Ich hätte es schön gefunden, wenn der Bearbeitungsfortschritt in Prozent angezeigt worden wäre.","0","1","0","null","","","<img src = 'targets/15.png' width = '100%;'>","null","","","","","","","","","",""
"","html-keyboard-response","97","346360","0.0-8.0-3.1","pasy3nj0f2","many_one","0","indirect_first","0","neiako08","0","24","1","1","4","1","Ich hätte es schön gefunden, wenn der Bearbeitungsfortschritt in Prozent angezeigt worden wäre.","0","1","0","2386","","","<img src = 'targets/mask.png' width = '100%;'>","75","neg","CS","CS","2","category2/CS2.png","targets/15.png","1","indirect","1",""
"","html-keyboard-response","98","347872","0.0-8.0-0.2","pasy3nj0f2","many_one","0","indirect_first","0","neiako08","0","24","1","1","4","1","Ich hätte es schön gefunden, wenn der Bearbeitungsfortschritt in Prozent angezeigt worden wäre.","0","1","0","null","","","<div style=""font-size:60px;"">+</div>","null","","","","","","","","","",""
"","html-keyboard-response","99","347971","0.0-8.0-1.2","pasy3nj0f2","many_one","0","indirect_first","0","neiako08","0","24","1","1","4","1","Ich hätte es schön gefunden, wenn der Bearbeitungsfortschritt in Prozent angezeigt worden wäre.","0","1","0","null","","","<img src = 'category4/CS7.png' width = '100%;'>","null","","","","","","","","","",""
"","html-keyboard-response","100","348237","0.0-8.0-2.2","pasy3nj0f2","many_one","0","indirect_first","0","neiako08","0","24","1","1","4","1","Ich hätte es schön gefunden, wenn der Bearbeitungsfortschritt in Prozent angezeigt worden wäre.","0","1","0","null","","","<img src = 'targets/11.png' width = '100%;'>","null","","","","","","","","","",""
"","html-keyboard-response","101","349654","0.0-8.0-3.2","pasy3nj0f2","many_one","0","indirect_first","0","neiako08","0","24","1","1","4","1","Ich hätte es schön gefunden, wenn der Bearbeitungsfortschritt in Prozent angezeigt worden wäre.","0","1","0","1416","","","<img src = 'targets/mask.png' width = '100%;'>","68","pos","CS","CS","4","category4/CS7.png","targets/11.png","0","indirect","2",""
"","html-keyboard-response","102","351173","0.0-8.0-0.3","pasy3nj0f2","many_one","0","indirect_first","0","neiako08","0","24","1","1","4","1","Ich hätte es schön gefunden, wenn der Bearbeitungsfortschritt in Prozent angezeigt worden wäre.","0","1","0","null","","","<div style=""font-size:60px;"">+</div>","null","","","","","","","","","",""
"","html-keyboard-response","103","351269","0.0-8.0-1.3","pasy3nj0f2","many_one","0","indirect_first","0","neiako08","0","24","1","1","4","1","Ich hätte es schön gefunden, wenn der Bearbeitungsfortschritt in Prozent angezeigt worden wäre.","0","1","0","null","","","<img src = 'category3/CS4.png' width = '100%;'>","null","","","","","","","","","",""
"","html-keyboard-response","104","351535","0.0-8.0-2.3","pasy3nj0f2","many_one","0","indirect_first","0","neiako08","0","24","1","1","4","1","Ich hätte es schön gefunden, wenn der Bearbeitungsfortschritt in Prozent angezeigt worden wäre.","0","1","0","null","","","<img src = 'targets/41.png' width = '100%;'>","null","","","","","","","","","",""
"","html-keyboard-response","105","352285","0.0-8.0-3.3","pasy3nj0f2","many_one","0","indirect_first","0","neiako08","0","24","1","1","4","1","Ich hätte es schön gefunden, wenn der Bearbeitungsfortschritt in Prozent angezeigt worden wäre.","0","1","0","749","","","<img src = 'targets/mask.png' width = '100%;'>","68","neg","CS","CS","3","category3/CS4.png","targets/41.png","0","indirect","3",""
"","html-keyboard-response","106","353822","0.0-8.0-0.4","pasy3nj0f2","many_one","0","indirect_first","0","neiako08","0","24","1","1","4","1","Ich hätte es schön gefunden, wenn der Bearbeitungsfortschritt in Prozent angezeigt worden wäre.","0","1","0","null","","","<div style=""font-size:60px;"">+</div>","null","","","","","","","","","",""
"","html-keyboard-response","107","353933","0.0-8.0-1.4","pasy3nj0f2","many_one","0","indirect_first","0","neiako08","0","24","1","1","4","1","Ich hätte es schön gefunden, wenn der Bearbeitungsfortschritt in Prozent angezeigt worden wäre.","0","1","0","null","","","<img src = 'category3/CS6.png' width = '100%;'>","null","","","","","","","","","",""
"","html-keyboard-response","108","354201","0.0-8.0-2.4","pasy3nj0f2","many_one","0","indirect_first","0","neiako08","0","24","1","1","4","1","Ich hätte es schön gefunden, wenn der Bearbeitungsfortschritt in Prozent angezeigt worden wäre.","0","1","0","null","","","<img src = 'targets/39.png' width = '100%;'>","null","","","","","","","","","",""
"","html-keyboard-response","109","355056","0.0-8.0-3.4","pasy3nj0f2","many_one","0","indirect_first","0","neiako08","0","24","1","1","4","1","Ich hätte es schön gefunden, wenn der Bearbeitungsfortschritt in Prozent angezeigt worden wäre.","0","1","0","853","","","<img src = 'targets/mask.png' width = '100%;'>","68","neg","CS","CS","3","category3/CS6.png","targets/39.png","0","indirect","4",""
"","html-keyboard-response","110","356582","0.0-8.0-0.5","pasy3nj0f2","many_one","0","indirect_first","0","neiako08","0","24","1","1","4","1","Ich hätte es schön gefunden, wenn der Bearbeitungsfortschritt in Prozent angezeigt worden wäre.","0","1","0","null","","","<div style=""font-size:60px;"">+</div>","null","","","","","","","","","",""
"","html-keyboard-response","111","356682","0.0-8.0-1.5","pasy3nj0f2","many_one","0","indirect_first","0","neiako08","0","24","1","1","4","1","Ich hätte es schön gefunden, wenn der Bearbeitungsfortschritt in Prozent angezeigt worden wäre.","0","1","0","null","","","<img src = 'category4/CS9.png' width = '100%;'>","null","","","","","","","","","",""
"","html-keyboard-response","112","356950","0.0-8.0-2.5","pasy3nj0f2","many_one","0","indirect_first","0","neiako08","0","24","1","1","4","1","Ich hätte es schön gefunden, wenn der Bearbeitungsfortschritt in Prozent angezeigt worden wäre.","0","1","0","null","","","<img src = 'targets/35.png' width = '100%;'>","null","","","","","","","","","",""
"","html-keyboard-response","113","358137","0.0-8.0-3.5","pasy3nj0f2","many_one","0","indirect_first","0","neiako08","0","24","1","1","4","1","Ich hätte es schön gefunden, wenn der Bearbeitungsfortschritt in Prozent angezeigt worden wäre.","0","1","0","1186","","","<img src = 'targets/mask.png' width = '100%;'>","68","pos","CS","CS","4","category4/CS9.png","targets/35.png","0","indirect","5",""
"","html-keyboard-response","114","359662","0.0-8.0-0.6","pasy3nj0f2","many_one","0","indirect_first","0","neiako08","0","24","1","1","4","1","Ich hätte es schön gefunden, wenn der Bearbeitungsfortschritt in Prozent angezeigt worden wäre.","0","1","0","null","","","<div style=""font-size:60px;"">+</div>","null","","","","","","","","","",""
"","html-keyboard-response","115","359765","0.0-8.0-1.6","pasy3nj0f2","many_one","0","indirect_first","0","neiako08","0","24","1","1","4","1","Ich hätte es schön gefunden, wenn der Bearbeitungsfortschritt in Prozent angezeigt worden wäre.","0","1","0","null","","","<img src = 'category3/CS8.png' width = '100%;'>","null","","","","","","","","","",""
"","html-keyboard-response","116","360032","0.0-8.0-2.6","pasy3nj0f2","many_one","0","indirect_first","0","neiako08","0","24","1","1","4","1","Ich hätte es schön gefunden, wenn der Bearbeitungsfortschritt in Prozent angezeigt worden wäre.","0","1","0","null","","","<img src = 'targets/44.png' width = '100%;'>","null","","","","","","","","","",""
"","html-keyboard-response","117","360530","0.0-8.0-3.6","pasy3nj0f2","many_one","0","indirect_first","0","neiako08","0","24","1","1","4","1","Ich hätte es schön gefunden, wenn der Bearbeitungsfortschritt in Prozent angezeigt worden wäre.","0","1","0","497","","","<img src = 'targets/mask.png' width = '100%;'>","68","neg","GS","GSold","3","category3/CS8.png","targets/44.png","0","indirect","6",""
"","html-keyboard-response","118","362052","0.0-8.0-0.7","pasy3nj0f2","many_one","0","indirect_first","0","neiako08","0","24","1","1","4","1","Ich hätte es schön gefunden, wenn der Bearbeitungsfortschritt in Prozent angezeigt worden wäre.","0","1","0","null","","","<div style=""font-size:60px;"">+</div>","null","","","","","","","","","",""
"","html-keyboard-response","119","362147","0.0-8.0-1.7","pasy3nj0f2","many_one","0","indirect_first","0","neiako08","0","24","1","1","4","1","Ich hätte es schön gefunden, wenn der Bearbeitungsfortschritt in Prozent angezeigt worden wäre.","0","1","0","null","","","<img src = 'category1/CS3.png' width = '100%;'>","null","","","","","","","","","",""
"","html-keyboard-response","120","362413","0.0-8.0-2.7","pasy3nj0f2","many_one","0","indirect_first","0","neiako08","0","24","1","1","4","1","Ich hätte es schön gefunden, wenn der Bearbeitungsfortschritt in Prozent angezeigt worden wäre.","0","1","0","null","","","<img src = 'targets/16.png' width = '100%;'>","null","","","","","","","","","",""
"","html-keyboard-response","121","362775","0.0-8.0-3.7","pasy3nj0f2","many_one","0","indirect_first","0","neiako08","0","24","1","1","4","1","Ich hätte es schön gefunden, wenn der Bearbeitungsfortschritt in Prozent angezeigt worden wäre.","0","1","0","360","","","<img src = 'targets/mask.png' width = '100%;'>","68","pos","CS","CS","1","category1/CS3.png","targets/16.png","0","indirect","7",""
"","html-keyboard-response","122","364302","0.0-8.0-0.8","pasy3nj0f2","many_one","0","indirect_first","0","neiako08","0","24","1","1","4","1","Ich hätte es schön gefunden, wenn der Bearbeitungsfortschritt in Prozent angezeigt worden wäre.","0","1","0","null","","","<div style=""font-size:60px;"">+</div>","null","","","","","","","","","",""
"","html-keyboard-response","123","364395","0.0-8.0-1.8","pasy3nj0f2","many_one","0","indirect_first","0","neiako08","0","24","1","1","4","1","Ich hätte es schön gefunden, wenn der Bearbeitungsfortschritt in Prozent angezeigt worden wäre.","0","1","0","null","","","<img src = 'category2/CS8.png' width = '100%;'>","null","","","","","","","","","",""
"","html-keyboard-response","124","364662","0.0-8.0-2.8","pasy3nj0f2","many_one","0","indirect_first","0","neiako08","0","24","1","1","4","1","Ich hätte es schön gefunden, wenn der Bearbeitungsfortschritt in Prozent angezeigt worden wäre.","0","1","0","null","","","<img src = 'targets/38.png' width = '100%;'>","null","","","","","","","","","",""
"","html-keyboard-response","125","365293","0.0-8.0-3.8","pasy3nj0f2","many_one","0","indirect_first","0","neiako08","0","24","1","1","4","1","Ich hätte es schön gefunden, wenn der Bearbeitungsfortschritt in Prozent angezeigt worden wäre.","0","1","0","630","","","<img src = 'targets/mask.png' width = '100%;'>","68","neg","CS","CS","2","category2/CS8.png","targets/38.png","0","indirect","8",""
"","html-keyboard-response","126","366832","0.0-8.0-0.9","pasy3nj0f2","many_one","0","indirect_first","0","neiako08","0","24","1","1","4","1","Ich hätte es schön gefunden, wenn der Bearbeitungsfortschritt in Prozent angezeigt worden wäre.","0","1","0","null","","","<div style=""font-size:60px;"">+</div>","null","","","","","","","","","",""
"","html-keyboard-response","127","366927","0.0-8.0-1.9","pasy3nj0f2","many_one","0","indirect_first","0","neiako08","0","24","1","1","4","1","Ich hätte es schön gefunden, wenn der Bearbeitungsfortschritt in Prozent angezeigt worden wäre.","0","1","0","null","","","<img src = 'category3/CS3.png' width = '100%;'>","null","","","","","","","","","",""
"","html-keyboard-response","128","367194","0.0-8.0-2.9","pasy3nj0f2","many_one","0","indirect_first","0","neiako08","0","24","1","1","4","1","Ich hätte es schön gefunden, wenn der Bearbeitungsfortschritt in Prozent angezeigt worden wäre.","0","1","0","null","","","<img src = 'targets/45.png' width = '100%;'>","null","","","","","","","","","",""
"","html-keyboard-response","129","367844","0.0-8.0-3.9","pasy3nj0f2","many_one","0","indirect_first","0","neiako08","0","24","1","1","4","1","Ich hätte es schön gefunden, wenn der Bearbeitungsfortschritt in Prozent angezeigt worden wäre.","0","1","0","649","","","<img src = 'targets/mask.png' width = '100%;'>","68","neg","CS","CS","3","category3/CS3.png","targets/45.png","0","indirect","9",""
"","html-keyboard-response","130","369383","0.0-8.0-0.10","pasy3nj0f2","many_one","0","indirect_first","0","neiako08","0","24","1","1","4","1","Ich hätte es schön gefunden, wenn der Bearbeitungsfortschritt in Prozent angezeigt worden wäre.","0","1","0","null","","","<div style=""font-size:60px;"">+</div>","null","","","","","","","","","",""
"","html-keyboard-response","131","369478","0.0-8.0-1.10","pasy3nj0f2","many_one","0","indirect_first","0","neiako08","0","24","1","1","4","1","Ich hätte es schön gefunden, wenn der Bearbeitungsfortschritt in Prozent angezeigt worden wäre.","0","1","0","null","","","<img src = 'category2/CS6.png' width = '100%;'>","null","","","","","","","","","",""
"","html-keyboard-response","132","369743","0.0-8.0-2.10","pasy3nj0f2","many_one","0","indirect_first","0","neiako08","0","24","1","1","4","1","Ich hätte es schön gefunden, wenn der Bearbeitungsfortschritt in Prozent angezeigt worden wäre.","0","1","0","null","","","<img src = 'targets/22.png' width = '100%;'>","null","","","","","","","","","",""
"","html-keyboard-response","133","370393","0.0-8.0-3.10","pasy3nj0f2","many_one","0","indirect_first","0","neiako08","0","24","1","1","4","1","Ich hätte es schön gefunden, wenn der Bearbeitungsfortschritt in Prozent angezeigt worden wäre.","0","1","0","649","","","<img src = 'targets/mask.png' width = '100%;'>","68","neg","CS","CS","2","category2/CS6.png","targets/22.png","0","indirect","10",""
"","html-keyboard-response","134","371932","0.0-8.0-0.11","pasy3nj0f2","many_one","0","indirect_first","0","neiako08","0","24","1","1","4","1","Ich hätte es schön gefunden, wenn der Bearbeitungsfortschritt in Prozent angezeigt worden wäre.","0","1","0","null","","","<div style=""font-size:60px;"">+</div>","null","","","","","","","","","",""
"","html-keyboard-response","135","372026","0.0-8.0-1.11","pasy3nj0f2","many_one","0","indirect_first","0","neiako08","0","24","1","1","4","1","Ich hätte es schön gefunden, wenn der Bearbeitungsfortschritt in Prozent angezeigt worden wäre.","0","1","0","null","","","<img src = 'category1/CS5.png' width = '100%;'>","null","","","","","","","","","",""
"","html-keyboard-response","136","372293","0.0-8.0-2.11","pasy3nj0f2","many_one","0","indirect_first","0","neiako08","0","24","1","1","4","1","Ich hätte es schön gefunden, wenn der Bearbeitungsfortschritt in Prozent angezeigt worden wäre.","0","1","0","null","","","<img src = 'targets/29.png' width = '100%;'>","null","","","","","","","","","",""
"","html-keyboard-response","137","373211","0.0-8.0-3.11","pasy3nj0f2","many_one","0","indirect_first","0","neiako08","0","24","1","1","4","1","Ich hätte es schön gefunden, wenn der Bearbeitungsfortschritt in Prozent angezeigt worden wäre.","0","1","0","917","","","<img src = 'targets/mask.png' width = '100%;'>","68","pos","CS","CS","1","category1/CS5.png","targets/29.png","0","indirect","11",""
"","html-keyboard-response","138","374742","0.0-8.0-0.12","pasy3nj0f2","many_one","0","indirect_first","0","neiako08","0","24","1","1","4","1","Ich hätte es schön gefunden, wenn der Bearbeitungsfortschritt in Prozent angezeigt worden wäre.","0","1","0","null","","","<div style=""font-size:60px;"">+</div>","null","","","","","","","","","",""
"","html-keyboard-response","139","374842","0.0-8.0-1.12","pasy3nj0f2","many_one","0","indirect_first","0","neiako08","0","24","1","1","4","1","Ich hätte es schön gefunden, wenn der Bearbeitungsfortschritt in Prozent angezeigt worden wäre.","0","1","0","null","","","<img src = 'category3/CS7.png' width = '100%;'>","null","","","","","","","","","",""
"","html-keyboard-response","140","375109","0.0-8.0-2.12","pasy3nj0f2","many_one","0","indirect_first","0","neiako08","0","24","1","1","4","1","Ich hätte es schön gefunden, wenn der Bearbeitungsfortschritt in Prozent angezeigt worden wäre.","0","1","0","null","","","<img src = 'targets/9.png' width = '100%;'>","null","","","","","","","","","",""
"","html-keyboard-response","141","375948","0.0-8.0-3.12","pasy3nj0f2","many_one","0","indirect_first","0","neiako08","0","24","1","1","4","1","Ich hätte es schön gefunden, wenn der Bearbeitungsfortschritt in Prozent angezeigt worden wäre.","0","1","0","838","","","<img src = 'targets/mask.png' width = '100%;'>","68","neg","CS","CS","3","category3/CS7.png","targets/9.png","0","indirect","12",""
"","html-keyboard-response","142","377462","0.0-8.0-0.13","pasy3nj0f2","many_one","0","indirect_first","0","neiako08","0","24","1","1","4","1","Ich hätte es schön gefunden, wenn der Bearbeitungsfortschritt in Prozent angezeigt worden wäre.","0","1","0","null","","","<div style=""font-size:60px;"">+</div>","null","","","","","","","","","",""
"","html-keyboard-response","143","377556","0.0-8.0-1.13","pasy3nj0f2","many_one","0","indirect_first","0","neiako08","0","24","1","1","4","1","Ich hätte es schön gefunden, wenn der Bearbeitungsfortschritt in Prozent angezeigt worden wäre.","0","1","0","null","","","<img src = 'category4/CS3.png' width = '100%;'>","null","","","","","","","","","",""
"","html-keyboard-response","144","377823","0.0-8.0-2.13","pasy3nj0f2","many_one","0","indirect_first","0","neiako08","0","24","1","1","4","1","Ich hätte es schön gefunden, wenn der Bearbeitungsfortschritt in Prozent angezeigt worden wäre.","0","1","0","null","","","<img src = 'targets/34.png' width = '100%;'>","null","","","","","","","","","",""
"","html-keyboard-response","145","378398","0.0-8.0-3.13","pasy3nj0f2","many_one","0","indirect_first","0","neiako08","0","24","1","1","4","1","Ich hätte es schön gefunden, wenn der Bearbeitungsfortschritt in Prozent angezeigt worden wäre.","0","1","0","575","","","<img src = 'targets/mask.png' width = '100%;'>","75","pos","CS","CS","4","category4/CS3.png","targets/34.png","1","indirect","13",""
"","html-keyboard-response","146","379922","0.0-8.0-0.14","pasy3nj0f2","many_one","0","indirect_first","0","neiako08","0","24","1","1","4","1","Ich hätte es schön gefunden, wenn der Bearbeitungsfortschritt in Prozent angezeigt worden wäre.","0","1","0","null","","","<div style=""font-size:60px;"">+</div>","null","","","","","","","","","",""
"","html-keyboard-response","147","380022","0.0-8.0-1.14","pasy3nj0f2","many_one","0","indirect_first","0","neiako08","0","24","1","1","4","1","Ich hätte es schön gefunden, wenn der Bearbeitungsfortschritt in Prozent angezeigt worden wäre.","0","1","0","null","","","<img src = 'category2/CS5.png' width = '100%;'>","null","","","","","","","","","",""
"","html-keyboard-response","148","380290","0.0-8.0-2.14","pasy3nj0f2","many_one","0","indirect_first","0","neiako08","0","24","1","1","4","1","Ich hätte es schön gefunden, wenn der Bearbeitungsfortschritt in Prozent angezeigt worden wäre.","0","1","0","null","","","<img src = 'targets/17.png' width = '100%;'>","null","","","","","","","","","",""
"","html-keyboard-response","149","381291","0.0-8.0-3.14","pasy3nj0f2","many_one","0","indirect_first","0","neiako08","0","24","1","1","4","1","Ich hätte es schön gefunden, wenn der Bearbeitungsfortschritt in Prozent angezeigt worden wäre.","0","1","0","1000","","","<img src = 'targets/mask.png' width = '100%;'>","68","neg","CS","CS","2","category2/CS5.png","targets/17.png","0","indirect","14",""
"","html-keyboard-response","150","382813","0.0-8.0-0.15","pasy3nj0f2","many_one","0","indirect_first","0","neiako08","0","24","1","1","4","1","Ich hätte es schön gefunden, wenn der Bearbeitungsfortschritt in Prozent angezeigt worden wäre.","0","1","0","null","","","<div style=""font-size:60px;"">+</div>","null","","","","","","","","","",""
"","html-keyboard-response","151","382904","0.0-8.0-1.15","pasy3nj0f2","many_one","0","indirect_first","0","neiako08","0","24","1","1","4","1","Ich hätte es schön gefunden, wenn der Bearbeitungsfortschritt in Prozent angezeigt worden wäre.","0","1","0","null","","","<img src = 'category3/CS9.png' width = '100%;'>","null","","","","","","","","","",""
"","html-keyboard-response","152","383172","0.0-8.0-2.15","pasy3nj0f2","many_one","0","indirect_first","0","neiako08","0","24","1","1","4","1","Ich hätte es schön gefunden, wenn der Bearbeitungsfortschritt in Prozent angezeigt worden wäre.","0","1","0","null","","","<img src = 'targets/5.png' width = '100%;'>","null","","","","","","","","","",""
"","html-keyboard-response","153","383835","0.0-8.0-3.15","pasy3nj0f2","many_one","0","indirect_first","0","neiako08","0","24","1","1","4","1","Ich hätte es schön gefunden, wenn der Bearbeitungsfortschritt in Prozent angezeigt worden wäre.","0","1","0","662","","","<img src = 'targets/mask.png' width = '100%;'>","68","neg","GS","GSold","3","category3/CS9.png","targets/5.png","0","indirect","15",""
"","html-keyboard-response","154","385362","0.0-8.0-0.16","pasy3nj0f2","many_one","0","indirect_first","0","neiako08","0","24","1","1","4","1","Ich hätte es schön gefunden, wenn der Bearbeitungsfortschritt in Prozent angezeigt worden wäre.","0","1","0","null","","","<div style=""font-size:60px;"">+</div>","null","","","","","","","","","",""
"","html-keyboard-response","155","385470","0.0-8.0-1.16","pasy3nj0f2","many_one","0","indirect_first","0","neiako08","0","24","1","1","4","1","Ich hätte es schön gefunden, wenn der Bearbeitungsfortschritt in Prozent angezeigt worden wäre.","0","1","0","null","","","<img src = 'category1/CS7.png' width = '100%;'>","null","","","","","","","","","",""
"","html-keyboard-response","156","385735","0.0-8.0-2.16","pasy3nj0f2","many_one","0","indirect_first","0","neiako08","0","24","1","1","4","1","Ich hätte es schön gefunden, wenn der Bearbeitungsfortschritt in Prozent angezeigt worden wäre.","0","1","0","null","","","<img src = 'targets/10.png' width = '100%;'>","null","","","","","","","","","",""
"","html-keyboard-response","157","386638","0.0-8.0-3.16","pasy3nj0f2","many_one","0","indirect_first","0","neiako08","0","24","1","1","4","1","Ich hätte es schön gefunden, wenn der Bearbeitungsfortschritt in Prozent angezeigt worden wäre.","0","1","0","901","","","<img src = 'targets/mask.png' width = '100%;'>","75","pos","CS","CS","1","category1/CS7.png","targets/10.png","1","indirect","16",""
"","html-keyboard-response","158","388172","0.0-8.0-0.17","pasy3nj0f2","many_one","0","indirect_first","0","neiako08","0","24","1","1","4","1","Ich hätte es schön gefunden, wenn der Bearbeitungsfortschritt in Prozent angezeigt worden wäre.","0","1","0","null","","","<div style=""font-size:60px;"">+</div>","null","","","","","","","","","",""
"","html-keyboard-response","159","388269","0.0-8.0-1.17","pasy3nj0f2","many_one","0","indirect_first","0","neiako08","0","24","1","1","4","1","Ich hätte es schön gefunden, wenn der Bearbeitungsfortschritt in Prozent angezeigt worden wäre.","0","1","0","null","","","<img src = 'category3/CS5.png' width = '100%;'>","null","","","","","","","","","",""
"","html-keyboard-response","160","388535","0.0-8.0-2.17","pasy3nj0f2","many_one","0","indirect_first","0","neiako08","0","24","1","1","4","1","Ich hätte es schön gefunden, wenn der Bearbeitungsfortschritt in Prozent angezeigt worden wäre.","0","1","0","null","","","<img src = 'targets/7.png' width = '100%;'>","null","","","","","","","","","",""
"","html-keyboard-response","161","389066","0.0-8.0-3.17","pasy3nj0f2","many_one","0","indirect_first","0","neiako08","0","24","1","1","4","1","Ich hätte es schön gefunden, wenn der Bearbeitungsfortschritt in Prozent angezeigt worden wäre.","0","1","0","529","","","<img src = 'targets/mask.png' width = '100%;'>","68","neg","CS","CS","3","category3/CS5.png","targets/7.png","0","indirect","17",""
"","html-keyboard-response","162","390602","0.0-8.0-0.18","pasy3nj0f2","many_one","0","indirect_first","0","neiako08","0","24","1","1","4","1","Ich hätte es schön gefunden, wenn der Bearbeitungsfortschritt in Prozent angezeigt worden wäre.","0","1","0","null","","","<div style=""font-size:60px;"">+</div>","null","","","","","","","","","",""
"","html-keyboard-response","163","390702","0.0-8.0-1.18","pasy3nj0f2","many_one","0","indirect_first","0","neiako08","0","24","1","1","4","1","Ich hätte es schön gefunden, wenn der Bearbeitungsfortschritt in Prozent angezeigt worden wäre.","0","1","0","null","","","<img src = 'category4/CS6.png' width = '100%;'>","null","","","","","","","","","",""
"","html-keyboard-response","164","390963","0.0-8.0-2.18","pasy3nj0f2","many_one","0","indirect_first","0","neiako08","0","24","1","1","4","1","Ich hätte es schön gefunden, wenn der Bearbeitungsfortschritt in Prozent angezeigt worden wäre.","0","1","0","null","","","<img src = 'targets/4.png' width = '100%;'>","null","","","","","","","","","",""
"","html-keyboard-response","165","391520","0.0-8.0-3.18","pasy3nj0f2","many_one","0","indirect_first","0","neiako08","0","24","1","1","4","1","Ich hätte es schön gefunden, wenn der Bearbeitungsfortschritt in Prozent angezeigt worden wäre.","0","1","0","556","","","<img src = 'targets/mask.png' width = '100%;'>","75","pos","CS","CS","4","category4/CS6.png","targets/4.png","1","indirect","18",""
"","html-keyboard-response","166","393052","0.0-8.0-0.19","pasy3nj0f2","many_one","0","indirect_first","0","neiako08","0","24","1","1","4","1","Ich hätte es schön gefunden, wenn der Bearbeitungsfortschritt in Prozent angezeigt worden wäre.","0","1","0","null","","","<div style=""font-size:60px;"">+</div>","null","","","","","","","","","",""
"","html-keyboard-response","167","393151","0.0-8.0-1.19","pasy3nj0f2","many_one","0","indirect_first","0","neiako08","0","24","1","1","4","1","Ich hätte es schön gefunden, wenn der Bearbeitungsfortschritt in Prozent angezeigt worden wäre.","0","1","0","null","","","<img src = 'category4/CS2.png' width = '100%;'>","null","","","","","","","","","",""
"","html-keyboard-response","168","393416","0.0-8.0-2.19","pasy3nj0f2","many_one","0","indirect_first","0","neiako08","0","24","1","1","4","1","Ich hätte es schön gefunden, wenn der Bearbeitungsfortschritt in Prozent angezeigt worden wäre.","0","1","0","null","","","<img src = 'targets/8.png' width = '100%;'>","null","","","","","","","","","",""
"","html-keyboard-response","169","393851","0.0-8.0-3.19","pasy3nj0f2","many_one","0","indirect_first","0","neiako08","0","24","1","1","4","1","Ich hätte es schön gefunden, wenn der Bearbeitungsfortschritt in Prozent angezeigt worden wäre.","0","1","0","433","","","<img src = 'targets/mask.png' width = '100%;'>","75","pos","GS","GSold","4","category4/CS2.png","targets/8.png","1","indirect","19",""
"","html-keyboard-response","170","395383","0.0-8.0-0.20","pasy3nj0f2","many_one","0","indirect_first","0","neiako08","0","24","1","1","4","1","Ich hätte es schön gefunden, wenn der Bearbeitungsfortschritt in Prozent angezeigt worden wäre.","0","1","0","null","","","<div style=""font-size:60px;"">+</div>","null","","","","","","","","","",""
"","html-keyboard-response","171","395483","0.0-8.0-1.20","pasy3nj0f2","many_one","0","indirect_first","0","neiako08","0","24","1","1","4","1","Ich hätte es schön gefunden, wenn der Bearbeitungsfortschritt in Prozent angezeigt worden wäre.","0","1","0","null","","","<img src = 'category1/CS1.png' width = '100%;'>","null","","","","","","","","","",""
"","html-keyboard-response","172","395750","0.0-8.0-2.20","pasy3nj0f2","many_one","0","indirect_first","0","neiako08","0","24","1","1","4","1","Ich hätte es schön gefunden, wenn der Bearbeitungsfortschritt in Prozent angezeigt worden wäre.","0","1","0","null","","","<img src = 'targets/47.png' width = '100%;'>","null","","","","","","","","","",""
"","html-keyboard-response","173","396344","0.0-8.0-3.20","pasy3nj0f2","many_one","0","indirect_first","0","neiako08","0","24","1","1","4","1","Ich hätte es schön gefunden, wenn der Bearbeitungsfortschritt in Prozent angezeigt worden wäre.","0","1","0","594","","","<img src = 'targets/mask.png' width = '100%;'>","68","pos","CS","CS","1","category1/CS1.png","targets/47.png","0","indirect","20",""
"","html-keyboard-response","174","397863","0.0-8.0-0.21","pasy3nj0f2","many_one","0","indirect_first","0","neiako08","0","24","1","1","4","1","Ich hätte es schön gefunden, wenn der Bearbeitungsfortschritt in Prozent angezeigt worden wäre.","0","1","0","null","","","<div style=""font-size:60px;"">+</div>","null","","","","","","","","","",""
"","html-keyboard-response","175","397964","0.0-8.0-1.21","pasy3nj0f2","many_one","0","indirect_first","0","neiako08","0","24","1","1","4","1","Ich hätte es schön gefunden, wenn der Bearbeitungsfortschritt in Prozent angezeigt worden wäre.","0","1","0","null","","","<img src = 'category4/CS4.png' width = '100%;'>","null","","","","","","","","","",""
"","html-keyboard-response","176","398232","0.0-8.0-2.21","pasy3nj0f2","many_one","0","indirect_first","0","neiako08","0","24","1","1","4","1","Ich hätte es schön gefunden, wenn der Bearbeitungsfortschritt in Prozent angezeigt worden wäre.","0","1","0","null","","","<img src = 'targets/6.png' width = '100%;'>","null","","","","","","","","","",""
"","html-keyboard-response","177","398771","0.0-8.0-3.21","pasy3nj0f2","many_one","0","indirect_first","0","neiako08","0","24","1","1","4","1","Ich hätte es schön gefunden, wenn der Bearbeitungsfortschritt in Prozent angezeigt worden wäre.","0","1","0","538","","","<img src = 'targets/mask.png' width = '100%;'>","75","pos","CS","CS","4","category4/CS4.png","targets/6.png","1","indirect","21",""
"","html-keyboard-response","178","400283","0.0-8.0-0.22","pasy3nj0f2","many_one","0","indirect_first","0","neiako08","0","24","1","1","4","1","Ich hätte es schön gefunden, wenn der Bearbeitungsfortschritt in Prozent angezeigt worden wäre.","0","1","0","null","","","<div style=""font-size:60px;"">+</div>","null","","","","","","","","","",""
"","html-keyboard-response","179","400381","0.0-8.0-1.22","pasy3nj0f2","many_one","0","indirect_first","0","neiako08","0","24","1","1","4","1","Ich hätte es schön gefunden, wenn der Bearbeitungsfortschritt in Prozent angezeigt worden wäre.","0","1","0","null","","","<img src = 'category3/CS1.png' width = '100%;'>","null","","","","","","","","","",""
"","html-keyboard-response","180","400646","0.0-8.0-2.22","pasy3nj0f2","many_one","0","indirect_first","0","neiako08","0","24","1","1","4","1","Ich hätte es schön gefunden, wenn der Bearbeitungsfortschritt in Prozent angezeigt worden wäre.","0","1","0","null","","","<img src = 'targets/32.png' width = '100%;'>","null","","","","","","","","","",""
"","html-keyboard-response","181","400951","0.0-8.0-3.22","pasy3nj0f2","many_one","0","indirect_first","0","neiako08","0","24","1","1","4","1","Ich hätte es schön gefunden, wenn der Bearbeitungsfortschritt in Prozent angezeigt worden wäre.","0","1","0","303","","","<img src = 'targets/mask.png' width = '100%;'>","68","neg","GS","GSold","3","category3/CS1.png","targets/32.png","0","indirect","22",""
"","html-keyboard-response","182","402463","0.0-8.0-0.23","pasy3nj0f2","many_one","0","indirect_first","0","neiako08","0","24","1","1","4","1","Ich hätte es schön gefunden, wenn der Bearbeitungsfortschritt in Prozent angezeigt worden wäre.","0","1","0","null","","","<div style=""font-size:60px;"">+</div>","null","","","","","","","","","",""
"","html-keyboard-response","183","402562","0.0-8.0-1.23","pasy3nj0f2","many_one","0","indirect_first","0","neiako08","0","24","1","1","4","1","Ich hätte es schön gefunden, wenn der Bearbeitungsfortschritt in Prozent angezeigt worden wäre.","0","1","0","null","","","<img src = 'category1/CS4.png' width = '100%;'>","null","","","","","","","","","",""
"","html-keyboard-response","184","402829","0.0-8.0-2.23","pasy3nj0f2","many_one","0","indirect_first","0","neiako08","0","24","1","1","4","1","Ich hätte es schön gefunden, wenn der Bearbeitungsfortschritt in Prozent angezeigt worden wäre.","0","1","0","null","","","<img src = 'targets/25.png' width = '100%;'>","null","","","","","","","","","",""
"","html-keyboard-response","185","403228","0.0-8.0-3.23","pasy3nj0f2","many_one","0","indirect_first","0","neiako08","0","24","1","1","4","1","Ich hätte es schön gefunden, wenn der Bearbeitungsfortschritt in Prozent angezeigt worden wäre.","0","1","0","398","","","<img src = 'targets/mask.png' width = '100%;'>","68","pos","CS","CS","1","category1/CS4.png","targets/25.png","0","indirect","23",""
"","survey-html-form","186","406297","0.0-9.0","pasy3nj0f2","many_one","0","indirect_first","0","neiako08","0","24","1","1","4","1","Ich hätte es schön gefunden, wenn der Bearbeitungsfortschritt in Prozent angezeigt worden wäre.","0","1","0","2553","","{}","","","","","","","","","","","",""
"","html-keyboard-response","187","409322","0.0-10.0-0.0","pasy3nj0f2","many_one","0","indirect_first","0","neiako08","0","24","1","1","4","1","Ich hätte es schön gefunden, wenn der Bearbeitungsfortschritt in Prozent angezeigt worden wäre.","0","1","0","null","","","<div style=""font-size:60px;"">+</div>","null","","","","","","","","","",""
"","html-keyboard-response","188","409426","0.0-10.0-1.0","pasy3nj0f2","many_one","0","indirect_first","0","neiako08","0","24","1","1","4","1","Ich hätte es schön gefunden, wenn der Bearbeitungsfortschritt in Prozent angezeigt worden wäre.","0","1","0","null","","","<img src = 'category3/wang.png' width = '100%;'>","null","","","","","","","","","",""
"","html-keyboard-response","189","409693","0.0-10.0-2.0","pasy3nj0f2","many_one","0","indirect_first","0","neiako08","0","24","1","1","4","1","Ich hätte es schön gefunden, wenn der Bearbeitungsfortschritt in Prozent angezeigt worden wäre.","0","1","0","null","","","<img src = 'targets/40.png' width = '100%;'>","null","","","","","","","","","",""
"","html-keyboard-response","190","411064","0.0-10.0-3.0","pasy3nj0f2","many_one","0","indirect_first","0","neiako08","0","24","1","1","4","1","Ich hätte es schön gefunden, wenn der Bearbeitungsfortschritt in Prozent angezeigt worden wäre.","0","1","0","1369","","","<img src = 'targets/mask.png' width = '100%;'>","68","neg","GS","abstract","3","category3/wang.png","targets/40.png","0","indirect","24",""
"","html-keyboard-response","191","412582","0.0-10.0-0.1","pasy3nj0f2","many_one","0","indirect_first","0","neiako08","0","24","1","1","4","1","Ich hätte es schön gefunden, wenn der Bearbeitungsfortschritt in Prozent angezeigt worden wäre.","0","1","0","null","","","<div style=""font-size:60px;"">+</div>","null","","","","","","","","","",""
"","html-keyboard-response","192","412674","0.0-10.0-1.1","pasy3nj0f2","many_one","0","indirect_first","0","neiako08","0","24","1","1","4","1","Ich hätte es schön gefunden, wenn der Bearbeitungsfortschritt in Prozent angezeigt worden wäre.","0","1","0","null","","","<img src = 'category4/GS1.png' width = '100%;'>","null","","","","","","","","","",""
"","html-keyboard-response","193","412940","0.0-10.0-2.1","pasy3nj0f2","many_one","0","indirect_first","0","neiako08","0","24","1","1","4","1","Ich hätte es schön gefunden, wenn der Bearbeitungsfortschritt in Prozent angezeigt worden wäre.","0","1","0","null","","","<img src = 'targets/24.png' width = '100%;'>","null","","","","","","","","","",""
"","html-keyboard-response","194","413701","0.0-10.0-3.1","pasy3nj0f2","many_one","0","indirect_first","0","neiako08","0","24","1","1","4","1","Ich hätte es schön gefunden, wenn der Bearbeitungsfortschritt in Prozent angezeigt worden wäre.","0","1","0","758","","","<img src = 'targets/mask.png' width = '100%;'>","75","pos","GS","GSnew","4","category4/GS1.png","targets/24.png","1","indirect","25",""
"","html-keyboard-response","195","415223","0.0-10.0-0.2","pasy3nj0f2","many_one","0","indirect_first","0","neiako08","0","24","1","1","4","1","Ich hätte es schön gefunden, wenn der Bearbeitungsfortschritt in Prozent angezeigt worden wäre.","0","1","0","null","","","<div style=""font-size:60px;"">+</div>","null","","","","","","","","","",""
"","html-keyboard-response","196","415322","0.0-10.0-1.2","pasy3nj0f2","many_one","0","indirect_first","0","neiako08","0","24","1","1","4","1","Ich hätte es schön gefunden, wenn der Bearbeitungsfortschritt in Prozent angezeigt worden wäre.","0","1","0","null","","","<img src = 'category4/lin.png' width = '100%;'>","null","","","","","","","","","",""
"","html-keyboard-response","197","415589","0.0-10.0-2.2","pasy3nj0f2","many_one","0","indirect_first","0","neiako08","0","24","1","1","4","1","Ich hätte es schön gefunden, wenn der Bearbeitungsfortschritt in Prozent angezeigt worden wäre.","0","1","0","null","","","<img src = 'targets/18.png' width = '100%;'>","null","","","","","","","","","",""
"","html-keyboard-response","198","417530","0.0-10.0-3.2","pasy3nj0f2","many_one","0","indirect_first","0","neiako08","0","24","1","1","4","1","Ich hätte es schön gefunden, wenn der Bearbeitungsfortschritt in Prozent angezeigt worden wäre.","0","1","0","1938","","","<img src = 'targets/mask.png' width = '100%;'>","75","pos","GS","abstract","4","category4/lin.png","targets/18.png","1","indirect","26",""
"","html-keyboard-response","199","419053","0.0-10.0-0.3","pasy3nj0f2","many_one","0","indirect_first","0","neiako08","0","24","1","1","4","1","Ich hätte es schön gefunden, wenn der Bearbeitungsfortschritt in Prozent angezeigt worden wäre.","0","1","0","null","","","<div style=""font-size:60px;"">+</div>","null","","","","","","","","","",""
"","html-keyboard-response","200","419154","0.0-10.0-1.3","pasy3nj0f2","many_one","0","indirect_first","0","neiako08","0","24","1","1","4","1","Ich hätte es schön gefunden, wenn der Bearbeitungsfortschritt in Prozent angezeigt worden wäre.","0","1","0","null","","","<img src = 'category2/CS1.png' width = '100%;'>","null","","","","","","","","","",""
"","html-keyboard-response","201","419422","0.0-10.0-2.3","pasy3nj0f2","many_one","0","indirect_first","0","neiako08","0","24","1","1","4","1","Ich hätte es schön gefunden, wenn der Bearbeitungsfortschritt in Prozent angezeigt worden wäre.","0","1","0","null","","","<img src = 'targets/28.png' width = '100%;'>","null","","","","","","","","","",""
"","html-keyboard-response","202","419510","0.0-10.0-3.3","pasy3nj0f2","many_one","0","indirect_first","0","neiako08","0","24","1","1","4","1","Ich hätte es schön gefunden, wenn der Bearbeitungsfortschritt in Prozent angezeigt worden wäre.","0","1","0","88","","","<img src = 'targets/mask.png' width = '100%;'>","68","neg","GS","GSold","2","category2/CS1.png","targets/28.png","0","indirect","27",""
"","html-keyboard-response","203","421023","0.0-10.0-0.4","pasy3nj0f2","many_one","0","indirect_first","0","neiako08","0","24","1","1","4","1","Ich hätte es schön gefunden, wenn der Bearbeitungsfortschritt in Prozent angezeigt worden wäre.","0","1","0","null","","","<div style=""font-size:60px;"">+</div>","null","","","","","","","","","",""
"","html-keyboard-response","204","421121","0.0-10.0-1.4","pasy3nj0f2","many_one","0","indirect_first","0","neiako08","0","24","1","1","4","1","Ich hätte es schön gefunden, wenn der Bearbeitungsfortschritt in Prozent angezeigt worden wäre.","0","1","0","null","","","<img src = 'category4/GS2.png' width = '100%;'>","null","","","","","","","","","",""
"","html-keyboard-response","205","421383","0.0-10.0-2.4","pasy3nj0f2","many_one","0","indirect_first","0","neiako08","0","24","1","1","4","1","Ich hätte es schön gefunden, wenn der Bearbeitungsfortschritt in Prozent angezeigt worden wäre.","0","1","0","null","","","<img src = 'targets/13.png' width = '100%;'>","null","","","","","","","","","",""
"","html-keyboard-response","206","423405","0.0-10.0-3.4","pasy3nj0f2","many_one","0","indirect_first","0","neiako08","0","24","1","1","4","1","Ich hätte es schön gefunden, wenn der Bearbeitungsfortschritt in Prozent angezeigt worden wäre.","0","1","0","2021","","","<img src = 'targets/mask.png' width = '100%;'>","68","pos","GS","GSnew","4","category4/GS2.png","targets/13.png","0","indirect","28",""
"","html-keyboard-response","207","424942","0.0-10.0-0.5","pasy3nj0f2","many_one","0","indirect_first","0","neiako08","0","24","1","1","4","1","Ich hätte es schön gefunden, wenn der Bearbeitungsfortschritt in Prozent angezeigt worden wäre.","0","1","0","null","","","<div style=""font-size:60px;"">+</div>","null","","","","","","","","","",""
"","html-keyboard-response","208","425035","0.0-10.0-1.5","pasy3nj0f2","many_one","0","indirect_first","0","neiako08","0","24","1","1","4","1","Ich hätte es schön gefunden, wenn der Bearbeitungsfortschritt in Prozent angezeigt worden wäre.","0","1","0","null","","","<img src = 'category1/CS10.png' width = '100%;'>","null","","","","","","","","","",""
"","html-keyboard-response","209","425302","0.0-10.0-2.5","pasy3nj0f2","many_one","0","indirect_first","0","neiako08","0","24","1","1","4","1","Ich hätte es schön gefunden, wenn der Bearbeitungsfortschritt in Prozent angezeigt worden wäre.","0","1","0","null","","","<img src = 'targets/48.png' width = '100%;'>","null","","","","","","","","","",""
"","html-keyboard-response","210","425575","0.0-10.0-3.5","pasy3nj0f2","many_one","0","indirect_first","0","neiako08","0","24","1","1","4","1","Ich hätte es schön gefunden, wenn der Bearbeitungsfortschritt in Prozent angezeigt worden wäre.","0","1","0","272","","","<img src = 'targets/mask.png' width = '100%;'>","68","pos","GS","GSold","1","category1/CS10.png","targets/48.png","0","indirect","29",""
"","html-keyboard-response","211","427101","0.0-10.0-0.6","pasy3nj0f2","many_one","0","indirect_first","0","neiako08","0","24","1","1","4","1","Ich hätte es schön gefunden, wenn der Bearbeitungsfortschritt in Prozent angezeigt worden wäre.","0","1","0","null","","","<div style=""font-size:60px;"">+</div>","null","","","","","","","","","",""
"","html-keyboard-response","212","427201","0.0-10.0-1.6","pasy3nj0f2","many_one","0","indirect_first","0","neiako08","0","24","1","1","4","1","Ich hätte es schön gefunden, wenn der Bearbeitungsfortschritt in Prozent angezeigt worden wäre.","0","1","0","null","","","<img src = 'category1/GS2.png' width = '100%;'>","null","","","","","","","","","",""
"","html-keyboard-response","213","427468","0.0-10.0-2.6","pasy3nj0f2","many_one","0","indirect_first","0","neiako08","0","24","1","1","4","1","Ich hätte es schön gefunden, wenn der Bearbeitungsfortschritt in Prozent angezeigt worden wäre.","0","1","0","null","","","<img src = 'targets/43.png' width = '100%;'>","null","","","","","","","","","",""
"","html-keyboard-response","214","427574","0.0-10.0-3.6","pasy3nj0f2","many_one","0","indirect_first","0","neiako08","0","24","1","1","4","1","Ich hätte es schön gefunden, wenn der Bearbeitungsfortschritt in Prozent angezeigt worden wäre.","0","1","0","104","","","<img src = 'targets/mask.png' width = '100%;'>","68","pos","GS","GSnew","1","category1/GS2.png","targets/43.png","0","indirect","30",""
"","html-keyboard-response","215","429089","0.0-10.0-0.7","pasy3nj0f2","many_one","0","indirect_first","0","neiako08","0","24","1","1","4","1","Ich hätte es schön gefunden, wenn der Bearbeitungsfortschritt in Prozent angezeigt worden wäre.","0","1","0","null","","","<div style=""font-size:60px;"">+</div>","null","","","","","","","","","",""
"","html-keyboard-response","216","429183","0.0-10.0-1.7","pasy3nj0f2","many_one","0","indirect_first","0","neiako08","0","24","1","1","4","1","Ich hätte es schön gefunden, wenn der Bearbeitungsfortschritt in Prozent angezeigt worden wäre.","0","1","0","null","","","<img src = 'category1/GS3.png' width = '100%;'>","null","","","","","","","","","",""
"","html-keyboard-response","217","429444","0.0-10.0-2.7","pasy3nj0f2","many_one","0","indirect_first","0","neiako08","0","24","1","1","4","1","Ich hätte es schön gefunden, wenn der Bearbeitungsfortschritt in Prozent angezeigt worden wäre.","0","1","0","null","","","<img src = 'targets/42.png' width = '100%;'>","null","","","","","","","","","",""
"","html-keyboard-response","218","429746","0.0-10.0-3.7","pasy3nj0f2","many_one","0","indirect_first","0","neiako08","0","24","1","1","4","1","Ich hätte es schön gefunden, wenn der Bearbeitungsfortschritt in Prozent angezeigt worden wäre.","0","1","0","299","","","<img src = 'targets/mask.png' width = '100%;'>","75","pos","GS","GSnew","1","category1/GS3.png","targets/42.png","1","indirect","31",""
"","html-keyboard-response","219","431271","0.0-10.0-0.8","pasy3nj0f2","many_one","0","indirect_first","0","neiako08","0","24","1","1","4","1","Ich hätte es schön gefunden, wenn der Bearbeitungsfortschritt in Prozent angezeigt worden wäre.","0","1","0","null","","","<div style=""font-size:60px;"">+</div>","null","","","","","","","","","",""
"","html-keyboard-response","220","431367","0.0-10.0-1.8","pasy3nj0f2","many_one","0","indirect_first","0","neiako08","0","24","1","1","4","1","Ich hätte es schön gefunden, wenn der Bearbeitungsfortschritt in Prozent angezeigt worden wäre.","0","1","0","null","","","<img src = 'category1/ma.png' width = '100%;'>","null","","","","","","","","","",""
"","html-keyboard-response","221","431631","0.0-10.0-2.8","pasy3nj0f2","many_one","0","indirect_first","0","neiako08","0","24","1","1","4","1","Ich hätte es schön gefunden, wenn der Bearbeitungsfortschritt in Prozent angezeigt worden wäre.","0","1","0","null","","","<img src = 'targets/12.png' width = '100%;'>","null","","","","","","","","","",""
"","html-keyboard-response","222","431874","0.0-10.0-3.8","pasy3nj0f2","many_one","0","indirect_first","0","neiako08","0","24","1","1","4","1","Ich hätte es schön gefunden, wenn der Bearbeitungsfortschritt in Prozent angezeigt worden wäre.","0","1","0","243","","","<img src = 'targets/mask.png' width = '100%;'>","68","pos","GS","abstract","1","category1/ma.png","targets/12.png","0","indirect","32",""
"","html-keyboard-response","223","433405","0.0-10.0-0.9","pasy3nj0f2","many_one","0","indirect_first","0","neiako08","0","24","1","1","4","1","Ich hätte es schön gefunden, wenn der Bearbeitungsfortschritt in Prozent angezeigt worden wäre.","0","1","0","null","","","<div style=""font-size:60px;"">+</div>","null","","","","","","","","","",""
"","html-keyboard-response","224","433498","0.0-10.0-1.9","pasy3nj0f2","many_one","0","indirect_first","0","neiako08","0","24","1","1","4","1","Ich hätte es schön gefunden, wenn der Bearbeitungsfortschritt in Prozent angezeigt worden wäre.","0","1","0","null","","","<img src = 'category2/GS1.png' width = '100%;'>","null","","","","","","","","","",""
"","html-keyboard-response","225","433763","0.0-10.0-2.9","pasy3nj0f2","many_one","0","indirect_first","0","neiako08","0","24","1","1","4","1","Ich hätte es schön gefunden, wenn der Bearbeitungsfortschritt in Prozent angezeigt worden wäre.","0","1","0","null","","","<img src = 'targets/21.png' width = '100%;'>","null","","","","","","","","","",""
"","html-keyboard-response","226","434105","0.0-10.0-3.9","pasy3nj0f2","many_one","0","indirect_first","0","neiako08","0","24","1","1","4","1","Ich hätte es schön gefunden, wenn der Bearbeitungsfortschritt in Prozent angezeigt worden wäre.","0","1","0","342","","","<img src = 'targets/mask.png' width = '100%;'>","68","neg","GS","GSnew","2","category2/GS1.png","targets/21.png","0","indirect","33",""
"","html-keyboard-response","227","435612","0.0-10.0-0.10","pasy3nj0f2","many_one","0","indirect_first","0","neiako08","0","24","1","1","4","1","Ich hätte es schön gefunden, wenn der Bearbeitungsfortschritt in Prozent angezeigt worden wäre.","0","1","0","null","","","<div style=""font-size:60px;"">+</div>","null","","","","","","","","","",""
"","html-keyboard-response","228","435713","0.0-10.0-1.10","pasy3nj0f2","many_one","0","indirect_first","0","neiako08","0","24","1","1","4","1","Ich hätte es schön gefunden, wenn der Bearbeitungsfortschritt in Prozent angezeigt worden wäre.","0","1","0","null","","","<img src = 'category2/GS2.png' width = '100%;'>","null","","","","","","","","","",""
"","html-keyboard-response","229","435981","0.0-10.0-2.10","pasy3nj0f2","many_one","0","indirect_first","0","neiako08","0","24","1","1","4","1","Ich hätte es schön gefunden, wenn der Bearbeitungsfortschritt in Prozent angezeigt worden wäre.","0","1","0","null","","","<img src = 'targets/31.png' width = '100%;'>","null","","","","","","","","","",""
"","html-keyboard-response","230","436162","0.0-10.0-3.10","pasy3nj0f2","many_one","0","indirect_first","0","neiako08","0","24","1","1","4","1","Ich hätte es schön gefunden, wenn der Bearbeitungsfortschritt in Prozent angezeigt worden wäre.","0","1","0","182","","","<img src = 'targets/mask.png' width = '100%;'>","75","neg","GS","GSnew","2","category2/GS2.png","targets/31.png","1","indirect","34",""
"","html-keyboard-response","231","437672","0.0-10.0-0.11","pasy3nj0f2","many_one","0","indirect_first","0","neiako08","0","24","1","1","4","1","Ich hätte es schön gefunden, wenn der Bearbeitungsfortschritt in Prozent angezeigt worden wäre.","0","1","0","null","","","<div style=""font-size:60px;"">+</div>","null","","","","","","","","","",""
"","html-keyboard-response","232","437780","0.0-10.0-1.11","pasy3nj0f2","many_one","0","indirect_first","0","neiako08","0","24","1","1","4","1","Ich hätte es schön gefunden, wenn der Bearbeitungsfortschritt in Prozent angezeigt worden wäre.","0","1","0","null","","","<img src = 'category1/CS2.png' width = '100%;'>","null","","","","","","","","","",""
"","html-keyboard-response","233","438045","0.0-10.0-2.11","pasy3nj0f2","many_one","0","indirect_first","0","neiako08","0","24","1","1","4","1","Ich hätte es schön gefunden, wenn der Bearbeitungsfortschritt in Prozent angezeigt worden wäre.","0","1","0","null","","","<img src = 'targets/1.png' width = '100%;'>","null","","","","","","","","","",""
"","html-keyboard-response","234","438171","0.0-10.0-3.11","pasy3nj0f2","many_one","0","indirect_first","0","neiako08","0","24","1","1","4","1","Ich hätte es schön gefunden, wenn der Bearbeitungsfortschritt in Prozent angezeigt worden wäre.","0","1","0","125","","","<img src = 'targets/mask.png' width = '100%;'>","68","pos","GS","GSold","1","category1/CS2.png","targets/1.png","0","indirect","35",""
"","html-keyboard-response","235","439692","0.0-10.0-0.12","pasy3nj0f2","many_one","0","indirect_first","0","neiako08","0","24","1","1","4","1","Ich hätte es schön gefunden, wenn der Bearbeitungsfortschritt in Prozent angezeigt worden wäre.","0","1","0","null","","","<div style=""font-size:60px;"">+</div>","null","","","","","","","","","",""
"","html-keyboard-response","236","439794","0.0-10.0-1.12","pasy3nj0f2","many_one","0","indirect_first","0","neiako08","0","24","1","1","4","1","Ich hätte es schön gefunden, wenn der Bearbeitungsfortschritt in Prozent angezeigt worden wäre.","0","1","0","null","","","<img src = 'category2/CS7.png' width = '100%;'>","null","","","","","","","","","",""
"","html-keyboard-response","237","440062","0.0-10.0-2.12","pasy3nj0f2","many_one","0","indirect_first","0","neiako08","0","24","1","1","4","1","Ich hätte es schön gefunden, wenn der Bearbeitungsfortschritt in Prozent angezeigt worden wäre.","0","1","0","null","","","<img src = 'targets/27.png' width = '100%;'>","null","","","","","","","","","",""
"","html-keyboard-response","238","440641","0.0-10.0-3.12","pasy3nj0f2","many_one","0","indirect_first","0","neiako08","0","24","1","1","4","1","Ich hätte es schön gefunden, wenn der Bearbeitungsfortschritt in Prozent angezeigt worden wäre.","0","1","0","579","","","<img src = 'targets/mask.png' width = '100%;'>","75","neg","GS","GSold","2","category2/CS7.png","targets/27.png","1","indirect","36",""
"","html-keyboard-response","239","442153","0.0-10.0-0.13","pasy3nj0f2","many_one","0","indirect_first","0","neiako08","0","24","1","1","4","1","Ich hätte es schön gefunden, wenn der Bearbeitungsfortschritt in Prozent angezeigt worden wäre.","0","1","0","null","","","<div style=""font-size:60px;"">+</div>","null","","","","","","","","","",""
"","html-keyboard-response","240","442244","0.0-10.0-1.13","pasy3nj0f2","many_one","0","indirect_first","0","neiako08","0","24","1","1","4","1","Ich hätte es schön gefunden, wenn der Bearbeitungsfortschritt in Prozent angezeigt worden wäre.","0","1","0","null","","","<img src = 'category3/GS2.png' width = '100%;'>","null","","","","","","","","","",""
"","html-keyboard-response","241","442512","0.0-10.0-2.13","pasy3nj0f2","many_one","0","indirect_first","0","neiako08","0","24","1","1","4","1","Ich hätte es schön gefunden, wenn der Bearbeitungsfortschritt in Prozent angezeigt worden wäre.","0","1","0","null","","","<img src = 'targets/30.png' width = '100%;'>","null","","","","","","","","","",""
