"success","trial_type","trial_index","time_elapsed","internal_node_id","subject","condition","condition_code","measure","measure_code","codeword","gender","age","education","chinese","fach","handedness","rt","url","responses","stimulus","key_press","val","type","type_specific","category","cs_selected","response","target","task","indirect","nr_pres"
"true","fullscreen","0","12677","0.0-0.0","bmn0tyzef2","one_one","1","direct_first","1","ap09rd22","0","29","1","1","1","1","","","","","","","","","","","","","","",""
"","external-html","1","59154","0.0-1.0","bmn0tyzef2","one_one","1","direct_first","1","ap09rd22","0","29","1","1","1","1","46468","text/information.html","","","","","","","","","","","","",""
"","external-html","2","93018","0.0-2.0","bmn0tyzef2","one_one","1","direct_first","1","ap09rd22","0","29","1","1","1","1","33849","text/consent.html","","","","","","","","","","","","",""
"","survey-html-form","3","124786","0.0-3.0","bmn0tyzef2","one_one","1","direct_first","1","ap09rd22","0","29","1","1","1","1","31766","","{""codeword_enter"":""ap09rd22""}","","","","","","","","","","","",""
"","survey-html-form","4","139380","0.0-4.0","bmn0tyzef2","one_one","1","direct_first","1","ap09rd22","0","29","1","1","1","1","14591","","{""age"":""29"",""education"":""1"",""subject"":""1"",""gender"":""0"",""handedness"":""1"",""chinese"":""1""}","","","","","","","","","","","",""
"","survey-html-form","5","154043","0.0-5.0","bmn0tyzef2","one_one","1","direct_first","1","ap09rd22","0","29","1","1","1","1","14662","","{}","","","","","","","","","","","",""
"","html-keyboard-response","6","158078","0.0-6.0-0.0-0.0","bmn0tyzef2","one_one","1","direct_first","1","ap09rd22","0","29","1","1","1","1","null","","","<div class = 'row'><div class = 'column'><img src = 'usneg/1280.bmp' width = '100%;'></div><div class = 'column'><img src = 'category2/CS1.png' width = '70%;'></div></div>","null","neg","CS","CS","2","category2/CS1.png","","","","",""
"","html-keyboard-response","7","160618","0.0-6.0-0.0-0.1","bmn0tyzef2","one_one","1","direct_first","1","ap09rd22","0","29","1","1","1","1","null","","","<div class = 'row'><div class = 'column'><img src = 'category4/CS5.png' width = '70%;'></div><div class = 'column'><img src = 'uspos/7325.bmp' width = '100%;'></div></div>","null","pos","CS","CS","4","category4/CS5.png","","","","",""
"","html-keyboard-response","8","163157","0.0-6.0-0.0-0.2","bmn0tyzef2","one_one","1","direct_first","1","ap09rd22","0","29","1","1","1","1","null","","","<div class = 'row'><div class = 'column'><img src = 'usneg/2205.bmp' width = '100%;'></div><div class = 'column'><img src = 'category1/CS9.png' width = '70%;'></div></div>","null","neg","CS","CS","1","category1/CS9.png","","","","",""
"","html-keyboard-response","9","165696","0.0-6.0-0.0-0.3","bmn0tyzef2","one_one","1","direct_first","1","ap09rd22","0","29","1","1","1","1","null","","","<div class = 'row'><div class = 'column'><img src = 'usneg/1280.bmp' width = '100%;'></div><div class = 'column'><img src = 'category2/CS1.png' width = '70%;'></div></div>","null","neg","CS","CS","2","category2/CS1.png","","","","",""
"","html-keyboard-response","10","168236","0.0-6.0-0.0-0.4","bmn0tyzef2","one_one","1","direct_first","1","ap09rd22","0","29","1","1","1","1","null","","","<div class = 'row'><div class = 'column'><img src = 'category1/CS9.png' width = '70%;'></div><div class = 'column'><img src = 'usneg/2205.bmp' width = '100%;'></div></div>","null","neg","CS","CS","1","category1/CS9.png","","","","",""
"","html-keyboard-response","11","170777","0.0-6.0-0.0-0.5","bmn0tyzef2","one_one","1","direct_first","1","ap09rd22","0","29","1","1","1","1","null","","","<div class = 'row'><div class = 'column'><img src = 'category3/CS6.png' width = '70%;'></div><div class = 'column'><img src = 'uspos/8190.bmp' width = '100%;'></div></div>","null","pos","CS","CS","3","category3/CS6.png","","","","",""
"","html-keyboard-response","12","173316","0.0-6.0-0.0-0.6","bmn0tyzef2","one_one","1","direct_first","1","ap09rd22","0","29","1","1","1","1","null","","","<div class = 'row'><div class = 'column'><img src = 'category2/CS1.png' width = '70%;'></div><div class = 'column'><img src = 'usneg/1280.bmp' width = '100%;'></div></div>","null","neg","CS","CS","2","category2/CS1.png","","","","",""
"","html-keyboard-response","13","175845","0.0-6.0-0.0-0.7","bmn0tyzef2","one_one","1","direct_first","1","ap09rd22","0","29","1","1","1","1","null","","","<div class = 'row'><div class = 'column'><img src = 'uspos/7325.bmp' width = '100%;'></div><div class = 'column'><img src = 'category4/CS5.png' width = '70%;'></div></div>","null","pos","CS","CS","4","category4/CS5.png","","","","",""
"","html-keyboard-response","14","178347","0.0-6.0-0.0-0.8","bmn0tyzef2","one_one","1","direct_first","1","ap09rd22","0","29","1","1","1","1","null","","","<div class = 'row'><div class = 'column'><img src = 'uspos/8190.bmp' width = '100%;'></div><div class = 'column'><img src = 'category3/CS6.png' width = '70%;'></div></div>","null","pos","CS","CS","3","category3/CS6.png","","","","",""
"","html-keyboard-response","15","180887","0.0-6.0-0.0-0.9","bmn0tyzef2","one_one","1","direct_first","1","ap09rd22","0","29","1","1","1","1","null","","","<div class = 'row'><div class = 'column'><img src = 'uspos/7325.bmp' width = '100%;'></div><div class = 'column'><img src = 'category4/CS5.png' width = '70%;'></div></div>","null","pos","CS","CS","4","category4/CS5.png","","","","",""
"","html-keyboard-response","16","183426","0.0-6.0-0.0-0.10","bmn0tyzef2","one_one","1","direct_first","1","ap09rd22","0","29","1","1","1","1","null","","","<div class = 'row'><div class = 'column'><img src = 'uspos/8190.bmp' width = '100%;'></div><div class = 'column'><img src = 'category3/CS6.png' width = '70%;'></div></div>","null","pos","CS","CS","3","category3/CS6.png","","","","",""
"","html-keyboard-response","17","185964","0.0-6.0-0.0-0.11","bmn0tyzef2","one_one","1","direct_first","1","ap09rd22","0","29","1","1","1","1","null","","","<div class = 'row'><div class = 'column'><img src = 'usneg/2205.bmp' width = '100%;'></div><div class = 'column'><img src = 'category1/CS9.png' width = '70%;'></div></div>","null","neg","CS","CS","1","category1/CS9.png","","","","",""
"","html-keyboard-response","18","188467","0.0-6.0-0.0-0.12","bmn0tyzef2","one_one","1","direct_first","1","ap09rd22","0","29","1","1","1","1","null","","","<div class = 'row'><div class = 'column'><img src = 'category2/CS1.png' width = '70%;'></div><div class = 'column'><img src = 'usneg/1280.bmp' width = '100%;'></div></div>","null","neg","CS","CS","2","category2/CS1.png","","","","",""
"","html-keyboard-response","19","191006","0.0-6.0-0.0-0.13","bmn0tyzef2","one_one","1","direct_first","1","ap09rd22","0","29","1","1","1","1","null","","","<div class = 'row'><div class = 'column'><img src = 'uspos/7325.bmp' width = '100%;'></div><div class = 'column'><img src = 'category4/CS5.png' width = '70%;'></div></div>","null","pos","CS","CS","4","category4/CS5.png","","","","",""
"","html-keyboard-response","20","193536","0.0-6.0-0.0-0.14","bmn0tyzef2","one_one","1","direct_first","1","ap09rd22","0","29","1","1","1","1","null","","","<div class = 'row'><div class = 'column'><img src = 'usneg/2205.bmp' width = '100%;'></div><div class = 'column'><img src = 'category1/CS9.png' width = '70%;'></div></div>","null","neg","CS","CS","1","category1/CS9.png","","","","",""
"","html-keyboard-response","21","196076","0.0-6.0-0.0-0.15","bmn0tyzef2","one_one","1","direct_first","1","ap09rd22","0","29","1","1","1","1","null","","","<div class = 'row'><div class = 'column'><img src = 'uspos/8190.bmp' width = '100%;'></div><div class = 'column'><img src = 'category3/CS6.png' width = '70%;'></div></div>","null","pos","CS","CS","3","category3/CS6.png","","","","",""
"","html-keyboard-response","22","198617","0.0-6.0-0.0-0.16","bmn0tyzef2","one_one","1","direct_first","1","ap09rd22","0","29","1","1","1","1","null","","","<div class = 'row'><div class = 'column'><img src = 'category4/CS5.png' width = '70%;'></div><div class = 'column'><img src = 'uspos/7325.bmp' width = '100%;'></div></div>","null","pos","CS","CS","4","category4/CS5.png","","","","",""
"","html-keyboard-response","23","201157","0.0-6.0-0.0-0.17","bmn0tyzef2","one_one","1","direct_first","1","ap09rd22","0","29","1","1","1","1","null","","","<div class = 'row'><div class = 'column'><img src = 'usneg/1280.bmp' width = '100%;'></div><div class = 'column'><img src = 'category2/CS1.png' width = '70%;'></div></div>","null","neg","CS","CS","2","category2/CS1.png","","","","",""
"","html-keyboard-response","24","203696","0.0-6.0-0.0-0.18","bmn0tyzef2","one_one","1","direct_first","1","ap09rd22","0","29","1","1","1","1","null","","","<div class = 'row'><div class = 'column'><img src = 'category1/CS9.png' width = '70%;'></div><div class = 'column'><img src = 'usneg/2205.bmp' width = '100%;'></div></div>","null","neg","CS","CS","1","category1/CS9.png","","","","",""
"","html-keyboard-response","25","206237","0.0-6.0-0.0-0.19","bmn0tyzef2","one_one","1","direct_first","1","ap09rd22","0","29","1","1","1","1","null","","","<div class = 'row'><div class = 'column'><img src = 'category3/CS6.png' width = '70%;'></div><div class = 'column'><img src = 'uspos/8190.bmp' width = '100%;'></div></div>","null","pos","CS","CS","3","category3/CS6.png","","","","",""
"","survey-html-form","26","215739","0.0-6.0-1.0","bmn0tyzef2","one_one","1","direct_first","1","ap09rd22","0","29","1","1","1","1","8981","","{}","","","","","","","","","","","",""
"","html-keyboard-response","27","219776","0.0-6.0-2.0-0.0","bmn0tyzef2","one_one","1","direct_first","1","ap09rd22","0","29","1","1","1","1","null","","","<div class = 'row'><div class = 'column'><img src = 'usneg/1280.bmp' width = '100%;'></div><div class = 'column'><img src = 'category2/CS1.png' width = '70%;'></div></div>","null","neg","CS","CS","2","category2/CS1.png","","","","",""
"","html-keyboard-response","28","222317","0.0-6.0-2.0-0.1","bmn0tyzef2","one_one","1","direct_first","1","ap09rd22","0","29","1","1","1","1","null","","","<div class = 'row'><div class = 'column'><img src = 'category4/CS5.png' width = '70%;'></div><div class = 'column'><img src = 'uspos/7325.bmp' width = '100%;'></div></div>","null","pos","CS","CS","4","category4/CS5.png","","","","",""
"","html-keyboard-response","29","224856","0.0-6.0-2.0-0.2","bmn0tyzef2","one_one","1","direct_first","1","ap09rd22","0","29","1","1","1","1","null","","","<div class = 'row'><div class = 'column'><img src = 'category1/CS9.png' width = '70%;'></div><div class = 'column'><img src = 'usneg/2205.bmp' width = '100%;'></div></div>","null","neg","CS","CS","1","category1/CS9.png","","","","",""
"","html-keyboard-response","30","227377","0.0-6.0-2.0-0.3","bmn0tyzef2","one_one","1","direct_first","1","ap09rd22","0","29","1","1","1","1","null","","","<div class = 'row'><div class = 'column'><img src = 'uspos/8190.bmp' width = '100%;'></div><div class = 'column'><img src = 'category3/CS6.png' width = '70%;'></div></div>","null","pos","CS","CS","3","category3/CS6.png","","","","",""
"","html-keyboard-response","31","229917","0.0-6.0-2.0-0.4","bmn0tyzef2","one_one","1","direct_first","1","ap09rd22","0","29","1","1","1","1","null","","","<div class = 'row'><div class = 'column'><img src = 'category2/CS1.png' width = '70%;'></div><div class = 'column'><img src = 'usneg/1280.bmp' width = '100%;'></div></div>","null","neg","CS","CS","2","category2/CS1.png","","","","",""
"","html-keyboard-response","32","232456","0.0-6.0-2.0-0.5","bmn0tyzef2","one_one","1","direct_first","1","ap09rd22","0","29","1","1","1","1","null","","","<div class = 'row'><div class = 'column'><img src = 'usneg/2205.bmp' width = '100%;'></div><div class = 'column'><img src = 'category1/CS9.png' width = '70%;'></div></div>","null","neg","CS","CS","1","category1/CS9.png","","","","",""
"","html-keyboard-response","33","234997","0.0-6.0-2.0-0.6","bmn0tyzef2","one_one","1","direct_first","1","ap09rd22","0","29","1","1","1","1","null","","","<div class = 'row'><div class = 'column'><img src = 'uspos/8190.bmp' width = '100%;'></div><div class = 'column'><img src = 'category3/CS6.png' width = '70%;'></div></div>","null","pos","CS","CS","3","category3/CS6.png","","","","",""
"","html-keyboard-response","34","237536","0.0-6.0-2.0-0.7","bmn0tyzef2","one_one","1","direct_first","1","ap09rd22","0","29","1","1","1","1","null","","","<div class = 'row'><div class = 'column'><img src = 'category4/CS5.png' width = '70%;'></div><div class = 'column'><img src = 'uspos/7325.bmp' width = '100%;'></div></div>","null","pos","CS","CS","4","category4/CS5.png","","","","",""
"","html-keyboard-response","35","240076","0.0-6.0-2.0-0.8","bmn0tyzef2","one_one","1","direct_first","1","ap09rd22","0","29","1","1","1","1","null","","","<div class = 'row'><div class = 'column'><img src = 'category3/CS6.png' width = '70%;'></div><div class = 'column'><img src = 'uspos/8190.bmp' width = '100%;'></div></div>","null","pos","CS","CS","3","category3/CS6.png","","","","",""
"","html-keyboard-response","36","242617","0.0-6.0-2.0-0.9","bmn0tyzef2","one_one","1","direct_first","1","ap09rd22","0","29","1","1","1","1","null","","","<div class = 'row'><div class = 'column'><img src = 'uspos/7325.bmp' width = '100%;'></div><div class = 'column'><img src = 'category4/CS5.png' width = '70%;'></div></div>","null","pos","CS","CS","4","category4/CS5.png","","","","",""
"","html-keyboard-response","37","245157","0.0-6.0-2.0-0.10","bmn0tyzef2","one_one","1","direct_first","1","ap09rd22","0","29","1","1","1","1","null","","","<div class = 'row'><div class = 'column'><img src = 'usneg/1280.bmp' width = '100%;'></div><div class = 'column'><img src = 'category2/CS1.png' width = '70%;'></div></div>","null","neg","CS","CS","2","category2/CS1.png","","","","",""
"","html-keyboard-response","38","247696","0.0-6.0-2.0-0.11","bmn0tyzef2","one_one","1","direct_first","1","ap09rd22","0","29","1","1","1","1","null","","","<div class = 'row'><div class = 'column'><img src = 'category3/CS6.png' width = '70%;'></div><div class = 'column'><img src = 'uspos/8190.bmp' width = '100%;'></div></div>","null","pos","CS","CS","3","category3/CS6.png","","","","",""
"","html-keyboard-response","39","250226","0.0-6.0-2.0-0.12","bmn0tyzef2","one_one","1","direct_first","1","ap09rd22","0","29","1","1","1","1","null","","","<div class = 'row'><div class = 'column'><img src = 'category4/CS5.png' width = '70%;'></div><div class = 'column'><img src = 'uspos/7325.bmp' width = '100%;'></div></div>","null","pos","CS","CS","4","category4/CS5.png","","","","",""
"","html-keyboard-response","40","252766","0.0-6.0-2.0-0.13","bmn0tyzef2","one_one","1","direct_first","1","ap09rd22","0","29","1","1","1","1","null","","","<div class = 'row'><div class = 'column'><img src = 'usneg/2205.bmp' width = '100%;'></div><div class = 'column'><img src = 'category1/CS9.png' width = '70%;'></div></div>","null","neg","CS","CS","1","category1/CS9.png","","","","",""
"","html-keyboard-response","41","255306","0.0-6.0-2.0-0.14","bmn0tyzef2","one_one","1","direct_first","1","ap09rd22","0","29","1","1","1","1","null","","","<div class = 'row'><div class = 'column'><img src = 'uspos/7325.bmp' width = '100%;'></div><div class = 'column'><img src = 'category4/CS5.png' width = '70%;'></div></div>","null","pos","CS","CS","4","category4/CS5.png","","","","",""
"","html-keyboard-response","42","257846","0.0-6.0-2.0-0.15","bmn0tyzef2","one_one","1","direct_first","1","ap09rd22","0","29","1","1","1","1","null","","","<div class = 'row'><div class = 'column'><img src = 'category3/CS6.png' width = '70%;'></div><div class = 'column'><img src = 'uspos/8190.bmp' width = '100%;'></div></div>","null","pos","CS","CS","3","category3/CS6.png","","","","",""
"","html-keyboard-response","43","260376","0.0-6.0-2.0-0.16","bmn0tyzef2","one_one","1","direct_first","1","ap09rd22","0","29","1","1","1","1","null","","","<div class = 'row'><div class = 'column'><img src = 'category1/CS9.png' width = '70%;'></div><div class = 'column'><img src = 'usneg/2205.bmp' width = '100%;'></div></div>","null","neg","CS","CS","1","category1/CS9.png","","","","",""
"","html-keyboard-response","44","262896","0.0-6.0-2.0-0.17","bmn0tyzef2","one_one","1","direct_first","1","ap09rd22","0","29","1","1","1","1","null","","","<div class = 'row'><div class = 'column'><img src = 'category2/CS1.png' width = '70%;'></div><div class = 'column'><img src = 'usneg/1280.bmp' width = '100%;'></div></div>","null","neg","CS","CS","2","category2/CS1.png","","","","",""
"","html-keyboard-response","45","265436","0.0-6.0-2.0-0.18","bmn0tyzef2","one_one","1","direct_first","1","ap09rd22","0","29","1","1","1","1","null","","","<div class = 'row'><div class = 'column'><img src = 'usneg/2205.bmp' width = '100%;'></div><div class = 'column'><img src = 'category1/CS9.png' width = '70%;'></div></div>","null","neg","CS","CS","1","category1/CS9.png","","","","",""
"","html-keyboard-response","46","267976","0.0-6.0-2.0-0.19","bmn0tyzef2","one_one","1","direct_first","1","ap09rd22","0","29","1","1","1","1","null","","","<div class = 'row'><div class = 'column'><img src = 'category2/CS1.png' width = '70%;'></div><div class = 'column'><img src = 'usneg/1280.bmp' width = '100%;'></div></div>","null","neg","CS","CS","2","category2/CS1.png","","","","",""
"","survey-html-form","47","293409","0.0-6.0-3.0","bmn0tyzef2","one_one","1","direct_first","1","ap09rd22","0","29","1","1","1","1","24912","","{}","","","","","","","","","","","",""
"","html-keyboard-response","48","297436","0.0-6.0-4.0-0.0","bmn0tyzef2","one_one","1","direct_first","1","ap09rd22","0","29","1","1","1","1","null","","","<div class = 'row'><div class = 'column'><img src = 'uspos/7325.bmp' width = '100%;'></div><div class = 'column'><img src = 'category4/CS5.png' width = '70%;'></div></div>","null","pos","CS","CS","4","category4/CS5.png","","","","",""
"","html-keyboard-response","49","299955","0.0-6.0-4.0-0.1","bmn0tyzef2","one_one","1","direct_first","1","ap09rd22","0","29","1","1","1","1","null","","","<div class = 'row'><div class = 'column'><img src = 'usneg/1280.bmp' width = '100%;'></div><div class = 'column'><img src = 'category2/CS1.png' width = '70%;'></div></div>","null","neg","CS","CS","2","category2/CS1.png","","","","",""
"","html-keyboard-response","50","302495","0.0-6.0-4.0-0.2","bmn0tyzef2","one_one","1","direct_first","1","ap09rd22","0","29","1","1","1","1","null","","","<div class = 'row'><div class = 'column'><img src = 'category1/CS9.png' width = '70%;'></div><div class = 'column'><img src = 'usneg/2205.bmp' width = '100%;'></div></div>","null","neg","CS","CS","1","category1/CS9.png","","","","",""
"","html-keyboard-response","51","305035","0.0-6.0-4.0-0.3","bmn0tyzef2","one_one","1","direct_first","1","ap09rd22","0","29","1","1","1","1","null","","","<div class = 'row'><div class = 'column'><img src = 'category3/CS6.png' width = '70%;'></div><div class = 'column'><img src = 'uspos/8190.bmp' width = '100%;'></div></div>","null","pos","CS","CS","3","category3/CS6.png","","","","",""
"","html-keyboard-response","52","307574","0.0-6.0-4.0-0.4","bmn0tyzef2","one_one","1","direct_first","1","ap09rd22","0","29","1","1","1","1","null","","","<div class = 'row'><div class = 'column'><img src = 'category4/CS5.png' width = '70%;'></div><div class = 'column'><img src = 'uspos/7325.bmp' width = '100%;'></div></div>","null","pos","CS","CS","4","category4/CS5.png","","","","",""
"","html-keyboard-response","53","310115","0.0-6.0-4.0-0.5","bmn0tyzef2","one_one","1","direct_first","1","ap09rd22","0","29","1","1","1","1","null","","","<div class = 'row'><div class = 'column'><img src = 'usneg/1280.bmp' width = '100%;'></div><div class = 'column'><img src = 'category2/CS1.png' width = '70%;'></div></div>","null","neg","CS","CS","2","category2/CS1.png","","","","",""
"","html-keyboard-response","54","312654","0.0-6.0-4.0-0.6","bmn0tyzef2","one_one","1","direct_first","1","ap09rd22","0","29","1","1","1","1","null","","","<div class = 'row'><div class = 'column'><img src = 'uspos/7325.bmp' width = '100%;'></div><div class = 'column'><img src = 'category4/CS5.png' width = '70%;'></div></div>","null","pos","CS","CS","4","category4/CS5.png","","","","",""
"","html-keyboard-response","55","315194","0.0-6.0-4.0-0.7","bmn0tyzef2","one_one","1","direct_first","1","ap09rd22","0","29","1","1","1","1","null","","","<div class = 'row'><div class = 'column'><img src = 'category3/CS6.png' width = '70%;'></div><div class = 'column'><img src = 'uspos/8190.bmp' width = '100%;'></div></div>","null","pos","CS","CS","3","category3/CS6.png","","","","",""
"","html-keyboard-response","56","317735","0.0-6.0-4.0-0.8","bmn0tyzef2","one_one","1","direct_first","1","ap09rd22","0","29","1","1","1","1","null","","","<div class = 'row'><div class = 'column'><img src = 'category1/CS9.png' width = '70%;'></div><div class = 'column'><img src = 'usneg/2205.bmp' width = '100%;'></div></div>","null","neg","CS","CS","1","category1/CS9.png","","","","",""
"","html-keyboard-response","57","320254","0.0-6.0-4.0-0.9","bmn0tyzef2","one_one","1","direct_first","1","ap09rd22","0","29","1","1","1","1","null","","","<div class = 'row'><div class = 'column'><img src = 'category3/CS6.png' width = '70%;'></div><div class = 'column'><img src = 'uspos/8190.bmp' width = '100%;'></div></div>","null","pos","CS","CS","3","category3/CS6.png","","","","",""
"","html-keyboard-response","58","322794","0.0-6.0-4.0-0.10","bmn0tyzef2","one_one","1","direct_first","1","ap09rd22","0","29","1","1","1","1","null","","","<div class = 'row'><div class = 'column'><img src = 'category4/CS5.png' width = '70%;'></div><div class = 'column'><img src = 'uspos/7325.bmp' width = '100%;'></div></div>","null","pos","CS","CS","4","category4/CS5.png","","","","",""
"","html-keyboard-response","59","325335","0.0-6.0-4.0-0.11","bmn0tyzef2","one_one","1","direct_first","1","ap09rd22","0","29","1","1","1","1","null","","","<div class = 'row'><div class = 'column'><img src = 'category1/CS9.png' width = '70%;'></div><div class = 'column'><img src = 'usneg/2205.bmp' width = '100%;'></div></div>","null","neg","CS","CS","1","category1/CS9.png","","","","",""
"","html-keyboard-response","60","327874","0.0-6.0-4.0-0.12","bmn0tyzef2","one_one","1","direct_first","1","ap09rd22","0","29","1","1","1","1","null","","","<div class = 'row'><div class = 'column'><img src = 'usneg/1280.bmp' width = '100%;'></div><div class = 'column'><img src = 'category2/CS1.png' width = '70%;'></div></div>","null","neg","CS","CS","2","category2/CS1.png","","","","",""
"","html-keyboard-response","61","330376","0.0-6.0-4.0-0.13","bmn0tyzef2","one_one","1","direct_first","1","ap09rd22","0","29","1","1","1","1","null","","","<div class = 'row'><div class = 'column'><img src = 'uspos/8190.bmp' width = '100%;'></div><div class = 'column'><img src = 'category3/CS6.png' width = '70%;'></div></div>","null","pos","CS","CS","3","category3/CS6.png","","","","",""
"","html-keyboard-response","62","332894","0.0-6.0-4.0-0.14","bmn0tyzef2","one_one","1","direct_first","1","ap09rd22","0","29","1","1","1","1","null","","","<div class = 'row'><div class = 'column'><img src = 'category2/CS1.png' width = '70%;'></div><div class = 'column'><img src = 'usneg/1280.bmp' width = '100%;'></div></div>","null","neg","CS","CS","2","category2/CS1.png","","","","",""
"","html-keyboard-response","63","335434","0.0-6.0-4.0-0.15","bmn0tyzef2","one_one","1","direct_first","1","ap09rd22","0","29","1","1","1","1","null","","","<div class = 'row'><div class = 'column'><img src = 'usneg/2205.bmp' width = '100%;'></div><div class = 'column'><img src = 'category1/CS9.png' width = '70%;'></div></div>","null","neg","CS","CS","1","category1/CS9.png","","","","",""
"","html-keyboard-response","64","337952","0.0-6.0-4.0-0.16","bmn0tyzef2","one_one","1","direct_first","1","ap09rd22","0","29","1","1","1","1","null","","","<div class = 'row'><div class = 'column'><img src = 'uspos/8190.bmp' width = '100%;'></div><div class = 'column'><img src = 'category3/CS6.png' width = '70%;'></div></div>","null","pos","CS","CS","3","category3/CS6.png","","","","",""
"","html-keyboard-response","65","340474","0.0-6.0-4.0-0.17","bmn0tyzef2","one_one","1","direct_first","1","ap09rd22","0","29","1","1","1","1","null","","","<div class = 'row'><div class = 'column'><img src = 'usneg/2205.bmp' width = '100%;'></div><div class = 'column'><img src = 'category1/CS9.png' width = '70%;'></div></div>","null","neg","CS","CS","1","category1/CS9.png","","","","",""
"","html-keyboard-response","66","342994","0.0-6.0-4.0-0.18","bmn0tyzef2","one_one","1","direct_first","1","ap09rd22","0","29","1","1","1","1","null","","","<div class = 'row'><div class = 'column'><img src = 'usneg/1280.bmp' width = '100%;'></div><div class = 'column'><img src = 'category2/CS1.png' width = '70%;'></div></div>","null","neg","CS","CS","2","category2/CS1.png","","","","",""
"","html-keyboard-response","67","345533","0.0-6.0-4.0-0.19","bmn0tyzef2","one_one","1","direct_first","1","ap09rd22","0","29","1","1","1","1","null","","","<div class = 'row'><div class = 'column'><img src = 'uspos/7325.bmp' width = '100%;'></div><div class = 'column'><img src = 'category4/CS5.png' width = '70%;'></div></div>","null","pos","CS","CS","4","category4/CS5.png","","","","",""
"","survey-html-form","68","356007","0.0-6.0-5.0","bmn0tyzef2","one_one","1","direct_first","1","ap09rd22","0","29","1","1","1","1","9955","","{}","","","","","","","","","","","",""
"","html-keyboard-response","69","360043","0.0-6.0-6.0-0.0","bmn0tyzef2","one_one","1","direct_first","1","ap09rd22","0","29","1","1","1","1","null","","","<div class = 'row'><div class = 'column'><img src = 'usneg/2205.bmp' width = '100%;'></div><div class = 'column'><img src = 'category1/CS9.png' width = '70%;'></div></div>","null","neg","CS","CS","1","category1/CS9.png","","","","",""
"","html-keyboard-response","70","362584","0.0-6.0-6.0-0.1","bmn0tyzef2","one_one","1","direct_first","1","ap09rd22","0","29","1","1","1","1","null","","","<div class = 'row'><div class = 'column'><img src = 'usneg/1280.bmp' width = '100%;'></div><div class = 'column'><img src = 'category2/CS1.png' width = '70%;'></div></div>","null","neg","CS","CS","2","category2/CS1.png","","","","",""
"","html-keyboard-response","71","365123","0.0-6.0-6.0-0.2","bmn0tyzef2","one_one","1","direct_first","1","ap09rd22","0","29","1","1","1","1","null","","","<div class = 'row'><div class = 'column'><img src = 'usneg/2205.bmp' width = '100%;'></div><div class = 'column'><img src = 'category1/CS9.png' width = '70%;'></div></div>","null","neg","CS","CS","1","category1/CS9.png","","","","",""
"","html-keyboard-response","72","367663","0.0-6.0-6.0-0.3","bmn0tyzef2","one_one","1","direct_first","1","ap09rd22","0","29","1","1","1","1","null","","","<div class = 'row'><div class = 'column'><img src = 'uspos/8190.bmp' width = '100%;'></div><div class = 'column'><img src = 'category3/CS6.png' width = '70%;'></div></div>","null","pos","CS","CS","3","category3/CS6.png","","","","",""
"","html-keyboard-response","73","370203","0.0-6.0-6.0-0.4","bmn0tyzef2","one_one","1","direct_first","1","ap09rd22","0","29","1","1","1","1","null","","","<div class = 'row'><div class = 'column'><img src = 'category2/CS1.png' width = '70%;'></div><div class = 'column'><img src = 'usneg/1280.bmp' width = '100%;'></div></div>","null","neg","CS","CS","2","category2/CS1.png","","","","",""
"","html-keyboard-response","74","372742","0.0-6.0-6.0-0.5","bmn0tyzef2","one_one","1","direct_first","1","ap09rd22","0","29","1","1","1","1","null","","","<div class = 'row'><div class = 'column'><img src = 'uspos/7325.bmp' width = '100%;'></div><div class = 'column'><img src = 'category4/CS5.png' width = '70%;'></div></div>","null","pos","CS","CS","4","category4/CS5.png","","","","",""
"","html-keyboard-response","75","375282","0.0-6.0-6.0-0.6","bmn0tyzef2","one_one","1","direct_first","1","ap09rd22","0","29","1","1","1","1","null","","","<div class = 'row'><div class = 'column'><img src = 'usneg/2205.bmp' width = '100%;'></div><div class = 'column'><img src = 'category1/CS9.png' width = '70%;'></div></div>","null","neg","CS","CS","1","category1/CS9.png","","","","",""
"","html-keyboard-response","76","377822","0.0-6.0-6.0-0.7","bmn0tyzef2","one_one","1","direct_first","1","ap09rd22","0","29","1","1","1","1","null","","","<div class = 'row'><div class = 'column'><img src = 'category3/CS6.png' width = '70%;'></div><div class = 'column'><img src = 'uspos/8190.bmp' width = '100%;'></div></div>","null","pos","CS","CS","3","category3/CS6.png","","","","",""
"","html-keyboard-response","77","380343","0.0-6.0-6.0-0.8","bmn0tyzef2","one_one","1","direct_first","1","ap09rd22","0","29","1","1","1","1","null","","","<div class = 'row'><div class = 'column'><img src = 'usneg/1280.bmp' width = '100%;'></div><div class = 'column'><img src = 'category2/CS1.png' width = '70%;'></div></div>","null","neg","CS","CS","2","category2/CS1.png","","","","",""
"","html-keyboard-response","78","382882","0.0-6.0-6.0-0.9","bmn0tyzef2","one_one","1","direct_first","1","ap09rd22","0","29","1","1","1","1","null","","","<div class = 'row'><div class = 'column'><img src = 'uspos/7325.bmp' width = '100%;'></div><div class = 'column'><img src = 'category4/CS5.png' width = '70%;'></div></div>","null","pos","CS","CS","4","category4/CS5.png","","","","",""
"","html-keyboard-response","79","385423","0.0-6.0-6.0-0.10","bmn0tyzef2","one_one","1","direct_first","1","ap09rd22","0","29","1","1","1","1","null","","","<div class = 'row'><div class = 'column'><img src = 'category1/CS9.png' width = '70%;'></div><div class = 'column'><img src = 'usneg/2205.bmp' width = '100%;'></div></div>","null","neg","CS","CS","1","category1/CS9.png","","","","",""
"","html-keyboard-response","80","387963","0.0-6.0-6.0-0.11","bmn0tyzef2","one_one","1","direct_first","1","ap09rd22","0","29","1","1","1","1","null","","","<div class = 'row'><div class = 'column'><img src = 'category2/CS1.png' width = '70%;'></div><div class = 'column'><img src = 'usneg/1280.bmp' width = '100%;'></div></div>","null","neg","CS","CS","2","category2/CS1.png","","","","",""
"","html-keyboard-response","81","390483","0.0-6.0-6.0-0.12","bmn0tyzef2","one_one","1","direct_first","1","ap09rd22","0","29","1","1","1","1","null","","","<div class = 'row'><div class = 'column'><img src = 'uspos/7325.bmp' width = '100%;'></div><div class = 'column'><img src = 'category4/CS5.png' width = '70%;'></div></div>","null","pos","CS","CS","4","category4/CS5.png","","","","",""
"","html-keyboard-response","82","393022","0.0-6.0-6.0-0.13","bmn0tyzef2","one_one","1","direct_first","1","ap09rd22","0","29","1","1","1","1","null","","","<div class = 'row'><div class = 'column'><img src = 'uspos/8190.bmp' width = '100%;'></div><div class = 'column'><img src = 'category3/CS6.png' width = '70%;'></div></div>","null","pos","CS","CS","3","category3/CS6.png","","","","",""
"","html-keyboard-response","83","395562","0.0-6.0-6.0-0.14","bmn0tyzef2","one_one","1","direct_first","1","ap09rd22","0","29","1","1","1","1","null","","","<div class = 'row'><div class = 'column'><img src = 'uspos/7325.bmp' width = '100%;'></div><div class = 'column'><img src = 'category4/CS5.png' width = '70%;'></div></div>","null","pos","CS","CS","4","category4/CS5.png","","","","",""
"","html-keyboard-response","84","398102","0.0-6.0-6.0-0.15","bmn0tyzef2","one_one","1","direct_first","1","ap09rd22","0","29","1","1","1","1","null","","","<div class = 'row'><div class = 'column'><img src = 'category3/CS6.png' width = '70%;'></div><div class = 'column'><img src = 'uspos/8190.bmp' width = '100%;'></div></div>","null","pos","CS","CS","3","category3/CS6.png","","","","",""
"","html-keyboard-response","85","400642","0.0-6.0-6.0-0.16","bmn0tyzef2","one_one","1","direct_first","1","ap09rd22","0","29","1","1","1","1","null","","","<div class = 'row'><div class = 'column'><img src = 'uspos/7325.bmp' width = '100%;'></div><div class = 'column'><img src = 'category4/CS5.png' width = '70%;'></div></div>","null","pos","CS","CS","4","category4/CS5.png","","","","",""
"","html-keyboard-response","86","403182","0.0-6.0-6.0-0.17","bmn0tyzef2","one_one","1","direct_first","1","ap09rd22","0","29","1","1","1","1","null","","","<div class = 'row'><div class = 'column'><img src = 'category3/CS6.png' width = '70%;'></div><div class = 'column'><img src = 'uspos/8190.bmp' width = '100%;'></div></div>","null","pos","CS","CS","3","category3/CS6.png","","","","",""
"","html-keyboard-response","87","405721","0.0-6.0-6.0-0.18","bmn0tyzef2","one_one","1","direct_first","1","ap09rd22","0","29","1","1","1","1","null","","","<div class = 'row'><div class = 'column'><img src = 'usneg/2205.bmp' width = '100%;'></div><div class = 'column'><img src = 'category1/CS9.png' width = '70%;'></div></div>","null","neg","CS","CS","1","category1/CS9.png","","","","",""
"","html-keyboard-response","88","408238","0.0-6.0-6.0-0.19","bmn0tyzef2","one_one","1","direct_first","1","ap09rd22","0","29","1","1","1","1","null","","","<div class = 'row'><div class = 'column'><img src = 'category2/CS1.png' width = '70%;'></div><div class = 'column'><img src = 'usneg/1280.bmp' width = '100%;'></div></div>","null","neg","CS","CS","2","category2/CS1.png","","","","",""
"","survey-html-form","89","419069","0.0-7.0","bmn0tyzef2","one_one","1","direct_first","1","ap09rd22","0","29","1","1","1","1","10330","","{}","","","","","","","","","","","",""
"","image-slider-response","90","430349","0.0-8.0-0.0","bmn0tyzef2","one_one","1","direct_first","1","ap09rd22","0","29","1","1","1","1","9261","","","","","neg","GS","GSold","2","category2/CS7.png","-21","targets/15.png","direct","",""
"","image-slider-response","91","435604","0.0-8.0-0.1","bmn0tyzef2","one_one","1","direct_first","1","ap09rd22","0","29","1","1","1","1","5254","","","","","pos","CS","CS","3","category3/CS6.png","79","targets/2.png","direct","",""
"","image-slider-response","92","444812","0.0-8.0-0.2","bmn0tyzef2","one_one","1","direct_first","1","ap09rd22","0","29","1","1","1","1","9207","","","","","pos","GS","GSnew","3","category3/GS1.png","-15","targets/26.png","direct","",""
"","image-slider-response","93","453996","0.0-8.0-0.3","bmn0tyzef2","one_one","1","direct_first","1","ap09rd22","0","29","1","1","1","1","9182","","","","","neg","GS","abstract","2","category2/men.png","-8","targets/48.png","direct","",""
"","image-slider-response","94","460476","0.0-8.0-0.4","bmn0tyzef2","one_one","1","direct_first","1","ap09rd22","0","29","1","1","1","1","6478","","","","","pos","CS","CS","4","category4/CS5.png","60","targets/43.png","direct","",""
"","image-slider-response","95","464811","0.0-8.0-0.5","bmn0tyzef2","one_one","1","direct_first","1","ap09rd22","0","29","1","1","1","1","4335","","","","","neg","GS","GSnew","1","category1/GS1.png","-54","targets/32.png","direct","",""
"","image-slider-response","96","469955","0.0-8.0-0.6","bmn0tyzef2","one_one","1","direct_first","1","ap09rd22","0","29","1","1","1","1","5143","","","","","pos","GS","GSold","4","category4/CS1.png","56","targets/12.png","direct","",""
"","image-slider-response","97","475011","0.0-8.0-0.7","bmn0tyzef2","one_one","1","direct_first","1","ap09rd22","0","29","1","1","1","1","5054","","","","","neg","GS","GSold","2","category2/CS3.png","-71","targets/25.png","direct","",""
"","image-slider-response","98","479355","0.0-8.0-0.8","bmn0tyzef2","one_one","1","direct_first","1","ap09rd22","0","29","1","1","1","1","4342","","","","","pos","GS","GSold","3","category3/CS4.png","55","targets/5.png","direct","",""
"","image-slider-response","99","485675","0.0-8.0-0.9","bmn0tyzef2","one_one","1","direct_first","1","ap09rd22","0","29","1","1","1","1","6319","","","","","pos","GS","GSold","4","category4/CS2.png","14","targets/47.png","direct","",""
"","image-slider-response","100","489299","0.0-8.0-0.10","bmn0tyzef2","one_one","1","direct_first","1","ap09rd22","0","29","1","1","1","1","3622","","","","","neg","GS","GSnew","1","category1/GS3.png","55","targets/33.png","direct","",""
"","image-slider-response","101","493290","0.0-8.0-0.11","bmn0tyzef2","one_one","1","direct_first","1","ap09rd22","0","29","1","1","1","1","3991","","","","","neg","CS","CS","1","category1/CS9.png","-65","targets/7.png","direct","",""
"","image-slider-response","102","497122","0.0-8.0-0.12","bmn0tyzef2","one_one","1","direct_first","1","ap09rd22","0","29","1","1","1","1","3830","","","","","neg","GS","GSold","1","category1/CS3.png","-45","targets/8.png","direct","",""
"","image-slider-response","103","501042","0.0-8.0-0.13","bmn0tyzef2","one_one","1","direct_first","1","ap09rd22","0","29","1","1","1","1","3919","","","","","pos","GS","GSnew","4","category4/GS3.png","43","targets/46.png","direct","",""
"","image-slider-response","104","505027","0.0-8.0-0.14","bmn0tyzef2","one_one","1","direct_first","1","ap09rd22","0","29","1","1","1","1","3982","","","","","neg","GS","GSold","1","category1/CS1.png","-33","targets/40.png","direct","",""
"","image-slider-response","105","508218","0.0-8.0-0.15","bmn0tyzef2","one_one","1","direct_first","1","ap09rd22","0","29","1","1","1","1","3190","","","","","pos","GS","GSold","3","category3/CS2.png","68","targets/20.png","direct","",""
"","image-slider-response","106","511691","0.0-8.0-0.16","bmn0tyzef2","one_one","1","direct_first","1","ap09rd22","0","29","1","1","1","1","3470","","","","","neg","GS","GSold","1","category1/CS4.png","-76","targets/1.png","direct","",""
"","image-slider-response","107","515834","0.0-8.0-0.17","bmn0tyzef2","one_one","1","direct_first","1","ap09rd22","0","29","1","1","1","1","4143","","","","","neg","CS","CS","2","category2/CS1.png","-73","targets/6.png","direct","",""
"","image-slider-response","108","518818","0.0-8.0-0.18","bmn0tyzef2","one_one","1","direct_first","1","ap09rd22","0","29","1","1","1","1","2983","","","","","pos","GS","GSnew","3","category3/GS3.png","56","targets/30.png","direct","",""
"","image-slider-response","109","522610","0.0-8.0-0.19","bmn0tyzef2","one_one","1","direct_first","1","ap09rd22","0","29","1","1","1","1","3791","","","","","pos","GS","GSnew","4","category4/GS2.png","-83","targets/35.png","direct","",""
"","image-slider-response","110","526722","0.0-8.0-0.20","bmn0tyzef2","one_one","1","direct_first","1","ap09rd22","0","29","1","1","1","1","4112","","","","","pos","GS","GSold","3","category3/CS8.png","11","targets/36.png","direct","",""
"","image-slider-response","111","531002","0.0-8.0-0.21","bmn0tyzef2","one_one","1","direct_first","1","ap09rd22","0","29","1","1","1","1","4278","","","","","pos","GS","GSnew","3","category3/GS2.png","-92","targets/10.png","direct","",""
"","image-slider-response","112","536617","0.0-8.0-0.22","bmn0tyzef2","one_one","1","direct_first","1","ap09rd22","0","29","1","1","1","1","5615","","","","","pos","GS","GSold","4","category4/CS9.png","-7","targets/18.png","direct","",""
"","image-slider-response","113","541274","0.0-8.0-0.23","bmn0tyzef2","one_one","1","direct_first","1","ap09rd22","0","29","1","1","1","1","4655","","","","","neg","GS","abstract","1","category1/ma.png","10","targets/42.png","direct","",""
"","image-slider-response","114","547137","0.0-8.0-0.24","bmn0tyzef2","one_one","1","direct_first","1","ap09rd22","0","29","1","1","1","1","5861","","","","","neg","GS","GSnew","1","category1/GS2.png","32","targets/17.png","direct","",""
"","image-slider-response","115","550329","0.0-8.0-0.25","bmn0tyzef2","one_one","1","direct_first","1","ap09rd22","0","29","1","1","1","1","3190","","","","","neg","GS","GSold","2","category2/CS9.png","-85","targets/13.png","direct","",""
"","image-slider-response","116","553177","0.0-8.0-0.26","bmn0tyzef2","one_one","1","direct_first","1","ap09rd22","0","29","1","1","1","1","2847","","","","","pos","GS","abstract","4","category4/lin.png","36","targets/28.png","direct","",""
"","image-slider-response","117","557441","0.0-8.0-0.27","bmn0tyzef2","one_one","1","direct_first","1","ap09rd22","0","29","1","1","1","1","4262","","","","","neg","GS","GSnew","2","category2/GS1.png","-22","targets/24.png","direct","",""
"","image-slider-response","118","561369","0.0-8.0-0.28","bmn0tyzef2","one_one","1","direct_first","1","ap09rd22","0","29","1","1","1","1","3927","","","","","neg","GS","GSnew","2","category2/GS3.png","-24","targets/21.png","direct","",""
"","image-slider-response","119","567513","0.0-8.0-0.29","bmn0tyzef2","one_one","1","direct_first","1","ap09rd22","0","29","1","1","1","1","6143","","","","","neg","GS","GSnew","2","category2/GS2.png","-68","targets/16.png","direct","",""
"","image-slider-response","120","572097","0.0-8.0-0.30","bmn0tyzef2","one_one","1","direct_first","1","ap09rd22","0","29","1","1","1","1","4582","","","","","pos","GS","GSnew","4","category4/GS1.png","7","targets/9.png","direct","",""
"","image-slider-response","121","574458","0.0-8.0-0.31","bmn0tyzef2","one_one","1","direct_first","1","ap09rd22","0","29","1","1","1","1","2359","","","","","pos","GS","abstract","3","category3/wang.png","55","targets/44.png","direct","",""
"","html-keyboard-response","122","614979","0.0-9.0","bmn0tyzef2","one_one","1","direct_first","1","ap09rd22","0","29","1","1","1","1","40521","","","<p>Sie sehen nun die chinesischen Zeichen nur ganz kurz. Danach sehen Sie die jeweilige Aussprache der Zeichen als Silbe auf dem Bildschrim. Ihre Aufgabe ist es, für jede Silbe anzugeben, ob diese etwas angenehmes, oder unangenehmes bedeuten könnte. Verlassen Sie sich hier vor allem auf Ihre Intuition.<br><br>Die Zeichen werden nur zur Orientierung dargestellt, beachten Sie sie deshalb nicht. Konzentrieren Sie sich vor allem auf die Silben. <br>Reagieren Sie mit folgenden zwei Tasten: <br><br><b>'D' </b> wenn die Silbe etwas <b>unangenehmes</b> bedeuten könnte. <br><b>'K'</b> wenn die Silbe etwas <b>angenehmes</b> bedeuten könnte. <br><br>Bitte legen Sie nun den Zeigefinger der linken Hand auf die Taste 'D' und den Zeigefinger der rechten Hand auf die Taste 'K'. <br>Reagieren Sie auf jede Silbe so schnell wie möglich. Uns interessiert Ihre spontane Reaktion. <br> <br> <br>Drücken Sie 'D' oder 'K', um die nächste Aufgabe zu starten. </p>","68","","","","","","","","","",""
"","html-keyboard-response","123","618007","0.0-10.0-0.0","bmn0tyzef2","one_one","1","direct_first","1","ap09rd22","0","29","1","1","1","1","null","","","<div style=""font-size:60px;"">+</div>","null","","","","","","","","","",""
"","html-keyboard-response","124","618108","0.0-10.0-1.0","bmn0tyzef2","one_one","1","direct_first","1","ap09rd22","0","29","1","1","1","1","null","","","<img src = 'category4/CS2.png' width = '100%;'>","null","","","","","","","","","",""
"","html-keyboard-response","125","618388","0.0-10.0-2.0","bmn0tyzef2","one_one","1","direct_first","1","ap09rd22","0","29","1","1","1","1","null","","","<img src = 'targets/47.png' width = '100%;'>","null","","","","","","","","","",""
"","html-keyboard-response","126","619730","0.0-10.0-3.0","bmn0tyzef2","one_one","1","direct_first","1","ap09rd22","0","29","1","1","1","1","1340","","","<img src = 'targets/mask.png' width = '100%;'>","68","pos","GS","GSold","4","category4/CS2.png","","targets/47.png","indirect","0","0"
"","html-keyboard-response","127","621268","0.0-10.0-0.1","bmn0tyzef2","one_one","1","direct_first","1","ap09rd22","0","29","1","1","1","1","null","","","<div style=""font-size:60px;"">+</div>","null","","","","","","","","","",""
"","html-keyboard-response","128","621368","0.0-10.0-1.1","bmn0tyzef2","one_one","1","direct_first","1","ap09rd22","0","29","1","1","1","1","null","","","<img src = 'category4/CS9.png' width = '100%;'>","null","","","","","","","","","",""
"","html-keyboard-response","129","621647","0.0-10.0-2.1","bmn0tyzef2","one_one","1","direct_first","1","ap09rd22","0","29","1","1","1","1","null","","","<img src = 'targets/18.png' width = '100%;'>","null","","","","","","","","","",""
"","html-keyboard-response","130","622755","0.0-10.0-3.1","bmn0tyzef2","one_one","1","direct_first","1","ap09rd22","0","29","1","1","1","1","1106","","","<img src = 'targets/mask.png' width = '100%;'>","68","pos","GS","GSold","4","category4/CS9.png","","targets/18.png","indirect","0","1"
"","html-keyboard-response","131","624287","0.0-10.0-0.2","bmn0tyzef2","one_one","1","direct_first","1","ap09rd22","0","29","1","1","1","1","null","","","<div style=""font-size:60px;"">+</div>","null","","","","","","","","","",""
"","html-keyboard-response","132","624388","0.0-10.0-1.2","bmn0tyzef2","one_one","1","direct_first","1","ap09rd22","0","29","1","1","1","1","null","","","<img src = 'category1/CS3.png' width = '100%;'>","null","","","","","","","","","",""
"","html-keyboard-response","133","624668","0.0-10.0-2.2","bmn0tyzef2","one_one","1","direct_first","1","ap09rd22","0","29","1","1","1","1","null","","","<img src = 'targets/8.png' width = '100%;'>","null","","","","","","","","","",""
"","html-keyboard-response","134","625514","0.0-10.0-3.2","bmn0tyzef2","one_one","1","direct_first","1","ap09rd22","0","29","1","1","1","1","846","","","<img src = 'targets/mask.png' width = '100%;'>","75","neg","GS","GSold","1","category1/CS3.png","","targets/8.png","indirect","1","2"
"","html-keyboard-response","135","627047","0.0-10.0-0.3","bmn0tyzef2","one_one","1","direct_first","1","ap09rd22","0","29","1","1","1","1","null","","","<div style=""font-size:60px;"">+</div>","null","","","","","","","","","",""
"","html-keyboard-response","136","627148","0.0-10.0-1.3","bmn0tyzef2","one_one","1","direct_first","1","ap09rd22","0","29","1","1","1","1","null","","","<img src = 'category2/CS7.png' width = '100%;'>","null","","","","","","","","","",""
"","html-keyboard-response","137","627428","0.0-10.0-2.3","bmn0tyzef2","one_one","1","direct_first","1","ap09rd22","0","29","1","1","1","1","null","","","<img src = 'targets/15.png' width = '100%;'>","null","","","","","","","","","",""
"","html-keyboard-response","138","628195","0.0-10.0-3.3","bmn0tyzef2","one_one","1","direct_first","1","ap09rd22","0","29","1","1","1","1","765","","","<img src = 'targets/mask.png' width = '100%;'>","68","neg","GS","GSold","2","category2/CS7.png","","targets/15.png","indirect","0","3"
"","html-keyboard-response","139","629728","0.0-10.0-0.4","bmn0tyzef2","one_one","1","direct_first","1","ap09rd22","0","29","1","1","1","1","null","","","<div style=""font-size:60px;"">+</div>","null","","","","","","","","","",""
"","html-keyboard-response","140","629828","0.0-10.0-1.4","bmn0tyzef2","one_one","1","direct_first","1","ap09rd22","0","29","1","1","1","1","null","","","<img src = 'category2/CS1.png' width = '100%;'>","null","","","","","","","","","",""
"","html-keyboard-response","141","630108","0.0-10.0-2.4","bmn0tyzef2","one_one","1","direct_first","1","ap09rd22","0","29","1","1","1","1","null","","","<img src = 'targets/6.png' width = '100%;'>","null","","","","","","","","","",""
"","html-keyboard-response","142","630834","0.0-10.0-3.4","bmn0tyzef2","one_one","1","direct_first","1","ap09rd22","0","29","1","1","1","1","725","","","<img src = 'targets/mask.png' width = '100%;'>","75","neg","CS","CS","2","category2/CS1.png","","targets/6.png","indirect","1","4"
"","html-keyboard-response","143","632348","0.0-10.0-0.5","bmn0tyzef2","one_one","1","direct_first","1","ap09rd22","0","29","1","1","1","1","null","","","<div style=""font-size:60px;"">+</div>","null","","","","","","","","","",""
"","html-keyboard-response","144","632448","0.0-10.0-1.5","bmn0tyzef2","one_one","1","direct_first","1","ap09rd22","0","29","1","1","1","1","null","","","<img src = 'category4/CS1.png' width = '100%;'>","null","","","","","","","","","",""
"","html-keyboard-response","145","632727","0.0-10.0-2.5","bmn0tyzef2","one_one","1","direct_first","1","ap09rd22","0","29","1","1","1","1","null","","","<img src = 'targets/12.png' width = '100%;'>","null","","","","","","","","","",""
"","html-keyboard-response","146","633674","0.0-10.0-3.5","bmn0tyzef2","one_one","1","direct_first","1","ap09rd22","0","29","1","1","1","1","945","","","<img src = 'targets/mask.png' width = '100%;'>","75","pos","GS","GSold","4","category4/CS1.png","","targets/12.png","indirect","1","5"
"","html-keyboard-response","147","635207","0.0-10.0-0.6","bmn0tyzef2","one_one","1","direct_first","1","ap09rd22","0","29","1","1","1","1","null","","","<div style=""font-size:60px;"">+</div>","null","","","","","","","","","",""
"","html-keyboard-response","148","635307","0.0-10.0-1.6","bmn0tyzef2","one_one","1","direct_first","1","ap09rd22","0","29","1","1","1","1","null","","","<img src = 'category3/CS4.png' width = '100%;'>","null","","","","","","","","","",""
"","html-keyboard-response","149","635587","0.0-10.0-2.6","bmn0tyzef2","one_one","1","direct_first","1","ap09rd22","0","29","1","1","1","1","null","","","<img src = 'targets/5.png' width = '100%;'>","null","","","","","","","","","",""
"","html-keyboard-response","150","636290","0.0-10.0-3.6","bmn0tyzef2","one_one","1","direct_first","1","ap09rd22","0","29","1","1","1","1","700","","","<img src = 'targets/mask.png' width = '100%;'>","75","pos","GS","GSold","3","category3/CS4.png","","targets/5.png","indirect","1","6"
"","html-keyboard-response","151","637807","0.0-10.0-0.7","bmn0tyzef2","one_one","1","direct_first","1","ap09rd22","0","29","1","1","1","1","null","","","<div style=""font-size:60px;"">+</div>","null","","","","","","","","","",""
"","html-keyboard-response","152","637907","0.0-10.0-1.7","bmn0tyzef2","one_one","1","direct_first","1","ap09rd22","0","29","1","1","1","1","null","","","<img src = 'category1/CS9.png' width = '100%;'>","null","","","","","","","","","",""
"","html-keyboard-response","153","638187","0.0-10.0-2.7","bmn0tyzef2","one_one","1","direct_first","1","ap09rd22","0","29","1","1","1","1","null","","","<img src = 'targets/7.png' width = '100%;'>","null","","","","","","","","","",""
"","html-keyboard-response","154","639330","0.0-10.0-3.7","bmn0tyzef2","one_one","1","direct_first","1","ap09rd22","0","29","1","1","1","1","1141","","","<img src = 'targets/mask.png' width = '100%;'>","68","neg","CS","CS","1","category1/CS9.png","","targets/7.png","indirect","0","7"
"","html-keyboard-response","155","640867","0.0-10.0-0.8","bmn0tyzef2","one_one","1","direct_first","1","ap09rd22","0","29","1","1","1","1","null","","","<div style=""font-size:60px;"">+</div>","null","","","","","","","","","",""
"","html-keyboard-response","156","640968","0.0-10.0-1.8","bmn0tyzef2","one_one","1","direct_first","1","ap09rd22","0","29","1","1","1","1","null","","","<img src = 'category2/CS9.png' width = '100%;'>","null","","","","","","","","","",""
"","html-keyboard-response","157","641248","0.0-10.0-2.8","bmn0tyzef2","one_one","1","direct_first","1","ap09rd22","0","29","1","1","1","1","null","","","<img src = 'targets/13.png' width = '100%;'>","null","","","","","","","","","",""
"","html-keyboard-response","158","642282","0.0-10.0-3.8","bmn0tyzef2","one_one","1","direct_first","1","ap09rd22","0","29","1","1","1","1","1034","","","<img src = 'targets/mask.png' width = '100%;'>","75","neg","GS","GSold","2","category2/CS9.png","","targets/13.png","indirect","1","8"
"","html-keyboard-response","159","643808","0.0-10.0-0.9","bmn0tyzef2","one_one","1","direct_first","1","ap09rd22","0","29","1","1","1","1","null","","","<div style=""font-size:60px;"">+</div>","null","","","","","","","","","",""
"","html-keyboard-response","160","643907","0.0-10.0-1.9","bmn0tyzef2","one_one","1","direct_first","1","ap09rd22","0","29","1","1","1","1","null","","","<img src = 'category2/CS3.png' width = '100%;'>","null","","","","","","","","","",""
"","html-keyboard-response","161","644187","0.0-10.0-2.9","bmn0tyzef2","one_one","1","direct_first","1","ap09rd22","0","29","1","1","1","1","null","","","<img src = 'targets/25.png' width = '100%;'>","null","","","","","","","","","",""
"","html-keyboard-response","162","644915","0.0-10.0-3.9","bmn0tyzef2","one_one","1","direct_first","1","ap09rd22","0","29","1","1","1","1","726","","","<img src = 'targets/mask.png' width = '100%;'>","75","neg","GS","GSold","2","category2/CS3.png","","targets/25.png","indirect","1","9"
"","html-keyboard-response","163","646447","0.0-10.0-0.10","bmn0tyzef2","one_one","1","direct_first","1","ap09rd22","0","29","1","1","1","1","null","","","<div style=""font-size:60px;"">+</div>","null","","","","","","","","","",""
"","html-keyboard-response","164","646548","0.0-10.0-1.10","bmn0tyzef2","one_one","1","direct_first","1","ap09rd22","0","29","1","1","1","1","null","","","<img src = 'category3/CS8.png' width = '100%;'>","null","","","","","","","","","",""
"","html-keyboard-response","165","646828","0.0-10.0-2.10","bmn0tyzef2","one_one","1","direct_first","1","ap09rd22","0","29","1","1","1","1","null","","","<img src = 'targets/36.png' width = '100%;'>","null","","","","","","","","","",""
"","html-keyboard-response","166","647514","0.0-10.0-3.10","bmn0tyzef2","one_one","1","direct_first","1","ap09rd22","0","29","1","1","1","1","685","","","<img src = 'targets/mask.png' width = '100%;'>","68","pos","GS","GSold","3","category3/CS8.png","","targets/36.png","indirect","0","10"
"","html-keyboard-response","167","649046","0.0-10.0-0.11","bmn0tyzef2","one_one","1","direct_first","1","ap09rd22","0","29","1","1","1","1","null","","","<div style=""font-size:60px;"">+</div>","null","","","","","","","","","",""
"","html-keyboard-response","168","649146","0.0-10.0-1.11","bmn0tyzef2","one_one","1","direct_first","1","ap09rd22","0","29","1","1","1","1","null","","","<img src = 'category3/CS6.png' width = '100%;'>","null","","","","","","","","","",""
"","html-keyboard-response","169","649427","0.0-10.0-2.11","bmn0tyzef2","one_one","1","direct_first","1","ap09rd22","0","29","1","1","1","1","null","","","<img src = 'targets/2.png' width = '100%;'>","null","","","","","","","","","",""
"","html-keyboard-response","170","650346","0.0-10.0-3.11","bmn0tyzef2","one_one","1","direct_first","1","ap09rd22","0","29","1","1","1","1","918","","","<img src = 'targets/mask.png' width = '100%;'>","75","pos","CS","CS","3","category3/CS6.png","","targets/2.png","indirect","1","11"
"","html-keyboard-response","171","651868","0.0-10.0-0.12","bmn0tyzef2","one_one","1","direct_first","1","ap09rd22","0","29","1","1","1","1","null","","","<div style=""font-size:60px;"">+</div>","null","","","","","","","","","",""
"","html-keyboard-response","172","651967","0.0-10.0-1.12","bmn0tyzef2","one_one","1","direct_first","1","ap09rd22","0","29","1","1","1","1","null","","","<img src = 'category3/CS2.png' width = '100%;'>","null","","","","","","","","","",""
"","html-keyboard-response","173","652247","0.0-10.0-2.12","bmn0tyzef2","one_one","1","direct_first","1","ap09rd22","0","29","1","1","1","1","null","","","<img src = 'targets/20.png' width = '100%;'>","null","","","","","","","","","",""
"","html-keyboard-response","174","652952","0.0-10.0-3.12","bmn0tyzef2","one_one","1","direct_first","1","ap09rd22","0","29","1","1","1","1","705","","","<img src = 'targets/mask.png' width = '100%;'>","75","pos","GS","GSold","3","category3/CS2.png","","targets/20.png","indirect","1","12"
"","html-keyboard-response","175","654487","0.0-10.0-0.13","bmn0tyzef2","one_one","1","direct_first","1","ap09rd22","0","29","1","1","1","1","null","","","<div style=""font-size:60px;"">+</div>","null","","","","","","","","","",""
"","html-keyboard-response","176","654588","0.0-10.0-1.13","bmn0tyzef2","one_one","1","direct_first","1","ap09rd22","0","29","1","1","1","1","null","","","<img src = 'category1/CS4.png' width = '100%;'>","null","","","","","","","","","",""
"","html-keyboard-response","177","654868","0.0-10.0-2.13","bmn0tyzef2","one_one","1","direct_first","1","ap09rd22","0","29","1","1","1","1","null","","","<img src = 'targets/1.png' width = '100%;'>","null","","","","","","","","","",""
"","html-keyboard-response","178","655738","0.0-10.0-3.13","bmn0tyzef2","one_one","1","direct_first","1","ap09rd22","0","29","1","1","1","1","869","","","<img src = 'targets/mask.png' width = '100%;'>","68","neg","GS","GSold","1","category1/CS4.png","","targets/1.png","indirect","0","13"
"","html-keyboard-response","179","657266","0.0-10.0-0.14","bmn0tyzef2","one_one","1","direct_first","1","ap09rd22","0","29","1","1","1","1","null","","","<div style=""font-size:60px;"">+</div>","null","","","","","","","","","",""
"","html-keyboard-response","180","657366","0.0-10.0-1.14","bmn0tyzef2","one_one","1","direct_first","1","ap09rd22","0","29","1","1","1","1","null","","","<img src = 'category1/CS1.png' width = '100%;'>","null","","","","","","","","","",""
"","html-keyboard-response","181","657648","0.0-10.0-2.14","bmn0tyzef2","one_one","1","direct_first","1","ap09rd22","0","29","1","1","1","1","null","","","<img src = 'targets/40.png' width = '100%;'>","null","","","","","","","","","",""
"","html-keyboard-response","182","658530","0.0-10.0-3.14","bmn0tyzef2","one_one","1","direct_first","1","ap09rd22","0","29","1","1","1","1","881","","","<img src = 'targets/mask.png' width = '100%;'>","75","neg","GS","GSold","1","category1/CS1.png","","targets/40.png","indirect","1","14"
"","html-keyboard-response","183","660067","0.0-10.0-0.15","bmn0tyzef2","one_one","1","direct_first","1","ap09rd22","0","29","1","1","1","1","null","","","<div style=""font-size:60px;"">+</div>","null","","","","","","","","","",""
"","html-keyboard-response","184","660168","0.0-10.0-1.15","bmn0tyzef2","one_one","1","direct_first","1","ap09rd22","0","29","1","1","1","1","null","","","<img src = 'category4/CS5.png' width = '100%;'>","null","","","","","","","","","",""
"","html-keyboard-response","185","660448","0.0-10.0-2.15","bmn0tyzef2","one_one","1","direct_first","1","ap09rd22","0","29","1","1","1","1","null","","","<img src = 'targets/43.png' width = '100%;'>","null","","","","","","","","","",""
"","html-keyboard-response","186","661921","0.0-10.0-3.15","bmn0tyzef2","one_one","1","direct_first","1","ap09rd22","0","29","1","1","1","1","1472","","","<img src = 'targets/mask.png' width = '100%;'>","75","pos","CS","CS","4","category4/CS5.png","","targets/43.png","indirect","1","15"
"","survey-html-form","187","666290","0.0-11.0","bmn0tyzef2","one_one","1","direct_first","1","ap09rd22","0","29","1","1","1","1","3862","","{}","","","","","","","","","","","",""
"","html-keyboard-response","188","669328","0.0-12.0-0.0","bmn0tyzef2","one_one","1","direct_first","1","ap09rd22","0","29","1","1","1","1","null","","","<div style=""font-size:60px;"">+</div>","null","","","","","","","","","",""
"","html-keyboard-response","189","669428","0.0-12.0-1.0","bmn0tyzef2","one_one","1","direct_first","1","ap09rd22","0","29","1","1","1","1","null","","","<img src = 'category1/GS3.png' width = '100%;'>","null","","","","","","","","","",""
"","html-keyboard-response","190","669698","0.0-12.0-2.0","bmn0tyzef2","one_one","1","direct_first","1","ap09rd22","0","29","1","1","1","1","null","","","<img src = 'targets/33.png' width = '100%;'>","null","","","","","","","","","",""
"","html-keyboard-response","191","670546","0.0-12.0-3.0","bmn0tyzef2","one_one","1","direct_first","1","ap09rd22","0","29","1","1","1","1","848","","","<img src = 'targets/mask.png' width = '100%;'>","68","neg","GS","GSnew","1","category1/GS3.png","","targets/33.png","indirect","0","16"
"","html-keyboard-response","192","672068","0.0-12.0-0.1","bmn0tyzef2","one_one","1","direct_first","1","ap09rd22","0","29","1","1","1","1","null","","","<div style=""font-size:60px;"">+</div>","null","","","","","","","","","",""
"","html-keyboard-response","193","672167","0.0-12.0-1.1","bmn0tyzef2","one_one","1","direct_first","1","ap09rd22","0","29","1","1","1","1","null","","","<img src = 'category1/GS1.png' width = '100%;'>","null","","","","","","","","","",""
"","html-keyboard-response","194","672448","0.0-12.0-2.1","bmn0tyzef2","one_one","1","direct_first","1","ap09rd22","0","29","1","1","1","1","null","","","<img src = 'targets/32.png' width = '100%;'>","null","","","","","","","","","",""
"","html-keyboard-response","195","673346","0.0-12.0-3.1","bmn0tyzef2","one_one","1","direct_first","1","ap09rd22","0","29","1","1","1","1","898","","","<img src = 'targets/mask.png' width = '100%;'>","68","neg","GS","GSnew","1","category1/GS1.png","","targets/32.png","indirect","0","17"
"","html-keyboard-response","196","674847","0.0-12.0-0.2","bmn0tyzef2","one_one","1","direct_first","1","ap09rd22","0","29","1","1","1","1","null","","","<div style=""font-size:60px;"">+</div>","null","","","","","","","","","",""
"","html-keyboard-response","197","674948","0.0-12.0-1.2","bmn0tyzef2","one_one","1","direct_first","1","ap09rd22","0","29","1","1","1","1","null","","","<img src = 'category1/ma.png' width = '100%;'>","null","","","","","","","","","",""
"","html-keyboard-response","198","675228","0.0-12.0-2.2","bmn0tyzef2","one_one","1","direct_first","1","ap09rd22","0","29","1","1","1","1","null","","","<img src = 'targets/42.png' width = '100%;'>","null","","","","","","","","","",""
"","html-keyboard-response","199","675970","0.0-12.0-3.2","bmn0tyzef2","one_one","1","direct_first","1","ap09rd22","0","29","1","1","1","1","741","","","<img src = 'targets/mask.png' width = '100%;'>","68","neg","GS","abstract","1","category1/ma.png","","targets/42.png","indirect","0","18"
"","html-keyboard-response","200","677508","0.0-12.0-0.3","bmn0tyzef2","one_one","1","direct_first","1","ap09rd22","0","29","1","1","1","1","null","","","<div style=""font-size:60px;"">+</div>","null","","","","","","","","","",""
"","html-keyboard-response","201","677608","0.0-12.0-1.3","bmn0tyzef2","one_one","1","direct_first","1","ap09rd22","0","29","1","1","1","1","null","","","<img src = 'category3/GS3.png' width = '100%;'>","null","","","","","","","","","",""
"","html-keyboard-response","202","677887","0.0-12.0-2.3","bmn0tyzef2","one_one","1","direct_first","1","ap09rd22","0","29","1","1","1","1","null","","","<img src = 'targets/30.png' width = '100%;'>","null","","","","","","","","","",""
"","html-keyboard-response","203","678546","0.0-12.0-3.3","bmn0tyzef2","one_one","1","direct_first","1","ap09rd22","0","29","1","1","1","1","657","","","<img src = 'targets/mask.png' width = '100%;'>","68","pos","GS","GSnew","3","category3/GS3.png","","targets/30.png","indirect","0","19"
"","html-keyboard-response","204","680067","0.0-12.0-0.4","bmn0tyzef2","one_one","1","direct_first","1","ap09rd22","0","29","1","1","1","1","null","","","<div style=""font-size:60px;"">+</div>","null","","","","","","","","","",""
"","html-keyboard-response","205","680168","0.0-12.0-1.4","bmn0tyzef2","one_one","1","direct_first","1","ap09rd22","0","29","1","1","1","1","null","","","<img src = 'category2/GS3.png' width = '100%;'>","null","","","","","","","","","",""
"","html-keyboard-response","206","680447","0.0-12.0-2.4","bmn0tyzef2","one_one","1","direct_first","1","ap09rd22","0","29","1","1","1","1","null","","","<img src = 'targets/21.png' width = '100%;'>","null","","","","","","","","","",""
"","html-keyboard-response","207","681554","0.0-12.0-3.4","bmn0tyzef2","one_one","1","direct_first","1","ap09rd22","0","29","1","1","1","1","1103","","","<img src = 'targets/mask.png' width = '100%;'>","68","neg","GS","GSnew","2","category2/GS3.png","","targets/21.png","indirect","0","20"
"","html-keyboard-response","208","683088","0.0-12.0-0.5","bmn0tyzef2","one_one","1","direct_first","1","ap09rd22","0","29","1","1","1","1","null","","","<div style=""font-size:60px;"">+</div>","null","","","","","","","","","",""
"","html-keyboard-response","209","683188","0.0-12.0-1.5","bmn0tyzef2","one_one","1","direct_first","1","ap09rd22","0","29","1","1","1","1","null","","","<img src = 'category4/GS1.png' width = '100%;'>","null","","","","","","","","","",""
"","html-keyboard-response","210","683468","0.0-12.0-2.5","bmn0tyzef2","one_one","1","direct_first","1","ap09rd22","0","29","1","1","1","1","null","","","<img src = 'targets/9.png' width = '100%;'>","null","","","","","","","","","",""
"","html-keyboard-response","211","684026","0.0-12.0-3.5","bmn0tyzef2","one_one","1","direct_first","1","ap09rd22","0","29","1","1","1","1","557","","","<img src = 'targets/mask.png' width = '100%;'>","75","pos","GS","GSnew","4","category4/GS1.png","","targets/9.png","indirect","1","21"
"","html-keyboard-response","212","685548","0.0-12.0-0.6","bmn0tyzef2","one_one","1","direct_first","1","ap09rd22","0","29","1","1","1","1","null","","","<div style=""font-size:60px;"">+</div>","null","","","","","","","","","",""
"","html-keyboard-response","213","685647","0.0-12.0-1.6","bmn0tyzef2","one_one","1","direct_first","1","ap09rd22","0","29","1","1","1","1","null","","","<img src = 'category3/wang.png' width = '100%;'>","null","","","","","","","","","",""
"","html-keyboard-response","214","685928","0.0-12.0-2.6","bmn0tyzef2","one_one","1","direct_first","1","ap09rd22","0","29","1","1","1","1","null","","","<img src = 'targets/44.png' width = '100%;'>","null","","","","","","","","","",""
"","html-keyboard-response","215","686665","0.0-12.0-3.6","bmn0tyzef2","one_one","1","direct_first","1","ap09rd22","0","29","1","1","1","1","736","","","<img src = 'targets/mask.png' width = '100%;'>","75","pos","GS","abstract","3","category3/wang.png","","targets/44.png","indirect","1","22"
"","html-keyboard-response","216","688167","0.0-12.0-0.7","bmn0tyzef2","one_one","1","direct_first","1","ap09rd22","0","29","1","1","1","1","null","","","<div style=""font-size:60px;"">+</div>","null","","","","","","","","","",""
"","html-keyboard-response","217","688268","0.0-12.0-1.7","bmn0tyzef2","one_one","1","direct_first","1","ap09rd22","0","29","1","1","1","1","null","","","<img src = 'category1/GS2.png' width = '100%;'>","null","","","","","","","","","",""
"","html-keyboard-response","218","688548","0.0-12.0-2.7","bmn0tyzef2","one_one","1","direct_first","1","ap09rd22","0","29","1","1","1","1","null","","","<img src = 'targets/17.png' width = '100%;'>","null","","","","","","","","","",""
"","html-keyboard-response","219","689730","0.0-12.0-3.7","bmn0tyzef2","one_one","1","direct_first","1","ap09rd22","0","29","1","1","1","1","1181","","","<img src = 'targets/mask.png' width = '100%;'>","68","neg","GS","GSnew","1","category1/GS2.png","","targets/17.png","indirect","0","23"
"","html-keyboard-response","220","691248","0.0-12.0-0.8","bmn0tyzef2","one_one","1","direct_first","1","ap09rd22","0","29","1","1","1","1","null","","","<div style=""font-size:60px;"">+</div>","null","","","","","","","","","",""
"","html-keyboard-response","221","691347","0.0-12.0-1.8","bmn0tyzef2","one_one","1","direct_first","1","ap09rd22","0","29","1","1","1","1","null","","","<img src = 'category3/GS2.png' width = '100%;'>","null","","","","","","","","","",""
"","html-keyboard-response","222","691628","0.0-12.0-2.8","bmn0tyzef2","one_one","1","direct_first","1","ap09rd22","0","29","1","1","1","1","null","","","<img src = 'targets/10.png' width = '100%;'>","null","","","","","","","","","",""
"","html-keyboard-response","223","692306","0.0-12.0-3.8","bmn0tyzef2","one_one","1","direct_first","1","ap09rd22","0","29","1","1","1","1","678","","","<img src = 'targets/mask.png' width = '100%;'>","75","pos","GS","GSnew","3","category3/GS2.png","","targets/10.png","indirect","1","24"
"","html-keyboard-response","224","693808","0.0-12.0-0.9","bmn0tyzef2","one_one","1","direct_first","1","ap09rd22","0","29","1","1","1","1","null","","","<div style=""font-size:60px;"">+</div>","null","","","","","","","","","",""
"","html-keyboard-response","225","693908","0.0-12.0-1.9","bmn0tyzef2","one_one","1","direct_first","1","ap09rd22","0","29","1","1","1","1","null","","","<img src = 'category3/GS1.png' width = '100%;'>","null","","","","","","","","","",""
"","html-keyboard-response","226","694187","0.0-12.0-2.9","bmn0tyzef2","one_one","1","direct_first","1","ap09rd22","0","29","1","1","1","1","null","","","<img src = 'targets/26.png' width = '100%;'>","null","","","","","","","","","",""
"","html-keyboard-response","227","694882","0.0-12.0-3.9","bmn0tyzef2","one_one","1","direct_first","1","ap09rd22","0","29","1","1","1","1","693","","","<img src = 'targets/mask.png' width = '100%;'>","68","pos","GS","GSnew","3","category3/GS1.png","","targets/26.png","indirect","0","25"
"","html-keyboard-response","228","696398","0.0-12.0-0.10","bmn0tyzef2","one_one","1","direct_first","1","ap09rd22","0","29","1","1","1","1","null","","","<div style=""font-size:60px;"">+</div>","null","","","","","","","","","",""
"","html-keyboard-response","229","696498","0.0-12.0-1.10","bmn0tyzef2","one_one","1","direct_first","1","ap09rd22","0","29","1","1","1","1","null","","","<img src = 'category2/men.png' width = '100%;'>","null","","","","","","","","","",""
"","html-keyboard-response","230","696778","0.0-12.0-2.10","bmn0tyzef2","one_one","1","direct_first","1","ap09rd22","0","29","1","1","1","1","null","","","<img src = 'targets/48.png' width = '100%;'>","null","","","","","","","","","",""
"","html-keyboard-response","231","697354","0.0-12.0-3.10","bmn0tyzef2","one_one","1","direct_first","1","ap09rd22","0","29","1","1","1","1","575","","","<img src = 'targets/mask.png' width = '100%;'>","75","neg","GS","abstract","2","category2/men.png","","targets/48.png","indirect","1","26"
"","html-keyboard-response","232","698857","0.0-12.0-0.11","bmn0tyzef2","one_one","1","direct_first","1","ap09rd22","0","29","1","1","1","1","null","","","<div style=""font-size:60px;"">+</div>","null","","","","","","","","","",""
"","html-keyboard-response","233","698958","0.0-12.0-1.11","bmn0tyzef2","one_one","1","direct_first","1","ap09rd22","0","29","1","1","1","1","null","","","<img src = 'category4/GS2.png' width = '100%;'>","null","","","","","","","","","",""
"","html-keyboard-response","234","699237","0.0-12.0-2.11","bmn0tyzef2","one_one","1","direct_first","1","ap09rd22","0","29","1","1","1","1","null","","","<img src = 'targets/35.png' width = '100%;'>","null","","","","","","","","","",""
"","html-keyboard-response","235","700202","0.0-12.0-3.11","bmn0tyzef2","one_one","1","direct_first","1","ap09rd22","0","29","1","1","1","1","963","","","<img src = 'targets/mask.png' width = '100%;'>","75","pos","GS","GSnew","4","category4/GS2.png","","targets/35.png","indirect","1","27"
"","html-keyboard-response","236","701718","0.0-12.0-0.12","bmn0tyzef2","one_one","1","direct_first","1","ap09rd22","0","29","1","1","1","1","null","","","<div style=""font-size:60px;"">+</div>","null","","","","","","","","","",""
"","html-keyboard-response","237","701817","0.0-12.0-1.12","bmn0tyzef2","one_one","1","direct_first","1","ap09rd22","0","29","1","1","1","1","null","","","<img src = 'category2/GS1.png' width = '100%;'>","null","","","","","","","","","",""
"","html-keyboard-response","238","702098","0.0-12.0-2.12","bmn0tyzef2","one_one","1","direct_first","1","ap09rd22","0","29","1","1","1","1","null","","","<img src = 'targets/24.png' width = '100%;'>","null","","","","","","","","","",""
"","html-keyboard-response","239","702785","0.0-12.0-3.12","bmn0tyzef2","one_one","1","direct_first","1","ap09rd22","0","29","1","1","1","1","685","","","<img src = 'targets/mask.png' width = '100%;'>","68","neg","GS","GSnew","2","category2/GS1.png","","targets/24.png","indirect","0","28"
"","html-keyboard-response","240","704295","0.0-12.0-0.13","bmn0tyzef2","one_one","1","direct_first","1","ap09rd22","0","29","1","1","1","1","null","","","<div style=""font-size:60px;"">+</div>","null","","","","","","","","","",""
"","html-keyboard-response","241","704388","0.0-12.0-1.13","bmn0tyzef2","one_one","1","direct_first","1","ap09rd22","0","29","1","1","1","1","null","","","<img src = 'category2/GS2.png' width = '100%;'>","null","","","","","","","","","",""
"","html-keyboard-response","242","704658","0.0-12.0-2.13","bmn0tyzef2","one_one","1","direct_first","1","ap09rd22","0","29","1","1","1","1","null","","","<img src = 'targets/16.png' width = '100%;'>","null","","","","","","","","","",""
"","html-keyboard-response","243","706018","0.0-12.0-3.13","bmn0tyzef2","one_one","1","direct_first","1","ap09rd22","0","29","1","1","1","1","1359","","","<img src = 'targets/mask.png' width = '100%;'>","75","neg","GS","GSnew","2","category2/GS2.png","","targets/16.png","indirect","1","29"
"","html-keyboard-response","244","707558","0.0-12.0-0.14","bmn0tyzef2","one_one","1","direct_first","1","ap09rd22","0","29","1","1","1","1","null","","","<div style=""font-size:60px;"">+</div>","null","","","","","","","","","",""
"","html-keyboard-response","245","707658","0.0-12.0-1.14","bmn0tyzef2","one_one","1","direct_first","1","ap09rd22","0","29","1","1","1","1","null","","","<img src = 'category4/GS3.png' width = '100%;'>","null","","","","","","","","","",""
"","html-keyboard-response","246","707937","0.0-12.0-2.14","bmn0tyzef2","one_one","1","direct_first","1","ap09rd22","0","29","1","1","1","1","null","","","<img src = 'targets/46.png' width = '100%;'>","null","","","","","","","","","",""
"","html-keyboard-response","247","708898","0.0-12.0-3.14","bmn0tyzef2","one_one","1","direct_first","1","ap09rd22","0","29","1","1","1","1","959","","","<img src = 'targets/mask.png' width = '100%;'>","75","pos","GS","GSnew","4","category4/GS3.png","","targets/46.png","indirect","1","30"
"","html-keyboard-response","248","710438","0.0-12.0-0.15","bmn0tyzef2","one_one","1","direct_first","1","ap09rd22","0","29","1","1","1","1","null","","","<div style=""font-size:60px;"">+</div>","null","","","","","","","","","",""
"","html-keyboard-response","249","710538","0.0-12.0-1.15","bmn0tyzef2","one_one","1","direct_first","1","ap09rd22","0","29","1","1","1","1","null","","","<img src = 'category4/lin.png' width = '100%;'>","null","","","","","","","","","",""
"","html-keyboard-response","250","710818","0.0-12.0-2.15","bmn0tyzef2","one_one","1","direct_first","1","ap09rd22","0","29","1","1","1","1","null","","","<img src = 'targets/28.png' width = '100%;'>","null","","","","","","","","","",""
"","html-keyboard-response","251","711410","0.0-12.0-3.15","bmn0tyzef2","one_one","1","direct_first","1","ap09rd22","0","29","1","1","1","1","592","","","<img src = 'targets/mask.png' width = '100%;'>","68","pos","GS","abstract","4","category4/lin.png","","targets/28.png","indirect","0","31"
"","survey-html-form","252","718458","0.0-13.0","bmn0tyzef2","one_one","1","direct_first","1","ap09rd22","0","29","1","1","1","1","6540","","{}","","","","","","","","","","","",""
"","image-slider-response","253","728089","0.0-14.0-0.0","bmn0tyzef2","one_one","1","direct_first","1","ap09rd22","0","29","1","1","1","1","8606","","","","","pos","All","all","4","category4/lin_all.png","100","","all","",""
"","image-slider-response","254","730585","0.0-14.0-0.1","bmn0tyzef2","one_one","1","direct_first","1","ap09rd22","0","29","1","1","1","1","2495","","","","","neg","All","all","2","category2/men_all.png","-100","","all","",""
"","image-slider-response","255","734393","0.0-14.0-0.2","bmn0tyzef2","one_one","1","direct_first","1","ap09rd22","0","29","1","1","1","1","3807","","","","","pos","All","all","3","category3/wang_all.png","100","","all","",""
"","image-slider-response","256","737945","0.0-14.0-0.3","bmn0tyzef2","one_one","1","direct_first","1","ap09rd22","0","29","1","1","1","1","3550","","","","","neg","All","all","1","category1/ma_all.png","-63","","all","",""
"","survey-text","257","745482","0.0-15.0","bmn0tyzef2","one_one","1","direct_first","1","ap09rd22","0","29","1","1","1","1","7533","","{""Q0"":""""}","","","","","","","","","","","",""
